IMU1_AccX,IMU1_AccY,IMU1_AccZ,IMU1_GyrX,IMU1_GyrY,IMU1_GyrZ,IMU1_MagX,IMU1_MagY,IMU1_MagZ,IMU2_AccX,IMU2_AccY,IMU2_AccZ,IMU2_GyrX,IMU2_GyrY,IMU2_GyrZ,IMU2_MagX,IMU2_MagY,IMU2_MagZ,IMU3_AccX,IMU3_AccY,IMU3_AccZ,IMU3_GyrX,IMU3_GyrY,IMU3_GyrZ,IMU3_MagX,IMU3_MagY,IMU3_MagZ
0.05541991999999999,0.540527345,0.27001953,0.49995916461875756,0.5000099923590335,0.4999900076409665,-7.05,27.3,16.35,0.21337890499999998,0.51513672,0.9177246099999999,0.499979882113311,0.500017986228807,0.499991339938051,90.15,2.25,70.05,0.0078125,0.545410155,0.604003905,0.5000614862042185,0.5000236485132329,0.5000190521013812,58.8,24.0,0.6
0.0625,0.5349121099999999,0.28027344,0.499949172259724,0.4999844785251626,0.5000111914002296,-7.65,27.3,16.05,0.20410156499999998,0.5146484400000001,0.927246095,0.4999812809947065,0.5000258468426921,0.5000075276050638,90.15,2.25,70.05,0.01171875,0.5498046900000001,0.59423828,0.5000673484161101,0.5000233155044115,0.4999821470270813,59.7,21.15,0.45
0.05126952999999997,0.5417480450000001,0.27709961,0.49993311793586603,0.4999894081203684,0.4999682243611053,-9.15,27.3,16.35,0.21972656499999998,0.51220703,0.924804685,0.5000209839190638,0.5000031975304562,0.4999790160809362,90.0,1.2,69.6,0.0068359399999999935,0.5437011700000001,0.59814453,0.5000624854924818,0.5000195849504019,0.500009259582547,60.3,22.35,0.45
0.05981445500000001,0.5368652349999999,0.278320315,0.4999509043244737,0.5000186523337161,0.4999737534769091,-8.7,27.75,17.7,0.21044922000000002,0.5163574200000001,0.9187011700000001,0.5000235819289219,0.5000210505033748,0.49999094025765234,90.9,1.5,71.25,0.006103515000000016,0.5427246099999999,0.59472656,0.500074143157421,0.5000273789799761,0.5000055291158039,60.3,22.35,0.45
0.04565429499999999,0.5275878900000001,0.275146485,0.4999751523583046,0.49997162173176074,0.5000131233051787,-8.7,27.75,17.7,0.21069336,0.515625,0.916503905,0.5000090597423477,0.5000137228257767,0.49998827566348325,90.9,1.5,71.25,-0.0009765600000000063,0.541015625,0.5969238299999999,0.5000751424456843,0.5000045298275406,0.5000077940295742,59.4,21.75,1.05
0.04150390499999997,0.5314941400000001,0.266601565,0.4999570995451866,0.5000129234649794,0.4999778170397401,-8.1,28.05,17.1,0.20971679499999998,0.5139160150000001,0.9196777349999999,0.5000136562414658,0.5000271791397767,0.4999842121006523,91.35,1.95,68.85,0.003662109999999984,0.5446777349999999,0.599121095,0.5000388368919825,0.4999966692136555,0.5000101256149219,58.35,23.25,0.0
0.04223633000000001,0.533691405,0.2734375,0.49998201377119295,0.49999786834211807,0.49999553675677033,-7.65,28.05,16.65,0.21850586,0.5153808599999999,0.9235839849999999,0.5000025314255471,0.5000038637226316,0.500002131657882,90.75,1.95,70.35,0.008300779999999975,0.533203125,0.6086425799999999,0.5000325749996921,0.5000009992009967,0.4999972021499426,58.35,23.25,0.0
0.03833008000000001,0.5302734400000001,0.27709961,0.5000232488328341,0.4999898078007671,0.5000139226659761,-7.5,28.95,17.55,0.224609375,0.509765625,0.9328613299999999,0.4999968690538548,0.5000106584639425,0.49999267232240197,91.05,-0.15,69.15,0.0031738300000000094,0.533691405,0.60644531,0.5000332411918677,0.5000245145456076,0.499975951719102,60.6,21.0,-0.3
0.05346679499999999,0.5476074200000001,0.28198242,0.4999805482182201,0.5000064617324896,0.49999487056459485,-7.95,27.45,14.7,0.228759765,0.5119628900000001,0.932617185,0.5000260466828915,0.5000181860690064,0.4999774839436523,91.05,-0.15,69.15,0.012207029999999975,0.5419921900000001,0.6096191400000001,0.5000417679979283,0.5000083935501722,0.4999946707243955,60.6,21.0,-0.3
0.04833984500000003,0.5407714849999999,0.293945315,0.49999367152339874,0.4999904073213652,0.49997681775147684,-7.95,27.45,14.7,0.22924804499999998,0.5144042950000001,0.9265136700000001,0.5000216501112393,0.49999606969305743,0.4999918062900271,91.35,1.2,69.9,0.01684570500000001,0.5397949200000001,0.6086425799999999,0.5000611531081308,0.4999760849749904,0.5000043299873413,59.4,22.2,1.05
0.04443359500000003,0.533691405,0.29321289,0.5000345069046412,0.49997062253076396,0.5000053958599154,-7.95,27.45,14.7,0.22802734500000002,0.514160155,0.919433595,0.5000289112045264,0.5000003330960877,0.49998234686728066,90.0,1.2,70.35,0.017578125,0.5383300799999999,0.614746095,0.5000692136494816,0.4999895413762568,0.49998507813302717,58.95,20.55,0.75
0.04809570500000001,0.5322265650000001,0.29345703,0.5000070612530877,0.4999870099507097,0.49998414551634135,-7.65,28.8,17.1,0.228759765,0.5207519549999999,0.9230957049999999,0.5000137894100877,0.5000141890904864,0.4999796822731117,91.65,1.5,69.75,0.006591794999999991,0.5349121099999999,0.6174316400000001,0.5000964594608358,0.49999500382048323,0.5000285781084386,59.4,23.25,-0.6
0.05517577999999997,0.5432128900000001,0.30004883,0.49999800151074,0.5000087932305709,0.4999916730341387,-7.95,28.2,17.25,0.22680664,0.5263671900000001,0.9318847650000001,0.5000207840788644,0.49999553675677033,0.4999815475064833,90.75,1.65,70.35,0.0068359399999999935,0.5251464849999999,0.6218261700000001,0.5000867335263126,0.49996416079827427,0.4999862771742233,59.85,22.5,0.6
0.06225585999999998,0.5546875,0.30517578,0.5000263131946683,0.49998967454487875,0.5000186523337161,-6.9,29.7,15.15,0.23754883000000002,0.520996095,0.9265136700000001,0.5000171201964322,0.5000011324568852,0.49996935681799043,90.3,1.2,70.35,0.010742189999999993,0.5222167950000001,0.615722655,0.5000912634411198,0.5000077274452632,0.5000090597423477,59.85,22.5,0.6
0.06030273499999998,0.5466308599999999,0.30859375,0.4999892082801691,0.500025313906405,0.499997335405831,-6.9,29.7,15.15,0.23681640499999998,0.51171875,0.9296875,0.5000193851102025,0.5000017319774832,0.49997348696513233,89.85,1.8,70.5,0.009521484999999984,0.524902345,0.6159667950000001,0.5001174433798996,0.500022116375949,0.5000046630834291,59.25,22.65,-0.45
0.06225585999999998,0.5476074200000001,0.31176758,0.5000041968187193,0.5000204509827767,0.499979882113311,-9.3,28.65,17.25,0.23925781499999998,0.5126953150000001,0.932128905,0.5000105252953206,0.5000061952207129,0.4999673583287304,89.85,1.8,70.5,0.004394529999999975,0.51513672,0.612304685,0.5001118475925184,0.50000472966774,0.5000078606138851,59.25,22.65,-0.45
0.07250976500000002,0.5554199200000001,0.310546875,0.5000116577522058,0.5000017319774832,0.4999954701724594,-8.7,28.8,17.4,0.23168945500000002,0.5075683599999999,0.9299316400000001,0.5000091929982361,0.5000027978500574,0.4999568331206763,91.05,1.2,69.9,0.008789064999999993,0.5236816400000001,0.610839845,0.5001309662782105,0.4999739533171085,0.4999844785251626,58.8,21.75,1.05
0.06518554499999998,0.5549316400000001,0.29589844,0.49998234686728066,0.5000238483534322,0.5000080604540845,-7.2,27.45,15.15,0.232177735,0.50463867,0.92919922,0.5000129900492903,0.5000196516219793,0.4999586983540479,90.9,1.5,70.5,0.018554689999999995,0.52294922,0.61279297,0.5001485528266189,0.4999624288207911,0.4999642940541627,59.1,22.2,0.6
0.05175781499999999,0.5490722650000001,0.287597655,0.49997215466804784,0.5000289112045264,0.49997581855048007,-9.0,28.95,15.75,0.236083985,0.51123047,0.9445800799999999,0.500007327677598,0.5000155880591484,0.4999523032058692,91.05,1.95,69.6,0.015869140000000014,0.5236816400000001,0.6120605450000001,0.5001516837727641,0.49996782468070655,0.4999895413762568,59.4,21.45,0.3
0.04077148499999998,0.5407714849999999,0.28515625,0.5000032642020336,0.5000187855896044,0.5000037304667432,-9.0,28.95,15.75,0.23779297000000002,0.49584961,0.92578125,0.5000345734889522,0.5000100589433445,0.49994217767821375,90.15,2.25,69.75,0.02026366999999999,0.5354003900000001,0.6145019549999999,0.5001595443866491,0.5000117243365167,0.4999808813143078,59.1,21.75,-0.3
0.026855470000000024,0.541015625,0.27661133,0.49998427868496326,0.5000049961795168,0.4999586983540479,-9.45,27.3,17.1,0.212646485,0.498779295,0.9221191400000001,0.5000185191650941,0.5000623522365933,0.49992905437303503,91.2,3.0,70.05,0.01049804499999999,0.5446777349999999,0.615234375,0.5001485528266189,0.5000285115241276,0.49999400461948645,58.05,20.25,1.05
0.026855470000000024,0.5402832049999999,0.27709961,0.5000021983294594,0.4999822136113923,0.4999792159211356,-9.3,28.95,16.8,0.22290039,0.5380859400000001,0.938964845,0.5000717449877623,0.4999908736733413,0.4999391133163796,91.35,0.9,70.65,0.021728515000000014,0.548828125,0.6188964849999999,0.5001297006527035,0.5000198514621786,0.5000139226659761,59.4,19.95,0.6
0.02661133000000001,0.537109375,0.278320315,0.5000110582316077,0.49993758117909565,0.49998687669482134,-7.2,27.9,16.2,0.220703125,0.517089845,0.9226074200000001,0.5000602204914449,0.5000233155044115,0.49993951299677825,91.35,0.9,70.65,0.016113279999999976,0.5534667950000001,0.618652345,0.5001061187237816,0.5000345069046412,0.4999857442379362,59.4,19.95,0.6
0.03491210999999998,0.552246095,0.291259765,0.49999487056459485,0.4999688904660143,0.49995410185492983,-7.2,27.9,16.2,0.23754883000000002,0.5388183599999999,0.92529297,0.5000363055537018,0.500034840000729,0.49993298467997765,89.85,1.8,70.05,0.016601564999999995,0.5544433599999999,0.6145019549999999,0.5001140459219776,0.5000239816093206,0.5000089264864593,58.5,21.6,-0.75
0.044921875,0.5439453150000001,0.29760742,0.5000087932305709,0.49996382770218656,0.49994650766555504,-7.65,28.05,16.35,0.22509765499999998,0.5266113299999999,0.9265136700000001,0.500033973968354,0.5000140559218645,0.49994204442232537,91.05,0.15,69.6,0.012695314999999993,0.5573730450000001,0.623046875,0.5000870000380894,0.5000329747673573,0.5000001332558884,58.5,21.6,-0.75
0.05200195500000001,0.5393066400000001,0.294433595,0.5000305765976986,0.4999490390911021,0.49998734304679743,-8.1,27.75,16.65,0.23095702999999998,0.53515625,0.94482422,0.5000173867082089,0.5000205176543542,0.49990780394219453,92.1,1.2,69.9,0.007080080000000009,0.557128905,0.61376953,0.5000986577030287,0.500052826229536,0.4999970688940542,60.15,21.0,0.0
0.05615234500000003,0.52783203,0.298095705,0.5000071278373986,0.4999825467074801,0.49995729938538597,-6.9,26.1,15.75,0.21508789,0.5280761700000001,0.935546875,0.5000345734889522,0.4999908736733413,0.49992319216114345,92.1,1.2,69.9,-0.0007324199999999905,0.56640625,0.6096191400000001,0.5001120474327178,0.5000386370517831,0.49997961560153426,58.35,21.0,-1.05
0.05517577999999997,0.5319824200000001,0.29760742,0.5000204509827767,0.49997894949662525,0.4999849448771388,-8.4,29.25,16.05,0.21606445500000002,0.5344238299999999,0.9333496099999999,0.5000357059458373,0.4999746860935949,0.49992252605623444,89.4,-0.75,69.75,0.001953125,0.5637207049999999,0.611328125,0.5001117144238963,0.5000414349018405,0.4999875428869968,58.35,21.0,-1.05
0.05566406499999999,0.5290527349999999,0.294189455,0.5000390367321818,0.4999495053558118,0.4999925390665136,-8.4,29.25,16.05,0.22558593999999998,0.5310058599999999,0.936035155,0.5000254471622935,0.5000083935501722,0.4999393131565789,90.75,0.45,69.6,0.014648439999999993,0.563964845,0.611816405,0.5000577557374754,0.5000369716586108,0.49999200613022643,60.0,22.35,-0.15
0.04736327999999997,0.53955078,0.301757815,0.5000436998156108,0.49999920063920256,0.4999717549876492,-9.6,28.65,17.85,0.220458985,0.52783203,0.9270019549999999,0.5000299104055231,0.49999007431254394,0.49998341273985486,90.75,0.45,69.6,0.0078125,0.5544433599999999,0.600585935,0.5000610865238199,0.5000492289314147,0.49999293874691225,58.8,21.45,-0.3
0.05615234500000003,0.537109375,0.298339845,0.500026779459378,0.5000073943491754,0.49997368680533166,-8.7,26.55,17.4,0.224609375,0.5263671900000001,0.927246095,0.5000252473220941,0.4999798154417336,0.49999527033226004,90.75,0.45,69.6,0.001953125,0.5466308599999999,0.60595703,0.5000824701232823,0.5000011990411961,0.5000233155044115,58.8,21.45,-0.3
0.05004883000000001,0.532714845,0.30151367,0.5000504946441883,0.4999832128996555,0.4999832794839665,-7.35,27.3,16.35,0.22192383000000002,0.5300292950000001,0.9191894549999999,0.49999054057725356,0.5000033307863445,0.49996016381975433,92.1,-0.15,69.6,0.016601564999999995,0.5397949200000001,0.608398435,0.5000739433172217,0.5000070612530877,0.49999400461948645,57.3,20.25,-1.35
0.04931640499999997,0.544921875,0.28808594,0.5000215168553509,0.5000168537719218,0.4999586983540479,-7.35,27.3,16.35,0.2265625,0.529296875,0.9138183599999999,0.5000015988088613,0.500015388218949,0.49991073504814026,91.05,0.15,70.65,0.008789064999999993,0.545410155,0.6013183599999999,0.5000777404555423,0.5000383706272727,0.5000274456515534,57.3,20.25,-1.35
0.05737304499999999,0.5456542950000001,0.27709961,0.5000164540915232,0.5000556906639043,0.4999636278619872,-6.9,27.45,16.8,0.21533202999999998,0.5300292950000001,0.919921875,0.500022715896547,0.4999994004794019,0.49997561871028073,89.1,-0.75,70.8,0.007568359999999984,0.5417480450000001,0.604492185,0.500084268772343,0.5000437664871883,0.4999646937345614,59.85,21.0,-0.6
0.04272460999999998,0.5383300799999999,0.266601565,0.5000377044350973,0.500028711364327,0.4999944042998852,-7.5,28.95,16.2,0.220703125,0.5236816400000001,0.908691405,0.5000116577522058,0.5000042634030304,0.49997488593379424,89.1,-0.75,70.8,0.0034179700000000254,0.5341796900000001,0.6091308599999999,0.5000698797543908,0.5000128567934019,0.49996049691584205,58.95,21.15,-0.15
0.03637695500000001,0.5344238299999999,0.25756836,0.5000005329362871,0.500040102604756,0.49997162173176074,-7.2,27.15,16.2,0.21362304499999998,0.5261230450000001,0.915527345,0.5000080604540845,0.49998947470467936,0.49996962324250077,90.15,0.3,68.4,0.00854491999999999,0.53466797,0.604003905,0.5000885987596843,0.5000301769172999,0.4999576324814737,58.2,19.35,-0.45
0.025878904999999976,0.5305175799999999,0.255126955,0.5000103920394322,0.5000347067448405,0.4999529693980447,-7.95,27.15,16.5,0.21533202999999998,0.5202636700000001,0.923828125,0.49999473739597294,0.5000273123956651,0.49993724808300793,91.2,0.3,69.0,-0.0026855449999999906,0.54248047,0.6008300799999999,0.5000815375065966,0.5000351730095501,0.5000065283168006,59.1,21.75,-0.3
0.01953125,0.521484375,0.268310545,0.5000273789799761,0.5000345734889522,0.4999771508475646,-7.95,27.15,16.5,0.21411133000000002,0.5244140650000001,0.931152345,0.4999962695332568,0.500018052813118,0.49996662555224397,91.95,0.75,70.8,-0.0012207050000000094,0.53857422,0.60498047,0.5000752756143062,0.5000080604540845,0.4999728208602233,58.95,19.35,-0.15
0.02807616999999999,0.5185546900000001,0.282958985,0.5000337075438438,0.49996869062581495,0.5000044632432297,-7.35,27.3,16.35,0.220458985,0.52392578,0.9396972650000001,0.49999094025765234,0.5000017986490606,0.4999590980344466,90.9,0.3,69.45,-0.0009765600000000063,0.5339355450000001,0.6140136700000001,0.5000632181817017,0.5000087932305709,0.4999792159211356,58.8,22.2,0.0
0.0390625,0.533691405,0.29248047,0.5000099256874561,0.49998401226045297,0.49997994869762197,-9.0,27.45,18.3,0.232666015,0.5236816400000001,0.939941405,0.5000009326166858,0.4999986677029155,0.4999794823456459,91.95,0.75,69.45,0.005859375,0.5437011700000001,0.6169433599999999,0.5001039203943223,0.5000409019655534,0.4999755520387033,58.8,22.2,0.0
0.05175781499999999,0.5354003900000001,0.31225586,0.50002145027104,0.4999493720999234,0.5000295773094354,-8.25,28.2,16.5,0.236083985,0.5212402349999999,0.92675781,0.4999794823456459,0.4999904739929426,0.49997248776413555,90.3,0.15,70.65,0.006591794999999991,0.5458984400000001,0.6066894549999999,0.5000768078388566,0.5000494954431914,0.49995050455680856,59.4,21.45,-0.6
0.07104491999999998,0.5393066400000001,0.314941405,0.5000182526533173,0.4999215267679712,0.5000269127152663,-8.25,28.2,16.5,0.23461914,0.5224609400000001,0.91015625,0.49997475267790586,0.5000032642020336,0.49998967454487875,90.3,0.15,70.65,0.011230470000000025,0.55126953,0.60107422,0.5000774739437656,0.5000401691890669,0.49994943877150083,59.4,21.45,-0.6
0.06958008000000002,0.5295410150000001,0.31274414,0.4999855443977368,0.4999815475064833,0.5000043966589187,-7.95,26.1,15.75,0.22949218999999998,0.51513672,0.9299316400000001,0.4999389134761802,0.5000339073840431,0.5000208506631754,90.3,0.15,68.55,0.02221679499999999,0.5517578150000001,0.5969238299999999,0.5000780734643636,0.500070945626965,0.4999262565229777,59.25,20.85,-0.75
0.05322265499999997,0.5329589849999999,0.30004883,0.5000136562414658,0.499949172259724,0.500053492334445,-8.55,27.9,15.45,0.23144531499999998,0.513183595,0.9323730450000001,0.49999473739597294,0.5000327082555805,0.4999805482182201,90.3,0.15,70.35,0.017333984999999986,0.5517578150000001,0.59863281,0.5001139793376667,0.5001502848041021,0.49993065318189633,59.4,19.95,-1.35
0.05029297000000003,0.541503905,0.287353515,0.5000295107251244,0.49998041504959817,0.5000019318176826,-8.25,27.45,16.5,0.23754883000000002,0.50317383,0.92236328,0.49999726873425354,0.5000356393615264,0.4999965359577671,90.9,-0.3,69.45,0.010009765000000016,0.552246095,0.5905761700000001,0.5000587549384721,0.5001473537854227,0.4999928721626013,59.85,21.0,0.3
0.03295898499999998,0.5544433599999999,0.28100586,0.4999880758232839,0.499962561989413,0.49997688442305427,-7.05,27.75,15.6,0.22509765499999998,0.509277345,0.904785155,0.4999636944462982,0.5000209839190638,0.49999307200280063,90.3,-0.15,69.15,0.004638669999999991,0.548339845,0.5842285150000001,0.5001271026428454,0.5000859341655152,0.4999748192622168,59.7,19.8,-0.45
0.04809570500000001,0.546875,0.275634765,0.499997335405831,0.4999649601590717,0.5000343736487528,-7.05,27.75,15.6,0.21606445500000002,0.50439453,0.9040527349999999,0.49994610798515626,0.5000292443006141,0.49996216230901436,89.4,-0.3,69.75,0.011230470000000025,0.549316405,0.5798339849999999,0.5001073843492887,0.5000845351968533,0.4999373813388963,59.7,19.8,-0.45
0.04125976500000002,0.5388183599999999,0.287841795,0.50002617993878,0.49996662555224397,0.5000114579120064,-7.05,27.75,15.6,0.21411133000000002,0.48876952999999995,0.916015625,0.5000511608363637,0.5000255804181818,0.4999422442625247,90.0,0.45,68.1,0.011962890000000016,0.5495605450000001,0.5842285150000001,0.5000439663273876,0.500033441032067,0.4999504379724976,58.95,19.8,-0.75
0.04321289000000002,0.5471191400000001,0.28564453,0.4999958031812807,0.5000274456515534,0.4999805482182201,-7.5,26.4,17.55,0.20629883000000002,0.5021972650000001,0.9372558599999999,0.49999473739597294,0.500031442542807,0.4999922059704259,90.0,0.45,68.1,0.007080080000000009,0.5478515650000001,0.59033203,0.5000183193248948,0.5000394364125805,0.4999934716831994,58.95,19.8,-0.75
0.03393554499999999,0.5466308599999999,0.28027344,0.5000083935501722,0.5000035306265439,0.5000004663519761,-7.95,27.45,15.45,0.2265625,0.48583984500000005,0.932128905,0.5000043299873413,0.5000165872601451,0.49993818069969376,90.3,0.45,69.6,0.010253904999999975,0.54736328,0.58691406,0.5000646171503637,0.5000634846934785,0.49996555976693624,58.2,19.8,-1.8
0.021728515000000014,0.5295410150000001,0.280029295,0.5000347067448405,0.49997108879547364,0.49997908266524715,-8.1,27.75,16.35,0.21728515499999998,0.490478515,0.92578125,0.500015987739547,0.5000325749996921,0.4999569662892982,90.3,-0.45,69.15,0.0017089849999999843,0.5412597650000001,0.59472656,0.500034040552665,0.5000680811925965,0.500026113354469,60.15,20.7,-2.7
0.030761720000000024,0.5285644549999999,0.28857422,0.4999892082801691,0.49996122969232853,0.49995530089612594,-8.1,27.75,16.35,0.21948241999999998,0.48852539,0.9172363299999999,0.500038104115496,0.5000205842386651,0.4999007426891068,91.2,1.5,71.25,0.0068359399999999935,0.5400390650000001,0.596679685,0.5000442994234754,0.5000235153446109,0.4999661592875343,59.25,20.7,-2.7
0.03784179499999999,0.5231933599999999,0.28808594,0.500044832272496,0.49995117074898404,0.4999788162407368,-7.35,27.3,16.05,0.22265625,0.485595705,0.923828125,0.500026113354469,0.5000173867082089,0.4999504379724976,91.2,1.5,71.25,0.010253904999999975,0.5354003900000001,0.60498047,0.5000460979852696,0.5000273789799761,0.4999962029489458,59.1,20.1,-1.2
0.04345702999999997,0.5202636700000001,0.30004883,0.5000388368919825,0.49997182157196013,0.4999837457486762,-9.0,28.65,16.5,0.22387695500000002,0.49926758,0.9191894549999999,0.5000578223217863,0.5000338407124657,0.49991799614142735,91.05,-0.15,68.55,0.0048828149999999935,0.5400390650000001,0.5993652349999999,0.5000500949637895,0.5000578889933637,0.4999531025666666,59.1,20.25,-2.4
0.04760741999999999,0.513671875,0.305664065,0.5000496286118133,0.5000132564738006,0.4999273223955519,-7.05,27.0,16.65,0.21386718999999998,0.501464845,0.9260253900000001,0.5000285781084386,0.5000217166955503,0.499928521436748,89.4,-0.3,69.0,-0.0048828100000000065,0.53564453,0.59326172,0.5000530926540463,0.5000241148652089,0.4999790160809362,59.7,20.85,-1.5
0.05957031499999999,0.5163574200000001,0.298095705,0.5000752090299952,0.500002598009858,0.4999588981942472,-6.9,26.4,16.5,0.21557616999999998,0.506591795,0.92626953,0.5000197848778677,0.5000249808975838,0.499939846092866,89.4,-0.3,69.0,0.004638669999999991,0.54736328,0.60205078,0.500038037531185,0.4999828798035678,0.4999902741527433,58.95,19.05,-2.55
0.05078125,0.5256347650000001,0.29614258,0.5000952603323733,0.5000141225061755,0.4999287878612583,-6.9,26.4,16.5,0.22583008000000002,0.5129394549999999,0.9455566400000001,0.5000123238571148,0.5000375045948979,0.4999201944708867,90.9,0.3,69.75,-0.0017089849999999843,0.5341796900000001,0.61767578,0.5000413016459521,0.5000242481210974,0.5000219831200605,58.95,19.05,-2.55
0.04980468999999999,0.52001953,0.287353515,0.5000550911433063,0.500052826229536,0.4999265896190654,-7.5,26.7,15.75,0.21923827999999998,0.51220703,0.9338378900000001,0.5000047963393174,0.5000033973706555,0.49994384307138595,91.35,-1.2,69.9,0.005615234999999984,0.5446777349999999,0.606933595,0.5000192519415806,0.5000416347420399,0.5000437664871883,60.0,20.1,-1.8
0.04248047000000003,0.5224609400000001,0.28540039,0.500095660012772,0.49999960031960133,0.49996102985212915,-7.35,27.3,17.4,0.217041015,0.506347655,0.93457031,0.5000109249757193,0.4999907404174529,0.49997721743187556,90.75,0.15,69.15,-0.004638669999999991,0.541503905,0.607421875,0.5000405022851547,0.5000528928138469,0.49999173970571614,60.0,20.1,-1.8
0.048828125,0.5178222650000001,0.279296875,0.5000897312165694,0.5000080604540845,0.49997688442305427,-7.95,26.7,15.45,0.22387695500000002,0.50097656,0.931152345,0.5000103254551213,0.5000101921992328,0.49996049691584205,90.75,0.15,69.15,0.0012207050000000094,0.5380859400000001,0.60986328,0.5000281117564624,0.5000015988088613,0.5000001998401994,58.95,20.55,-1.8
0.04223633000000001,0.5158691400000001,0.28930664,0.5000509609088979,0.5000161875797464,0.4999439762400079,-7.95,26.7,15.45,0.22705077999999998,0.506347655,0.9392089849999999,0.5000001332558884,0.4999982680225168,0.4999437098154976,90.0,0.15,69.6,0.00390625,0.53955078,0.6081542950000001,0.5000329080957798,0.5000519601971611,0.5000191852700031,59.25,21.6,-0.75
0.04614258000000001,0.51171875,0.294921875,0.5000766745829681,0.5000199180464896,0.499952569717646,-8.25,26.1,16.5,0.22338866999999998,0.49584961,0.93408203,0.5000264463632902,0.4999806148897975,0.4999479732185279,91.35,-0.9,70.35,0.00854491999999999,0.53857422,0.604492185,0.5000325084153812,0.5000290443731483,0.5000078606138851,60.0,19.05,-2.25
0.05883789000000002,0.5124511700000001,0.302001955,0.5000768078388566,0.5000022649137703,0.5000115910806283,-7.95,27.15,15.75,0.23071289,0.494873045,0.920410155,0.5000393032439586,0.49998414551634135,0.4999729540288453,91.35,-0.9,69.15,0.006591794999999991,0.5400390650000001,0.5974121099999999,0.5000249142260064,0.5000219165357496,0.49998014853782136,58.8,19.5,-2.4
0.06713866999999998,0.5114746099999999,0.29736328,0.5000451653685837,0.5000411684773302,0.4999586983540479,-7.2,26.4,14.4,0.224609375,0.5075683599999999,0.92138672,0.5000170536121212,0.499988608759571,0.4999459747292679,91.05,-1.2,69.9,0.013671875,0.5458984400000001,0.5969238299999999,0.4999882089919058,0.500013856081665,0.5000021983294594,58.8,19.5,-2.4
0.06640625,0.515625,0.290039065,0.5000671485759107,0.5000141225061755,0.4999798154417336,-7.35,27.0,18.15,0.22387695500000002,0.5021972650000001,0.916015625,0.500006728157,0.5000127236247799,0.49996442722278467,91.2,-1.05,70.5,0.016601564999999995,0.5517578150000001,0.592773435,0.5000205176543542,0.5000197848778677,0.4999982680225168,59.4,20.7,-1.65
0.06176758000000001,0.509033205,0.287353515,0.5000845351968533,0.5000018652333716,0.5000109249757193,-7.35,27.0,18.15,0.22167968999999998,0.50854492,0.921875,0.5000215834396619,0.49999160644982776,0.49994863932343697,92.4,-1.05,69.0,0.014160154999999975,0.5595703150000001,0.592773435,0.4999875428869968,0.5000064617324896,0.49999786834211807,59.4,20.7,-1.65
0.05493164000000002,0.50390625,0.278564455,0.5000564900247018,0.5000331079359792,0.499983945676142,-7.65,25.8,15.0,0.22265625,0.5197753900000001,0.92138672,0.5000254471622935,0.49999207271453744,0.49994004593306535,92.4,-1.05,69.0,0.011230470000000025,0.552246095,0.595703125,0.5000257802583812,0.49999500382048323,0.5000242481210974,58.8,19.2,-1.65
0.05883789000000002,0.5095214849999999,0.275878905,0.5000448989440734,0.500034840000729,0.4999814808349059,-7.95,26.7,15.45,0.21948241999999998,0.52001953,0.9265136700000001,0.49997055585918654,0.49998760947130777,0.5000145888581515,92.4,-1.05,69.0,0.015625,0.56201172,0.58544922,0.5000655497670494,0.500006661572689,0.4999828131319904,59.85,20.25,-2.1
0.04980468999999999,0.50463867,0.278564455,0.5000500949637895,0.49997668449558846,0.4999792159211356,-7.65,27.3,15.6,0.21752929499999998,0.5144042950000001,0.923339845,0.5000101256149219,0.49997488593379424,0.4999771508475646,91.35,-0.15,68.85,0.006347654999999975,0.568847655,0.58984375,0.4999701561787878,0.49999393794790903,0.4999880091517065,58.8,19.5,-1.05
0.05639648499999998,0.5124511700000001,0.275634765,0.5000320421506715,0.5000042634030304,0.4999713553072504,-7.65,27.3,15.6,0.21826172000000002,0.51904297,0.93017578,0.4999956700126587,0.499971222051362,0.4999897412164561,90.15,-0.3,69.0,0.0009765649999999937,0.567871095,0.5852050799999999,0.4999762182308788,0.5000169869405438,0.500002598009858,59.7,19.05,-0.75
0.05883789000000002,0.5114746099999999,0.27807617,0.5000319754790941,0.4999936049390878,0.49996142953252787,-8.4,27.0,16.65,0.22216797000000002,0.5275878900000001,0.93359375,0.5000030643618342,0.4999649601590717,0.499964627062984,91.65,-2.55,69.0,-0.0007324199999999905,0.5817871099999999,0.5861816400000001,0.4999435765596092,0.49999693563816583,0.49999247239493616,58.05,19.2,-0.3
0.05102539000000002,0.51220703,0.27685547,0.5000285115241276,0.49997841656033815,0.49999553675677033,-8.1,24.75,15.6,0.22167968999999998,0.5202636700000001,0.9162597650000001,0.4999910069292297,0.4999676248405072,0.4999828131319904,92.1,0.45,70.35,0.0031738300000000094,0.5642089849999999,0.58984375,0.49993278483977827,0.4999906071615645,0.4999647603188724,58.8,19.5,-1.05
0.06030273499999998,0.5095214849999999,0.282958985,0.5000002664245103,0.499980015281933,0.4999952036606826,-8.25,27.45,15.75,0.22363281499999998,0.521972655,0.9216308599999999,0.4999831462280781,0.4999855443977368,0.5000113912404289,90.75,-1.95,69.6,0.0024414049999999746,0.5625,0.5837402349999999,0.4999279219161499,0.4999908736733413,0.49995496780003823,58.8,19.5,-1.05
0.06469726500000002,0.5178222650000001,0.279052735,0.5000023315853478,0.49999200613022643,0.5000156546434593,-7.35,26.55,16.65,0.22290039,0.502441405,0.9348144549999999,0.4999842121006523,0.4999828798035678,0.4999847450369394,90.3,-1.65,70.65,0.008789064999999993,0.5517578150000001,0.57763672,0.49991246711288995,0.5000229157367464,0.49998934153605745,58.8,20.7,-1.65
0.04736327999999997,0.5261230450000001,0.283447265,0.500011324656118,0.4999636944462982,0.5000148552826619,-7.35,26.55,16.65,0.22509765499999998,0.497314455,0.9382324200000001,0.4999990007990032,0.4999838790045646,0.49999680246954387,90.3,-1.65,70.65,0.008789064999999993,0.5520019549999999,0.5710449200000001,0.49993531626532534,0.5000100589433445,0.49999307200280063,58.8,20.7,-1.65
0.04394531499999999,0.5261230450000001,0.278808595,0.49999660262934453,0.49997215466804784,0.4999830130594562,-6.45,26.1,15.75,0.22363281499999998,0.50732422,0.92626953,0.4999875428869968,0.49998094789861874,0.500005262604027,90.3,-2.4,70.35,0.004394529999999975,0.5354003900000001,0.583984375,0.4999030742744545,0.5000038637226316,0.4999888085997704,60.0,20.55,-0.75
0.03515625,0.5178222650000001,0.279052735,0.4999776171122743,0.4999636944462982,0.4999425773586124,-8.55,25.35,17.25,0.22167968999999998,0.51098633,0.9074707049999999,0.4999780834642504,0.499986676854622,0.50000199848926,91.2,-1.8,69.75,0.006103515000000016,0.5417480450000001,0.5895996099999999,0.49989421437230613,0.4999780168799394,0.500005262604027,58.8,20.25,-1.65
0.04248047000000003,0.5163574200000001,0.278564455,0.5000103920394322,0.4999172633649409,0.4999996669039123,-6.45,26.4,16.2,0.220947265,0.508789065,0.9094238299999999,0.49998587749382456,0.49998427868496326,0.4999901408968549,91.65,-1.5,70.5,0.012695314999999993,0.54248047,0.588378905,0.4999308530220957,0.4999700230101659,0.4999824801231691,58.8,20.25,-1.65
0.04663085999999998,0.51171875,0.28125,0.5000037970510541,0.49996382770218656,0.49995590041672405,-6.45,26.4,16.2,0.22216797000000002,0.5139160150000001,0.92285156,0.49998294638787877,0.4999964027891452,0.5000277787476413,91.65,-1.5,70.5,0.01049804499999999,0.5380859400000001,0.59716797,0.4999137994099745,0.4999658261914466,0.5000033973706555,59.1,18.45,-1.35
0.041015625,0.510498045,0.28540039,0.5000012657127736,0.499980015281933,0.49995290272646725,-7.05,25.05,15.3,0.21240234500000002,0.5100097650000001,0.919921875,0.49999713556563163,0.5000009326166858,0.5000269127152663,91.2,-2.55,70.8,0.016113279999999976,0.53564453,0.600585935,0.4999182626532041,0.49997215466804784,0.4999807480584194,58.35,18.75,-2.1
0.03881835999999998,0.51074219,0.290527345,0.5000167871003445,0.49994304362332215,0.49999600302148,-7.95,27.9,15.45,0.21899414,0.5021972650000001,0.91796875,0.4999851447173381,0.4999676248405072,0.500034840000729,89.85,-0.3,71.25,0.001953125,0.5314941400000001,0.5954589849999999,0.49994137823014984,0.49996595944733496,0.4999782167201388,59.25,20.85,-1.2
0.04589843999999999,0.506591795,0.287841795,0.49999713556563163,0.4999928721626013,0.49994863932343697,-9.15,26.55,16.05,0.21386718999999998,0.48901367,0.91796875,0.4999932051714226,0.49998654368600004,0.5000317756388947,89.85,-0.3,71.25,0.01098633000000001,0.5368652349999999,0.58935547,0.4999314525426938,0.4999652266708485,0.4999966692136555,59.1,20.25,-1.05
0.04809570500000001,0.5095214849999999,0.29663086,0.4999914731939394,0.49995456811963945,0.4999802817937098,-7.5,27.45,15.75,0.22143554499999998,0.501220705,0.9226074200000001,0.49999160644982776,0.49999527033226004,0.500024647801496,91.2,-1.8,72.3,0.0034179700000000254,0.5339355450000001,0.58935547,0.4999293874691228,0.4999499717077879,0.5000027312657465,59.1,20.25,-1.05
0.04418945500000001,0.50708008,0.28833008,0.5000109915600303,0.4999661592875343,0.5000031309461451,-7.5,27.45,15.75,0.20996093999999998,0.497070315,0.9270019549999999,0.4999731538690446,0.5000109249757193,0.5000045298275406,90.75,-1.65,70.95,0.007080080000000009,0.536621095,0.587890625,0.49993844712420404,0.49993451681726153,0.5000141225061755,58.95,20.1,-1.2
0.03930664000000002,0.5153808599999999,0.28808594,0.49999753524603036,0.5000087932305709,0.49999527033226004,-7.5,27.45,15.75,0.22192383000000002,0.49902344,0.9296875,0.4999937381077097,0.5000141225061755,0.5000234486730334,91.65,-0.75,69.75,0.003662109999999984,0.5363769549999999,0.5876464849999999,0.4999466409214434,0.4999405122850415,0.4999822802829697,58.35,20.25,-1.35
0.03588866999999999,0.529296875,0.28930664,0.4999942710439968,0.49999820135093936,0.49999173970571614,-7.05,25.8,16.05,0.21801758000000002,0.49975586,0.92919922,0.49996962324250077,0.5000017319774832,0.4999851447173381,91.65,-0.75,69.75,0.0009765649999999937,0.54248047,0.5891113299999999,0.49992712255535254,0.4999455750488692,0.4999814808349059,60.0,20.1,-0.45
0.03637695500000001,0.5244140650000001,0.291259765,0.4999997335754897,0.4999889417683923,0.5000271791397767,-7.2,24.9,14.7,0.22534179499999998,0.501953125,0.928222655,0.5000011990411961,0.5000187855896044,0.5000054624442265,90.75,-0.15,70.35,0.008056640000000016,0.552246095,0.599609375,0.4999257901710015,0.4999195283659777,0.49996456047867305,58.95,21.15,-1.5
0.03979491999999999,0.5166015650000001,0.287841795,0.499975885134791,0.5000204509827767,0.49999886754311484,-7.2,26.4,15.15,0.2265625,0.498291015,0.9245605450000001,0.4999964027891452,0.5000156546434593,0.5000075276050638,91.8,-1.65,70.95,0.005126955000000009,0.5480957049999999,0.5998535150000001,0.49993258499957893,0.49992638977886605,0.4999782167201388,58.35,20.25,0.0
0.04003906499999999,0.5153808599999999,0.29589844,0.49997108879547364,0.5000390367321818,0.5000068614128884,-7.2,26.4,15.15,0.21997070500000002,0.49633789,0.9216308599999999,0.5000099923590335,0.5000163874199458,0.5000119908482935,91.05,-1.65,70.35,0.004638669999999991,0.55029297,0.596191405,0.49993791427518347,0.4999426439429234,0.499975219029882,58.8,19.95,-1.65
0.03442383000000001,0.5129394549999999,0.291748045,0.4999852113016491,0.5000053292756045,0.4999897412164561,-7.65,24.75,16.35,0.22558593999999998,0.48852539,0.9304199200000001,0.500020051302378,0.49999260565082454,0.5000105252953206,90.9,-0.75,70.05,0.005126955000000009,0.544921875,0.5979003900000001,0.49993098619071763,0.4999134663138867,0.5000143889306857,58.8,19.95,-1.65
0.03222656499999999,0.51171875,0.28930664,0.4999689571375917,0.5000479632186411,0.4999767511671659,-7.65,25.8,15.0,0.21899414,0.494384765,0.9274902349999999,0.5000141225061755,0.500009326166858,0.5000157878993476,91.8,-1.95,70.35,0.007324220000000025,0.5456542950000001,0.608398435,0.4999299204054099,0.4999113345687384,0.5000146554424625,60.0,21.6,-1.2
0.03540039000000002,0.5075683599999999,0.28515625,0.49998101457019617,0.5000164540915232,0.49997022285036524,-6.45,25.65,16.2,0.22167968999999998,0.5017089849999999,0.93359375,0.5000131233051787,0.5000161209954355,0.5000192519415806,90.3,-1.65,68.55,0.011962890000000016,0.5471191400000001,0.603515625,0.4999036072107416,0.4999366485624099,0.4999744862533956,60.0,21.6,-1.2
0.03637695500000001,0.510498045,0.294189455,0.5000316423830063,0.5000016653931723,0.4999781500485614,-7.5,26.7,17.25,0.22607422000000002,0.5,0.931640625,0.5000167205160335,0.5000035306265439,0.4999830130594562,90.3,-1.65,68.55,0.0068359399999999935,0.53564453,0.6086425799999999,0.499888418831992,0.4999606967560414,0.5000143223463748,59.4,20.7,-0.6
0.04443359500000003,0.510498045,0.28979492,0.4999946707243955,0.5000226493122361,0.4999531025666666,-7.5,26.7,17.25,0.22192383000000002,0.49682617,0.93066406,0.5000139892502871,0.5000129900492903,0.5000195183660909,90.45,-1.05,69.0,0.005371095000000025,0.540527345,0.60986328,0.499877027591563,0.4999470406018421,0.5000029976902568,59.1,19.2,-0.3
0.04931640499999997,0.51098633,0.290283205,0.5000022649137703,0.5000211171749521,0.4999730207004227,-8.25,26.4,17.25,0.22802734500000002,0.501953125,0.9328613299999999,0.49999593643716905,0.5000181860690064,0.5000207174945535,90.75,0.45,70.35,0.013916015000000016,0.5354003900000001,0.6101074200000001,0.49987969218573197,0.4999161975796332,0.5000332411918677,59.85,20.7,0.0
0.04956054499999999,0.5078125,0.291748045,0.5000270459711548,0.5000170536121212,0.4999852113016491,-7.05,26.55,16.35,0.22607422000000002,0.510253905,0.924804685,0.5000089930707703,0.49998601074971294,0.5000041301471418,91.95,-2.55,70.05,0.01440429499999999,0.5402832049999999,0.61816406,0.4998787595690462,0.49996216230901436,0.5000274456515534,60.15,19.2,0.0
0.04589843999999999,0.52001953,0.295654295,0.4999922059704259,0.5000193185258915,0.499979882113311,-8.25,26.4,16.8,0.22900390499999998,0.49633789,0.9240722650000001,0.5000048629236283,0.5000155880591484,0.4999996669039123,92.1,-1.65,71.4,0.007324220000000025,0.53515625,0.6052246099999999,0.4998882855761036,0.49994204442232537,0.49999187287433805,60.15,20.7,0.3
0.05249023499999998,0.505126955,0.29589844,0.5000022649137703,0.5000269792995773,0.4999642940541627,-8.25,26.4,16.8,0.22778320500000002,0.50708008,0.9289550799999999,0.4999934716831994,0.5000097925188342,0.500011258071807,90.3,-0.9,70.35,0.012695314999999993,0.5437011700000001,0.6164550799999999,0.4998938812762184,0.4999523032058692,0.49999606969305743,59.4,19.95,0.0
0.0546875,0.5153808599999999,0.294677735,0.5000106584639425,0.5000143889306857,0.5000117243365167,-8.25,26.1,16.5,0.224365235,0.5168457049999999,0.9392089849999999,0.5000102587835439,0.5000004663519761,0.5000145221865742,90.75,-1.65,70.35,0.017578125,0.541015625,0.612304685,0.4999046064117384,0.4999401125173763,0.5000009326166858,59.4,19.95,0.0
0.052734375,0.5158691400000001,0.291503905,0.500033507616378,0.5000219165357496,0.49999606969305743,-7.65,26.25,15.6,0.22900390499999998,0.5146484400000001,0.93017578,0.49997854972896005,0.5000127236247799,0.5000029976902568,90.75,-1.65,70.35,0.01171875,0.5461425799999999,0.612304685,0.4998854877260462,0.49996196246881497,0.5000063950609122,58.8,19.95,-0.3
0.05029297000000003,0.5095214849999999,0.286865235,0.5000061952207129,0.5000297105653237,0.49995443495101755,-6.9,25.35,16.2,0.22412109500000002,0.5217285150000001,0.9296875,0.50000199848926,0.4999812144103955,0.5000369050742999,90.75,-1.65,70.35,0.010742189999999993,0.5446777349999999,0.624023435,0.49988348932405263,0.4999837457486762,0.4999503047166092,60.0,20.55,0.45
0.04907226500000002,0.5114746099999999,0.290039065,0.5000040635628309,0.5000057955403142,0.4999836791643652,-6.45,27.15,16.2,0.22631836,0.506591795,0.9313964849999999,0.4999910069292297,0.49998414551634135,0.5000219165357496,90.9,-1.05,70.5,0.01098633000000001,0.5498046900000001,0.6171875,0.49989115009773843,0.49998734304679743,0.4999722879239362,60.0,20.55,0.45
0.04345702999999997,0.50073242,0.290527345,0.5000115910806283,0.5000235153446109,0.49999813476662835,-6.45,27.15,16.2,0.22558593999999998,0.505859375,0.93457031,0.49998994105665556,0.4999780834642504,0.5000362388821243,91.8,-2.4,69.9,0.005859375,0.5397949200000001,0.6179199200000001,0.49991979479048804,0.4999642273825852,0.5000011990411961,59.25,20.55,1.2
0.04614258000000001,0.502441405,0.28833008,0.4999795490172233,0.5000343070644419,0.49997841656033815,-7.2,26.1,16.5,0.21972656499999998,0.51098633,0.9338378900000001,0.49998994105665556,0.4999864770144226,0.5000389035635598,89.85,-0.75,69.75,0.008789064999999993,0.5349121099999999,0.6105957049999999,0.49989394794779585,0.4999434433037208,0.4999774839436523,59.4,20.25,-0.6
0.04077148499999998,0.501220705,0.286865235,0.4999990007990032,0.5000175865484083,0.499995336916571,-7.2,25.35,16.5,0.22119140499999998,0.506347655,0.935058595,0.499986610270311,0.499975951719102,0.500046764177445,91.8,-1.2,69.6,0.0048828149999999935,0.528808595,0.624023435,0.49989394794779585,0.49995050455680856,0.49999820135093936,58.35,21.0,-0.3
0.05224609500000003,0.498046875,0.29223633,0.49998934153605745,0.49999307200280063,0.4999989341274258,-7.35,27.75,17.1,0.23315429499999998,0.50048828,0.9357910150000001,0.49998501146144975,0.5000021983294594,0.5000456317205598,90.3,-0.9,71.4,0.01635741999999999,0.5310058599999999,0.627441405,0.49988488820544813,0.4999794157613349,0.49998687669482134,59.7,21.9,1.2
0.04736327999999997,0.497802735,0.290039065,0.4999646937345614,0.5000215168553509,0.499993405011622,-7.35,27.75,17.1,0.23339843999999998,0.5036621099999999,0.9304199200000001,0.4999982680225168,0.5000021983294594,0.5000373713390096,90.9,0.75,70.8,0.009765625,0.525390625,0.6184082049999999,0.4998998767439984,0.49997488593379424,0.4999847450369394,59.7,21.9,1.2
0.04125976500000002,0.493408205,0.28540039,0.4999880091517065,0.4999830130594562,0.5000351064252392,-8.55,24.9,15.75,0.228759765,0.50317383,0.9230957049999999,0.4999888085997704,0.5000003330960877,0.5000515605167625,90.9,0.75,70.8,0.005859375,0.525878905,0.6154785150000001,0.4998996102322216,0.49999946706371295,0.4999815475064833,57.9,21.15,-0.15
0.048828125,0.50854492,0.291259765,0.49999993341568905,0.49998168067510523,0.5000245145456076,-7.5,26.1,15.15,0.22949218999999998,0.50463867,0.924316405,0.5000002664245103,0.49999693563816583,0.5000566898649011,90.0,-0.9,69.9,0.013427734999999984,0.5373535150000001,0.61669922,0.49990100920088354,0.49999393794790903,0.4999851447173381,57.9,21.15,-0.15
0.05004883000000001,0.50439453,0.294189455,0.49995503447161566,0.500000599520598,0.4999860773340239,-8.25,25.65,15.75,0.23168945500000002,0.51098633,0.927734375,0.5000055957001148,0.5000041301471418,0.500039569668469,91.35,-1.2,70.35,0.01831054499999999,0.5302734400000001,0.616210935,0.4999517702695821,0.4999852779732265,0.5000090597423477,59.1,19.95,1.35
0.04638672000000003,0.49536133,0.29296875,0.49998234686728066,0.4999963361175678,0.5000472971137321,-7.65,26.25,17.1,0.23364258000000002,0.5078125,0.932128905,0.49998481162125036,0.5000019318176826,0.5000339073840431,90.75,-1.2,68.55,0.00854491999999999,0.5310058599999999,0.6140136700000001,0.49993651530652145,0.49999267232240197,0.4999843453565407,59.85,20.25,1.05
0.05200195500000001,0.49853515499999995,0.291015625,0.4999826799633685,0.49998188051530457,0.5000080604540845,-7.65,26.25,17.1,0.22143554499999998,0.50830078,0.9284667950000001,0.4999995336480239,0.5,0.5000750757741068,90.75,-1.2,68.55,0.005371095000000025,0.533691405,0.62060547,0.4999419778380144,0.4999977350862297,0.4999927389067129,59.85,19.95,2.1
0.04663085999999998,0.513183595,0.286132815,0.4999459747292679,0.5000045964991181,0.5000163874199458,-8.25,27.15,16.8,0.23339843999999998,0.509277345,0.9221191400000001,0.5000030643618342,0.5000022649137703,0.500055490823705,91.05,-0.9,70.35,0.009765625,0.53466797,0.6276855450000001,0.49997768378385166,0.49999606969305743,0.4999739533171085,60.6,21.0,0.3
0.05126952999999997,0.514160155,0.28979492,0.49997775036816267,0.49997894949662525,0.5000212503435741,-7.35,26.55,15.6,0.23413086,0.502685545,0.924316405,0.49999260565082454,0.4999860773340239,0.5000818040183733,91.2,-0.75,70.5,-0.0012207050000000094,0.5305175799999999,0.614746095,0.4999443093360957,0.5000199180464896,0.49999673579796644,59.25,20.1,0.45
0.05590820500000001,0.513183595,0.29248047,0.4999555674079027,0.49997655132696656,0.500036105626236,-7.05,25.5,16.65,0.22241211,0.50463867,0.919921875,0.49998694336639876,0.5000167871003445,0.5000726110201372,91.2,-0.75,70.5,0.004638669999999991,0.528808595,0.61035156,0.499952569717646,0.49998707653502067,0.49996535983947044,60.15,20.7,1.35
0.05786133000000001,0.51098633,0.28564453,0.4999279219161499,0.499993405011622,0.5000139226659761,-7.05,25.5,16.65,0.21923827999999998,0.5,0.92529297,0.5000051294354051,0.5000098591031451,0.5000618193003062,91.8,-0.9,70.95,0.003662109999999984,0.5361328150000001,0.6169433599999999,0.4999573659696969,0.49997934917702397,0.4999808813143078,60.15,20.7,1.35
0.04980468999999999,0.50854492,0.287597655,0.499950571228386,0.4999936049390878,0.5000293108849251,-6.15,25.65,16.2,0.21997070500000002,0.49658202999999995,0.93066406,0.500022715896547,0.4999890750242807,0.5000664823837353,91.05,-0.45,70.35,0.006347654999999975,0.5341796900000001,0.6232910150000001,0.4999571661294976,0.499977284103453,0.50001945178178,61.2,21.0,0.3
0.04443359500000003,0.5119628900000001,0.28955078,0.49994444259198406,0.49998234686728066,0.5000402358606444,-6.9,27.15,17.55,0.22143554499999998,0.5041503900000001,0.924804685,0.5000041968187193,0.5000054624442265,0.5000732105407353,91.35,-1.65,69.6,0.0012207050000000094,0.5310058599999999,0.6120605450000001,0.4999385803800924,0.5000007327764865,0.5000061952207129,58.95,21.15,0.75
0.04370116999999999,0.498291015,0.28417969,0.4999483063146157,0.5000125236973141,0.5000306431820095,-7.95,26.1,16.5,0.22119140499999998,0.502685545,0.9299316400000001,0.5000132564738006,0.500005262604027,0.5000610865238199,91.35,-1.65,69.6,0.0029296899999999935,0.528808595,0.614746095,0.49994957194012274,0.49999400461948645,0.5000050627638277,59.4,21.0,0.6
0.03979491999999999,0.506591795,0.295410155,0.499949172259724,0.4999682909454162,0.500048229730418,-8.25,27.45,18.6,0.23095702999999998,0.50341797,0.9284667950000001,0.5000097258472568,0.49999993341568905,0.500064883574874,90.75,-0.15,69.9,0.008056640000000016,0.540527345,0.61816406,0.4999547013755279,0.49999946706371295,0.4999784831446491,59.85,20.7,1.05
0.04199218999999999,0.506835935,0.29736328,0.49997768378385166,0.4999897412164561,0.5000418345822393,-8.25,27.45,18.6,0.22534179499999998,0.50830078,0.9318847650000001,0.4999918062900271,0.5000103254551213,0.5000779402957417,91.05,-0.15,70.35,0.007080080000000009,0.5322265650000001,0.6159667950000001,0.49993924657226796,0.5000151217071722,0.5000101921992328,58.8,21.0,2.1
0.04736327999999997,0.515625,0.28857422,0.4999359823702344,0.4999805482182201,0.5000223162161483,-8.25,27.45,18.6,0.22949218999999998,0.50854492,0.920410155,0.49999746857445293,0.5000274456515534,0.5000853346449172,90.0,-1.65,70.35,0.005371095000000025,0.5354003900000001,0.6125488299999999,0.49992372509743055,0.4999901408968549,0.49997188824353755,59.4,20.25,1.65
0.05712890499999997,0.5166015650000001,0.29638672,0.4999702894346762,0.49998727637522006,0.5000262465230909,-8.25,26.7,15.75,0.22241211,0.50439453,0.9206542950000001,0.4999877427271962,0.5000135229855773,0.5000872664625997,91.8,0.15,69.6,0.010253904999999975,0.529296875,0.6184082049999999,0.49992339200134284,0.49999094025765234,0.5000075941893748,59.4,20.25,1.65
0.04956054499999999,0.5158691400000001,0.28173828,0.4999751523583046,0.4999870099507097,0.500040036020445,-8.7,25.5,17.1,0.21777343999999998,0.50048828,0.92626953,0.4999830130594562,0.5000303100859218,0.5000759418064817,91.65,-1.5,69.45,0.015380859999999984,0.5295410150000001,0.625,0.49992965389363314,0.499993271843,0.4999916730341387,59.85,21.45,1.65
0.04199218999999999,0.5178222650000001,0.275634765,0.49993618221043373,0.5000162542513238,0.5000158544836586,-7.2,27.45,15.45,0.22338866999999998,0.502441405,0.927246095,0.49999207271453744,0.5000162542513238,0.5000781401359411,91.2,0.0,70.05,0.008300779999999975,0.5349121099999999,0.6174316400000001,0.4999459747292679,0.4999958031812807,0.5000015988088613,59.85,21.45,1.65
0.03588866999999999,0.515625,0.283203125,0.4999802817937098,0.4999897412164561,0.5000494954431914,-7.2,27.45,15.45,0.22119140499999998,0.5114746099999999,0.927246095,0.49998501146144975,0.49999600302148,0.5000953935882616,91.2,0.0,70.05,0.007324220000000025,0.5363769549999999,0.6171875,0.4999181959816267,0.500036105626236,0.5000124571130031,59.85,21.45,1.65
0.03295898499999998,0.5222167950000001,0.286376955,0.49995916461875756,0.49999140660962843,0.500034040552665,-7.65,27.0,16.35,0.22314452999999998,0.509765625,0.931640625,0.4999984678627162,0.5000152549630607,0.5000677480965088,90.75,0.45,69.6,0.01171875,0.5361328150000001,0.6164550799999999,0.4999531025666666,0.5000252473220941,0.49999840119113875,59.7,20.85,0.15
0.04565429499999999,0.5207519549999999,0.29663086,0.4999340505525518,0.5000079938697736,0.5000285781084386,-7.2,26.1,17.25,0.23315429499999998,0.50439453,0.9333496099999999,0.5000015988088613,0.5000147220267734,0.5000752090299952,92.1,0.45,68.55,0.007080080000000009,0.53125,0.609375,0.49995603367261243,0.5000495620275024,0.5000223162161483,59.7,20.85,0.15
0.04565429499999999,0.5236816400000001,0.294433595,0.49996515999927105,0.4999780168799394,0.5000748093495966,-7.35,25.8,16.65,0.22412109500000002,0.50341797,0.9235839849999999,0.5000007327764865,0.5000043966589187,0.5000939946195997,90.3,0.45,69.9,0.007568359999999984,0.5246582049999999,0.61669922,0.4999393131565789,0.5000025314255471,0.5000259135142696,59.7,22.65,0.15
0.05566406499999999,0.517089845,0.291015625,0.4999524364617576,0.4999875428869968,0.5000521600373604,-7.95,26.4,15.75,0.21997070500000002,0.491210935,0.92285156,0.5000037304667432,0.5000217166955503,0.5000837358360558,91.05,1.65,70.65,0.012207029999999975,0.53076172,0.6320800799999999,0.4999287878612583,0.4999910735135407,0.5000030643618342,58.95,21.9,0.15
0.044921875,0.521484375,0.290527345,0.4999495053558118,0.5000203177268884,0.5000296439810128,-7.95,26.4,15.75,0.22778320500000002,0.49584961,0.9367675799999999,0.5000124571130031,0.5000106584639425,0.5000812710820862,89.55,0.9,70.65,0.011474609999999984,0.53076172,0.62207031,0.49993977950855506,0.5000199180464896,0.4999998667441116,59.25,22.65,0.75
0.03955077999999997,0.5207519549999999,0.287841795,0.49995823200207173,0.4999922725547368,0.5000341738085534,-6.0,27.3,15.3,0.22705077999999998,0.494873045,0.9255371099999999,0.5000167871003445,0.5000280451721515,0.500075475541772,89.55,0.9,69.9,0.013916015000000016,0.53125,0.61279297,0.4999455750488692,0.5000238483534322,0.4999963361175678,58.35,21.45,2.1
0.03735351500000002,0.5166015650000001,0.291259765,0.4999457083047576,0.5000276454917528,0.5000035972108549,-9.0,26.1,17.25,0.22729491999999998,0.50708008,0.923828125,0.5000289112045264,0.5000227825681245,0.500070945626965,89.55,0.9,69.9,0.012207029999999975,0.528808595,0.61816406,0.499922459384657,0.5000135229855773,0.5000024647539697,58.35,21.45,2.1
0.04760741999999999,0.5241699200000001,0.286132815,0.4999367151467209,0.500002598009858,0.4999990007990032,-9.15,25.8,17.1,0.22387695500000002,0.50854492,0.92138672,0.5000053292756045,0.5000297105653237,0.5000817373467958,90.9,1.05,70.5,0.01098633000000001,0.5324707049999999,0.6169433599999999,0.49993884689186924,0.5000422342626379,0.5000078606138851,59.7,21.9,2.55
0.05444335999999998,0.564941405,0.290771485,0.5000331746075567,0.4999513705891834,0.49988115773870495,-8.1,28.05,16.65,0.21044922000000002,0.53173828,0.90576172,0.5000317090545837,0.4999992672235135,0.4999419778380144,91.2,2.25,68.7,0.009521484999999984,0.5634765650000001,0.5861816400000001,0.5000733437966236,0.49999540350088195,0.4999984678627162,58.2,21.15,-2.25
0.04760741999999999,0.5573730450000001,0.271972655,0.500029377469236,0.4999564333530111,0.49988009186613075,-8.25,28.65,16.5,0.20581054499999998,0.533203125,0.91845703,0.5000262465230909,0.5000169203562328,0.49992099383168415,91.65,1.05,69.0,0.01293945500000001,0.55859375,0.595214845,0.5000598874826238,0.5000157213150367,0.49998341273985486,58.5,22.65,-2.55
0.025146484999999986,0.5334472650000001,0.27685547,0.5000081271256619,0.4999547679598389,0.49986510332758044,-7.35,27.3,17.4,0.20581054499999998,0.5319824200000001,0.9152832049999999,0.5000337741281548,0.5000303767574993,0.49991772971691706,91.65,1.05,69.0,0.0034179700000000254,0.5480957049999999,0.59033203,0.5000870666224003,0.500034840000729,0.5000181194846954,58.35,21.45,-1.35
0.02221679499999999,0.5148925799999999,0.28540039,0.5000391034037592,0.4999271891396635,0.49989328175562037,-7.65,27.75,16.35,0.20825195500000002,0.5378417950000001,0.9140625,0.500037438010587,0.5000211837592632,0.49994517536847055,91.65,2.55,68.7,0.0017089849999999843,0.5517578150000001,0.579589845,0.5000867335263126,0.5000229824083238,0.4999986677029155,58.8,21.75,-0.3
0.03881835999999998,0.5173339849999999,0.28930664,0.5000471638578438,0.4999241914494067,0.49991939511008926,-7.65,27.75,16.35,0.20678711,0.5358886700000001,0.924804685,0.5000197848778677,0.5000502948039889,0.4999209272473732,91.2,1.8,68.7,0.00390625,0.5422363299999999,0.58251953,0.5000393032439586,0.5000337741281548,0.4999892082801691,58.8,21.75,-0.3
0.05249023499999998,0.524902345,0.290771485,0.5000166539317226,0.4999169303561196,0.49995216994998076,-9.3,29.4,15.75,0.20581054499999998,0.5368652349999999,0.9299316400000001,0.5000028644343684,0.500051427260874,0.4999122006011132,91.2,1.8,68.7,0.0007324199999999905,0.5520019549999999,0.5988769549999999,0.5000720114995392,0.49998794256739554,0.49999800151074,58.05,21.0,-1.35
0.05224609500000003,0.5319824200000001,0.306884765,0.500035439521327,0.49994137823014984,0.4999569662892982,-8.25,27.45,16.5,0.19970702999999998,0.5334472650000001,0.9245605450000001,0.5000233820887224,0.5000365053939012,0.4999132664736874,93.0,2.25,68.7,0.00048827999999997475,0.5549316400000001,0.6037597650000001,0.5000503613882998,0.4999993338078245,0.4999830130594562,58.05,21.0,-1.05
0.07275390499999998,0.533691405,0.30541992,0.5000620191405056,0.4999269892994641,0.4999590980344466,-7.5,27.15,16.5,0.20947265499999998,0.5363769549999999,0.923828125,0.4999890750242807,0.4999756852945917,0.49993118603091696,91.2,-0.75,69.0,0.0031738300000000094,0.55419922,0.6096191400000001,0.5000698131700798,0.5000303767574993,0.499950571228386,58.35,21.0,-1.05
0.06958008000000002,0.54345703,0.30932617,0.5000468307617559,0.49996835761699365,0.4999857442379362,-8.25,26.4,16.8,0.20410156499999998,0.5300292950000001,0.91748047,0.5000087932305709,0.499981947186882,0.49993191880740345,92.85,0.45,68.85,0.0,0.557128905,0.58691406,0.5000804050497114,0.5000023981696587,0.4999661592875343,58.95,21.15,-1.5
0.08349609500000002,0.5390625,0.31591797,0.5000260466828915,0.5000037970510541,0.4999856776536252,-8.25,26.4,16.8,0.200927735,0.53125,0.912109375,0.5000148552826619,0.5000006661921754,0.49991699694043057,92.85,0.45,68.85,0.0048828149999999935,0.5588378900000001,0.60107422,0.5000572894727656,0.49999886754311484,0.49996642571204464,59.25,20.55,-1.5
0.07714844,0.5419921900000001,0.317871095,0.5000299769898341,0.5000205176543542,0.5000057955403142,-7.35,28.05,17.4,0.19970702999999998,0.5285644549999999,0.89892578,0.5000283115966618,0.4999782167201388,0.4999567664490988,90.9,1.8,67.65,0.01245116999999999,0.549316405,0.6062011700000001,0.5000584885139617,0.5000289112045264,0.4999731538690446,58.95,20.85,-1.8
0.07885741999999998,0.548828125,0.31274414,0.5000022649137703,0.5000649502464514,0.5000143223463748,-8.1,28.8,16.65,0.20751952999999998,0.5295410150000001,0.9113769549999999,0.5000206508229761,0.49997628481518974,0.4999451086968931,92.4,2.55,68.4,0.0068359399999999935,0.5490722650000001,0.5974121099999999,0.5000794724330255,0.5000446324322966,0.49998927486448,58.95,20.85,-1.8
0.07641601500000002,0.5361328150000001,0.305908205,0.500013856081665,0.5000882656635964,0.4999666922238214,-7.95,27.45,16.5,0.21069336,0.5187988299999999,0.9177246099999999,0.5000163208356349,0.5000045298275406,0.49992918762892347,90.15,1.5,69.0,0.00390625,0.54736328,0.583984375,0.5000913300254307,0.5000096592629458,0.49996416079827427,59.25,20.85,-2.55
0.05151366999999999,0.53857422,0.291259765,0.5000245811299187,0.5000965260451468,0.4999891416958581,-7.95,27.45,16.5,0.21362304499999998,0.5283203150000001,0.912597655,0.500022049791638,0.49999153977825034,0.4999232588327209,92.1,0.45,68.1,0.0078125,0.5480957049999999,0.591796875,0.500086866782201,0.5000017986490606,0.49999034073705423,59.25,20.85,-2.55
0.04443359500000003,0.541503905,0.27734375,0.5000195183660909,0.500073543636823,0.5000275122358644,-7.5,26.7,16.5,0.20336914,0.525390625,0.907714845,0.5000233820887224,0.5000170536121212,0.4999521033656698,91.65,1.5,68.4,0.002197265000000016,0.5441894549999999,0.5905761700000001,0.5000818706026843,0.5000149885385503,0.49994630782535565,59.25,20.85,-2.55
0.018066404999999976,0.5417480450000001,0.270751955,0.5000171868680097,0.5001063185639809,0.5000085268060606,-8.1,28.5,16.65,0.20605468999999998,0.5344238299999999,0.9143066400000001,0.5000453652087831,0.500015321634638,0.499947173770464,91.2,0.75,67.65,0.004638669999999991,0.5432128900000001,0.58300781,0.5000754088701945,0.5000267128750671,0.49996156278841625,58.35,21.45,-1.05
