IMU1_AccX,IMU1_AccY,IMU1_AccZ,IMU1_GyrX,IMU1_GyrY,IMU1_GyrZ,IMU1_MagX,IMU1_MagY,IMU1_MagZ,IMU2_AccX,IMU2_AccY,IMU2_AccZ,IMU2_GyrX,IMU2_GyrY,IMU2_GyrZ,IMU2_MagX,IMU2_MagY,IMU2_MagZ,IMU3_AccX,IMU3_AccY,IMU3_AccZ,IMU3_GyrX,IMU3_GyrY,IMU3_GyrZ,IMU3_MagX,IMU3_MagY,IMU3_MagZ
0.05029297000000003,0.5095214849999999,0.286865235,0.5000061952207129,0.5000297105653237,0.49995443495101755,-6.9,25.35,16.2,0.22412109500000002,0.5217285150000001,0.9296875,0.50000199848926,0.4999812144103955,0.5000369050742999,90.75,-1.65,70.35,0.010742189999999993,0.5446777349999999,0.624023435,0.49988348932405263,0.4999837457486762,0.4999503047166092,60.0,20.55,0.45
0.04907226500000002,0.5114746099999999,0.290039065,0.5000040635628309,0.5000057955403142,0.4999836791643652,-6.45,27.15,16.2,0.22631836,0.506591795,0.9313964849999999,0.4999910069292297,0.49998414551634135,0.5000219165357496,90.9,-1.05,70.5,0.01098633000000001,0.5498046900000001,0.6171875,0.49989115009773843,0.49998734304679743,0.4999722879239362,60.0,20.55,0.45
0.04345702999999997,0.50073242,0.290527345,0.5000115910806283,0.5000235153446109,0.49999813476662835,-6.45,27.15,16.2,0.22558593999999998,0.505859375,0.93457031,0.49998994105665556,0.4999780834642504,0.5000362388821243,91.8,-2.4,69.9,0.005859375,0.5397949200000001,0.6179199200000001,0.49991979479048804,0.4999642273825852,0.5000011990411961,59.25,20.55,1.2
0.04614258000000001,0.502441405,0.28833008,0.4999795490172233,0.5000343070644419,0.49997841656033815,-7.2,26.1,16.5,0.21972656499999998,0.51098633,0.9338378900000001,0.49998994105665556,0.4999864770144226,0.5000389035635598,89.85,-0.75,69.75,0.008789064999999993,0.5349121099999999,0.6105957049999999,0.49989394794779585,0.4999434433037208,0.4999774839436523,59.4,20.25,-0.6
0.04077148499999998,0.501220705,0.286865235,0.4999990007990032,0.5000175865484083,0.499995336916571,-7.2,25.35,16.5,0.22119140499999998,0.506347655,0.935058595,0.499986610270311,0.499975951719102,0.500046764177445,91.8,-1.2,69.6,0.0048828149999999935,0.528808595,0.624023435,0.49989394794779585,0.49995050455680856,0.49999820135093936,58.35,21.0,-0.3
0.05224609500000003,0.498046875,0.29223633,0.49998934153605745,0.49999307200280063,0.4999989341274258,-7.35,27.75,17.1,0.23315429499999998,0.50048828,0.9357910150000001,0.49998501146144975,0.5000021983294594,0.5000456317205598,90.3,-0.9,71.4,0.01635741999999999,0.5310058599999999,0.627441405,0.49988488820544813,0.4999794157613349,0.49998687669482134,59.7,21.9,1.2
0.04736327999999997,0.497802735,0.290039065,0.4999646937345614,0.5000215168553509,0.499993405011622,-7.35,27.75,17.1,0.23339843999999998,0.5036621099999999,0.9304199200000001,0.4999982680225168,0.5000021983294594,0.5000373713390096,90.9,0.75,70.8,0.009765625,0.525390625,0.6184082049999999,0.4998998767439984,0.49997488593379424,0.4999847450369394,59.7,21.9,1.2
0.04125976500000002,0.493408205,0.28540039,0.4999880091517065,0.4999830130594562,0.5000351064252392,-8.55,24.9,15.75,0.228759765,0.50317383,0.9230957049999999,0.4999888085997704,0.5000003330960877,0.5000515605167625,90.9,0.75,70.8,0.005859375,0.525878905,0.6154785150000001,0.4998996102322216,0.49999946706371295,0.4999815475064833,57.9,21.15,-0.15
0.048828125,0.50854492,0.291259765,0.49999993341568905,0.49998168067510523,0.5000245145456076,-7.5,26.1,15.15,0.22949218999999998,0.50463867,0.924316405,0.5000002664245103,0.49999693563816583,0.5000566898649011,90.0,-0.9,69.9,0.013427734999999984,0.5373535150000001,0.61669922,0.49990100920088354,0.49999393794790903,0.4999851447173381,57.9,21.15,-0.15
0.05004883000000001,0.50439453,0.294189455,0.49995503447161566,0.500000599520598,0.4999860773340239,-8.25,25.65,15.75,0.23168945500000002,0.51098633,0.927734375,0.5000055957001148,0.5000041301471418,0.500039569668469,91.35,-1.2,70.35,0.01831054499999999,0.5302734400000001,0.616210935,0.4999517702695821,0.4999852779732265,0.5000090597423477,59.1,19.95,1.35
0.04638672000000003,0.49536133,0.29296875,0.49998234686728066,0.4999963361175678,0.5000472971137321,-7.65,26.25,17.1,0.23364258000000002,0.5078125,0.932128905,0.49998481162125036,0.5000019318176826,0.5000339073840431,90.75,-1.2,68.55,0.00854491999999999,0.5310058599999999,0.6140136700000001,0.49993651530652145,0.49999267232240197,0.4999843453565407,59.85,20.25,1.05
0.05200195500000001,0.49853515499999995,0.291015625,0.4999826799633685,0.49998188051530457,0.5000080604540845,-7.65,26.25,17.1,0.22143554499999998,0.50830078,0.9284667950000001,0.4999995336480239,0.5,0.5000750757741068,90.75,-1.2,68.55,0.005371095000000025,0.533691405,0.62060547,0.4999419778380144,0.4999977350862297,0.4999927389067129,59.85,19.95,2.1
0.04663085999999998,0.513183595,0.286132815,0.4999459747292679,0.5000045964991181,0.5000163874199458,-8.25,27.15,16.8,0.23339843999999998,0.509277345,0.9221191400000001,0.5000030643618342,0.5000022649137703,0.500055490823705,91.05,-0.9,70.35,0.009765625,0.53466797,0.6276855450000001,0.49997768378385166,0.49999606969305743,0.4999739533171085,60.6,21.0,0.3
0.05126952999999997,0.514160155,0.28979492,0.49997775036816267,0.49997894949662525,0.5000212503435741,-7.35,26.55,15.6,0.23413086,0.502685545,0.924316405,0.49999260565082454,0.4999860773340239,0.5000818040183733,91.2,-0.75,70.5,-0.0012207050000000094,0.5305175799999999,0.614746095,0.4999443093360957,0.5000199180464896,0.49999673579796644,59.25,20.1,0.45
0.05590820500000001,0.513183595,0.29248047,0.4999555674079027,0.49997655132696656,0.500036105626236,-7.05,25.5,16.65,0.22241211,0.50463867,0.919921875,0.49998694336639876,0.5000167871003445,0.5000726110201372,91.2,-0.75,70.5,0.004638669999999991,0.528808595,0.61035156,0.499952569717646,0.49998707653502067,0.49996535983947044,60.15,20.7,1.35
0.05786133000000001,0.51098633,0.28564453,0.4999279219161499,0.499993405011622,0.5000139226659761,-7.05,25.5,16.65,0.21923827999999998,0.5,0.92529297,0.5000051294354051,0.5000098591031451,0.5000618193003062,91.8,-0.9,70.95,0.003662109999999984,0.5361328150000001,0.6169433599999999,0.4999573659696969,0.49997934917702397,0.4999808813143078,60.15,20.7,1.35
0.04980468999999999,0.50854492,0.287597655,0.499950571228386,0.4999936049390878,0.5000293108849251,-6.15,25.65,16.2,0.21997070500000002,0.49658202999999995,0.93066406,0.500022715896547,0.4999890750242807,0.5000664823837353,91.05,-0.45,70.35,0.006347654999999975,0.5341796900000001,0.6232910150000001,0.4999571661294976,0.499977284103453,0.50001945178178,61.2,21.0,0.3
0.04443359500000003,0.5119628900000001,0.28955078,0.49994444259198406,0.49998234686728066,0.5000402358606444,-6.9,27.15,17.55,0.22143554499999998,0.5041503900000001,0.924804685,0.5000041968187193,0.5000054624442265,0.5000732105407353,91.35,-1.65,69.6,0.0012207050000000094,0.5310058599999999,0.6120605450000001,0.4999385803800924,0.5000007327764865,0.5000061952207129,58.95,21.15,0.75
0.04370116999999999,0.498291015,0.28417969,0.4999483063146157,0.5000125236973141,0.5000306431820095,-7.95,26.1,16.5,0.22119140499999998,0.502685545,0.9299316400000001,0.5000132564738006,0.500005262604027,0.5000610865238199,91.35,-1.65,69.6,0.0029296899999999935,0.528808595,0.614746095,0.49994957194012274,0.49999400461948645,0.5000050627638277,59.4,21.0,0.6
0.03979491999999999,0.506591795,0.295410155,0.499949172259724,0.4999682909454162,0.500048229730418,-8.25,27.45,18.6,0.23095702999999998,0.50341797,0.9284667950000001,0.5000097258472568,0.49999993341568905,0.500064883574874,90.75,-0.15,69.9,0.008056640000000016,0.540527345,0.61816406,0.4999547013755279,0.49999946706371295,0.4999784831446491,59.85,20.7,1.05
0.04199218999999999,0.506835935,0.29736328,0.49997768378385166,0.4999897412164561,0.5000418345822393,-8.25,27.45,18.6,0.22534179499999998,0.50830078,0.9318847650000001,0.4999918062900271,0.5000103254551213,0.5000779402957417,91.05,-0.15,70.35,0.007080080000000009,0.5322265650000001,0.6159667950000001,0.49993924657226796,0.5000151217071722,0.5000101921992328,58.8,21.0,2.1
0.04736327999999997,0.515625,0.28857422,0.4999359823702344,0.4999805482182201,0.5000223162161483,-8.25,27.45,18.6,0.22949218999999998,0.50854492,0.920410155,0.49999746857445293,0.5000274456515534,0.5000853346449172,90.0,-1.65,70.35,0.005371095000000025,0.5354003900000001,0.6125488299999999,0.49992372509743055,0.4999901408968549,0.49997188824353755,59.4,20.25,1.65
0.05712890499999997,0.5166015650000001,0.29638672,0.4999702894346762,0.49998727637522006,0.5000262465230909,-8.25,26.7,15.75,0.22241211,0.50439453,0.9206542950000001,0.4999877427271962,0.5000135229855773,0.5000872664625997,91.8,0.15,69.6,0.010253904999999975,0.529296875,0.6184082049999999,0.49992339200134284,0.49999094025765234,0.5000075941893748,59.4,20.25,1.65
0.04956054499999999,0.5158691400000001,0.28173828,0.4999751523583046,0.4999870099507097,0.500040036020445,-8.7,25.5,17.1,0.21777343999999998,0.50048828,0.92626953,0.4999830130594562,0.5000303100859218,0.5000759418064817,91.65,-1.5,69.45,0.015380859999999984,0.5295410150000001,0.625,0.49992965389363314,0.499993271843,0.4999916730341387,59.85,21.45,1.65
0.04199218999999999,0.5178222650000001,0.275634765,0.49993618221043373,0.5000162542513238,0.5000158544836586,-7.2,27.45,15.45,0.22338866999999998,0.502441405,0.927246095,0.49999207271453744,0.5000162542513238,0.5000781401359411,91.2,0.0,70.05,0.008300779999999975,0.5349121099999999,0.6174316400000001,0.4999459747292679,0.4999958031812807,0.5000015988088613,59.85,21.45,1.65
0.03588866999999999,0.515625,0.283203125,0.4999802817937098,0.4999897412164561,0.5000494954431914,-7.2,27.45,15.45,0.22119140499999998,0.5114746099999999,0.927246095,0.49998501146144975,0.49999600302148,0.5000953935882616,91.2,0.0,70.05,0.007324220000000025,0.5363769549999999,0.6171875,0.4999181959816267,0.500036105626236,0.5000124571130031,59.85,21.45,1.65
0.03295898499999998,0.5222167950000001,0.286376955,0.49995916461875756,0.49999140660962843,0.500034040552665,-7.65,27.0,16.35,0.22314452999999998,0.509765625,0.931640625,0.4999984678627162,0.5000152549630607,0.5000677480965088,90.75,0.45,69.6,0.01171875,0.5361328150000001,0.6164550799999999,0.4999531025666666,0.5000252473220941,0.49999840119113875,59.7,20.85,0.15
0.04565429499999999,0.5207519549999999,0.29663086,0.4999340505525518,0.5000079938697736,0.5000285781084386,-7.2,26.1,17.25,0.23315429499999998,0.50439453,0.9333496099999999,0.5000015988088613,0.5000147220267734,0.5000752090299952,92.1,0.45,68.55,0.007080080000000009,0.53125,0.609375,0.49995603367261243,0.5000495620275024,0.5000223162161483,59.7,20.85,0.15
0.04565429499999999,0.5236816400000001,0.294433595,0.49996515999927105,0.4999780168799394,0.5000748093495966,-7.35,25.8,16.65,0.22412109500000002,0.50341797,0.9235839849999999,0.5000007327764865,0.5000043966589187,0.5000939946195997,90.3,0.45,69.9,0.007568359999999984,0.5246582049999999,0.61669922,0.4999393131565789,0.5000025314255471,0.5000259135142696,59.7,22.65,0.15
0.05566406499999999,0.517089845,0.291015625,0.4999524364617576,0.4999875428869968,0.5000521600373604,-7.95,26.4,15.75,0.21997070500000002,0.491210935,0.92285156,0.5000037304667432,0.5000217166955503,0.5000837358360558,91.05,1.65,70.65,0.012207029999999975,0.53076172,0.6320800799999999,0.4999287878612583,0.4999910735135407,0.5000030643618342,58.95,21.9,0.15
0.044921875,0.521484375,0.290527345,0.4999495053558118,0.5000203177268884,0.5000296439810128,-7.95,26.4,15.75,0.22778320500000002,0.49584961,0.9367675799999999,0.5000124571130031,0.5000106584639425,0.5000812710820862,89.55,0.9,70.65,0.011474609999999984,0.53076172,0.62207031,0.49993977950855506,0.5000199180464896,0.4999998667441116,59.25,22.65,0.75
0.03955077999999997,0.5207519549999999,0.287841795,0.49995823200207173,0.4999922725547368,0.5000341738085534,-6.0,27.3,15.3,0.22705077999999998,0.494873045,0.9255371099999999,0.5000167871003445,0.5000280451721515,0.500075475541772,89.55,0.9,69.9,0.013916015000000016,0.53125,0.61279297,0.4999455750488692,0.5000238483534322,0.4999963361175678,58.35,21.45,2.1
0.03735351500000002,0.5166015650000001,0.291259765,0.4999457083047576,0.5000276454917528,0.5000035972108549,-9.0,26.1,17.25,0.22729491999999998,0.50708008,0.923828125,0.5000289112045264,0.5000227825681245,0.500070945626965,89.55,0.9,69.9,0.012207029999999975,0.528808595,0.61816406,0.499922459384657,0.5000135229855773,0.5000024647539697,58.35,21.45,2.1
0.04760741999999999,0.5241699200000001,0.286132815,0.4999367151467209,0.500002598009858,0.4999990007990032,-9.15,25.8,17.1,0.22387695500000002,0.50854492,0.92138672,0.5000053292756045,0.5000297105653237,0.5000817373467958,90.9,1.05,70.5,0.01098633000000001,0.5324707049999999,0.6169433599999999,0.49993884689186924,0.5000422342626379,0.5000078606138851,59.7,21.9,2.55
0.05444335999999998,0.564941405,0.290771485,0.5000331746075567,0.4999513705891834,0.49988115773870495,-8.1,28.05,16.65,0.21044922000000002,0.53173828,0.90576172,0.5000317090545837,0.4999992672235135,0.4999419778380144,91.2,2.25,68.7,0.009521484999999984,0.5634765650000001,0.5861816400000001,0.5000733437966236,0.49999540350088195,0.4999984678627162,58.2,21.15,-2.25
0.04760741999999999,0.5573730450000001,0.271972655,0.500029377469236,0.4999564333530111,0.49988009186613075,-8.25,28.65,16.5,0.20581054499999998,0.533203125,0.91845703,0.5000262465230909,0.5000169203562328,0.49992099383168415,91.65,1.05,69.0,0.01293945500000001,0.55859375,0.595214845,0.5000598874826238,0.5000157213150367,0.49998341273985486,58.5,22.65,-2.55
0.025146484999999986,0.5334472650000001,0.27685547,0.5000081271256619,0.4999547679598389,0.49986510332758044,-7.35,27.3,17.4,0.20581054499999998,0.5319824200000001,0.9152832049999999,0.5000337741281548,0.5000303767574993,0.49991772971691706,91.65,1.05,69.0,0.0034179700000000254,0.5480957049999999,0.59033203,0.5000870666224003,0.500034840000729,0.5000181194846954,58.35,21.45,-1.35
0.02221679499999999,0.5148925799999999,0.28540039,0.5000391034037592,0.4999271891396635,0.49989328175562037,-7.65,27.75,16.35,0.20825195500000002,0.5378417950000001,0.9140625,0.500037438010587,0.5000211837592632,0.49994517536847055,91.65,2.55,68.7,0.0017089849999999843,0.5517578150000001,0.579589845,0.5000867335263126,0.5000229824083238,0.4999986677029155,58.8,21.75,-0.3
0.03881835999999998,0.5173339849999999,0.28930664,0.5000471638578438,0.4999241914494067,0.49991939511008926,-7.65,27.75,16.35,0.20678711,0.5358886700000001,0.924804685,0.5000197848778677,0.5000502948039889,0.4999209272473732,91.2,1.8,68.7,0.00390625,0.5422363299999999,0.58251953,0.5000393032439586,0.5000337741281548,0.4999892082801691,58.8,21.75,-0.3
0.05249023499999998,0.524902345,0.290771485,0.5000166539317226,0.4999169303561196,0.49995216994998076,-9.3,29.4,15.75,0.20581054499999998,0.5368652349999999,0.9299316400000001,0.5000028644343684,0.500051427260874,0.4999122006011132,91.2,1.8,68.7,0.0007324199999999905,0.5520019549999999,0.5988769549999999,0.5000720114995392,0.49998794256739554,0.49999800151074,58.05,21.0,-1.35
0.05224609500000003,0.5319824200000001,0.306884765,0.500035439521327,0.49994137823014984,0.4999569662892982,-8.25,27.45,16.5,0.19970702999999998,0.5334472650000001,0.9245605450000001,0.5000233820887224,0.5000365053939012,0.4999132664736874,93.0,2.25,68.7,0.00048827999999997475,0.5549316400000001,0.6037597650000001,0.5000503613882998,0.4999993338078245,0.4999830130594562,58.05,21.0,-1.05
0.07275390499999998,0.533691405,0.30541992,0.5000620191405056,0.4999269892994641,0.4999590980344466,-7.5,27.15,16.5,0.20947265499999998,0.5363769549999999,0.923828125,0.4999890750242807,0.4999756852945917,0.49993118603091696,91.2,-0.75,69.0,0.0031738300000000094,0.55419922,0.6096191400000001,0.5000698131700798,0.5000303767574993,0.499950571228386,58.35,21.0,-1.05
0.06958008000000002,0.54345703,0.30932617,0.5000468307617559,0.49996835761699365,0.4999857442379362,-8.25,26.4,16.8,0.20410156499999998,0.5300292950000001,0.91748047,0.5000087932305709,0.499981947186882,0.49993191880740345,92.85,0.45,68.85,0.0,0.557128905,0.58691406,0.5000804050497114,0.5000023981696587,0.4999661592875343,58.95,21.15,-1.5
0.08349609500000002,0.5390625,0.31591797,0.5000260466828915,0.5000037970510541,0.4999856776536252,-8.25,26.4,16.8,0.200927735,0.53125,0.912109375,0.5000148552826619,0.5000006661921754,0.49991699694043057,92.85,0.45,68.85,0.0048828149999999935,0.5588378900000001,0.60107422,0.5000572894727656,0.49999886754311484,0.49996642571204464,59.25,20.55,-1.5
0.07714844,0.5419921900000001,0.317871095,0.5000299769898341,0.5000205176543542,0.5000057955403142,-7.35,28.05,17.4,0.19970702999999998,0.5285644549999999,0.89892578,0.5000283115966618,0.4999782167201388,0.4999567664490988,90.9,1.8,67.65,0.01245116999999999,0.549316405,0.6062011700000001,0.5000584885139617,0.5000289112045264,0.4999731538690446,58.95,20.85,-1.8
0.07885741999999998,0.548828125,0.31274414,0.5000022649137703,0.5000649502464514,0.5000143223463748,-8.1,28.8,16.65,0.20751952999999998,0.5295410150000001,0.9113769549999999,0.5000206508229761,0.49997628481518974,0.4999451086968931,92.4,2.55,68.4,0.0068359399999999935,0.5490722650000001,0.5974121099999999,0.5000794724330255,0.5000446324322966,0.49998927486448,58.95,20.85,-1.8
0.07641601500000002,0.5361328150000001,0.305908205,0.500013856081665,0.5000882656635964,0.4999666922238214,-7.95,27.45,16.5,0.21069336,0.5187988299999999,0.9177246099999999,0.5000163208356349,0.5000045298275406,0.49992918762892347,90.15,1.5,69.0,0.00390625,0.54736328,0.583984375,0.5000913300254307,0.5000096592629458,0.49996416079827427,59.25,20.85,-2.55
0.05151366999999999,0.53857422,0.291259765,0.5000245811299187,0.5000965260451468,0.4999891416958581,-7.95,27.45,16.5,0.21362304499999998,0.5283203150000001,0.912597655,0.500022049791638,0.49999153977825034,0.4999232588327209,92.1,0.45,68.1,0.0078125,0.5480957049999999,0.591796875,0.500086866782201,0.5000017986490606,0.49999034073705423,59.25,20.85,-2.55
0.04443359500000003,0.541503905,0.27734375,0.5000195183660909,0.500073543636823,0.5000275122358644,-7.5,26.7,16.5,0.20336914,0.525390625,0.907714845,0.5000233820887224,0.5000170536121212,0.4999521033656698,91.65,1.5,68.4,0.002197265000000016,0.5441894549999999,0.5905761700000001,0.5000818706026843,0.5000149885385503,0.49994630782535565,59.25,20.85,-2.55
0.018066404999999976,0.5417480450000001,0.270751955,0.5000171868680097,0.5001063185639809,0.5000085268060606,-8.1,28.5,16.65,0.20605468999999998,0.5344238299999999,0.9143066400000001,0.5000453652087831,0.500015321634638,0.499947173770464,91.2,0.75,67.65,0.004638669999999991,0.5432128900000001,0.58300781,0.5000754088701945,0.5000267128750671,0.49996156278841625,58.35,21.45,-1.05
0.02075195500000001,0.5524902349999999,0.25830078,0.5000362388821243,0.5000663491278469,0.5000009992009967,-7.95,27.45,16.5,0.197509765,0.5302734400000001,0.91845703,0.5000094594227464,0.5000033973706555,0.49992638977886605,91.2,0.75,67.65,0.0026855449999999906,0.5427246099999999,0.584960935,0.5000538254305328,0.50000199848926,0.49996595944733496,60.0,21.15,-1.2
0.03173827999999997,0.5603027349999999,0.255126955,0.5000413683175295,0.5000170536121212,0.5000057289560033,-8.1,27.75,17.1,0.20581054499999998,0.5402832049999999,0.91845703,0.5000099256874561,0.5000009326166858,0.49993558268983573,91.2,0.75,67.65,0.0078125,0.5510253900000001,0.5974121099999999,0.5000580888335631,0.4999822136113923,0.4999930053312232,58.2,21.15,-0.75
0.03613281499999999,0.5725097650000001,0.256591795,0.5000377710194083,0.4999700230101659,0.5000115910806283,-8.1,27.75,17.1,0.20214843999999998,0.5383300799999999,0.9191894549999999,0.49999960031960133,0.5000011324568852,0.49994217767821375,91.65,1.05,68.7,0.01049804499999999,0.564453125,0.592773435,0.5000492289314147,0.4999925390665136,0.4999670252326427,58.5,21.6,-0.15
0.03930664000000002,0.5808105450000001,0.26611328,0.5000023981696587,0.499973287124933,0.4999670252326427,-7.05,28.8,16.05,0.20068359500000002,0.5417480450000001,0.9299316400000001,0.4999990007990032,0.5000067948285775,0.4999265896190654,92.4,0.75,68.4,-0.0017089849999999843,0.560058595,0.5998535150000001,0.5000609532679314,0.5000126569532025,0.49996902372190266,59.7,21.6,-1.5
0.05102539000000002,0.57080078,0.264160155,0.4999941377881084,0.4999608300119298,0.49998174734668266,-7.65,28.05,16.05,0.19213866999999998,0.5439453150000001,0.92626953,0.4999842121006523,0.5000115910806283,0.4999208606630622,91.8,0.15,68.85,0.006347654999999975,0.5625,0.6003417950000001,0.5000501615481006,0.4999904739929426,0.4999742197416188,58.2,21.6,-1.2
0.05859375,0.564941405,0.282470705,0.49998008195351035,0.4999554341520143,0.49995963097073365,-9.0,27.45,16.8,0.19506836,0.5407714849999999,0.9235839849999999,0.49999393794790903,0.49998034837802074,0.4999396462526666,91.2,1.5,68.7,-0.005126955000000009,0.5615234400000001,0.6101074200000001,0.5000432335509012,0.49996622587184525,0.4999722879239362,58.2,21.6,-1.2
0.07641601500000002,0.5556640650000001,0.295410155,0.49993977950855506,0.4999508376528963,0.49994304362332215,-9.0,27.45,16.8,0.200927735,0.5373535150000001,0.9216308599999999,0.499964627062984,0.4999907404174529,0.499939846092866,91.2,0.75,68.4,0.0034179700000000254,0.5617675799999999,0.5969238299999999,0.500024714385807,0.4999952036606826,0.4999620290531259,58.8,21.0,-0.3
0.079101565,0.5554199200000001,0.311279295,0.49995496780003823,0.49995743264127435,0.4999294540534338,-7.5,26.4,16.5,0.20263672000000002,0.524902345,0.92138672,0.49996122969232853,0.49997182157196013,0.4999495053558118,90.9,0.75,68.4,0.00024414000000001578,0.564453125,0.59716797,0.5000035306265439,0.5000338407124657,0.4999702894346762,60.3,21.9,-0.75
0.07104491999999998,0.556152345,0.301757815,0.4999807480584194,0.49996209572470335,0.49990347395485324,-8.4,26.25,16.05,0.20971679499999998,0.5222167950000001,0.9279785150000001,0.499955234311815,0.4999616960443046,0.49991959495028865,90.9,0.75,68.4,0.004638669999999991,0.56640625,0.603515625,0.5000129234649794,0.4999964027891452,0.49995916461875756,59.7,21.15,-2.25
0.04345702999999997,0.5537109400000001,0.287353515,0.49996382770218656,0.4999714884758723,0.49985937445884365,-6.45,27.9,17.55,0.212890625,0.5224609400000001,0.9172363299999999,0.4999684242013046,0.4999504379724976,0.49993058651031896,92.1,0.15,68.1,0.005126955000000009,0.56201172,0.6047363299999999,0.5000013989686619,0.5000118575924052,0.49997355363670976,58.5,20.85,-0.15
0.03955077999999997,0.53515625,0.27294922,0.49998734304679743,0.499935849114346,0.49987849314453586,-9.0,27.45,16.2,0.21875,0.521972655,0.9177246099999999,0.49998094789861874,0.4999762182308788,0.49996102985212915,90.3,1.2,68.1,0.0078125,0.5625,0.59033203,0.49999946706371295,0.500013456314,0.49995969755504466,58.35,20.7,-2.1
0.03613281499999999,0.529785155,0.28100586,0.4999862771742233,0.4998964127017655,0.49988488820544813,-9.0,27.45,16.2,0.22363281499999998,0.5241699200000001,0.9069824200000001,0.4999636278619872,0.4999588981942472,0.4999499717077879,91.05,0.45,69.15,0.015136720000000025,0.55810547,0.5939941400000001,0.5000099923590335,0.4999736202210207,0.4999730207004227,58.8,19.95,-1.65
0.03613281499999999,0.518066405,0.2890625,0.49997355363670976,0.4999295873093222,0.4998186056619122,-9.0,27.45,16.2,0.22241211,0.5224609400000001,0.9084472650000001,0.49996635912773363,0.4999722212523588,0.4999592312030685,91.05,0.45,69.15,0.016113279999999976,0.541015625,0.595214845,0.5000023315853478,0.4999900076409665,0.49997055585918654,58.8,19.95,-1.65
0.05590820500000001,0.5183105450000001,0.30419922,0.49999233922631425,0.4998969456380526,0.49985584383229986,-7.35,27.0,16.35,0.21826172000000002,0.521484375,0.9240722650000001,0.4999584984265821,0.4999852113016491,0.4999632947658995,92.4,0.3,69.75,0.013183595000000025,0.5407714849999999,0.5954589849999999,0.49999160644982776,0.5000089930707703,0.49995216994998076,58.5,20.85,-0.75
0.06567383000000002,0.52001953,0.31542969,0.5000177197170302,0.49989421437230613,0.49987736060038424,-7.2,27.45,16.2,0.21850586,0.5146484400000001,0.920898435,0.4999707556993859,0.4999992672235135,0.49996642571204464,90.45,1.05,68.4,0.007568359999999984,0.53955078,0.5974121099999999,0.4999940712037974,0.500028711364327,0.4999608300119298,58.5,20.85,-0.75
0.07153320500000002,0.51611328,0.31323242,0.4999993338078245,0.49994530853709246,0.499877693696472,-6.9,27.9,16.2,0.21606445500000002,0.514160155,0.916015625,0.4999650934149601,0.5000036638824322,0.49994284378312276,90.45,1.05,68.4,0.0034179700000000254,0.5380859400000001,0.6008300799999999,0.49999200613022643,0.4999970023097432,0.4999616960443046,59.25,20.1,-1.5
0.06420898499999998,0.513183595,0.30859375,0.5000113912404289,0.49996902372190266,0.49990587212451193,-6.9,27.9,16.2,0.21752929499999998,0.5075683599999999,0.9182128900000001,0.4999750191024162,0.49998987438507814,0.4999593644589569,90.9,0.0,69.75,0.007324220000000025,0.5354003900000001,0.5949707049999999,0.5000095260070574,0.49998361258005425,0.4999588981942472,59.85,19.5,-0.6
0.04394531499999999,0.5129394549999999,0.30126953,0.5000328415114689,0.4999660260316459,0.49994770670675115,-6.0,26.55,16.35,0.21459961,0.506591795,0.927246095,0.499968624041504,0.500008660061949,0.4999479065469505,91.05,0.9,68.85,0.013183595000000025,0.54296875,0.6027832049999999,0.5000070612530877,0.5000016653931723,0.49996262866099045,58.95,20.55,-0.75
0.033203125,0.51953125,0.295166015,0.5000600206512457,0.4999737534769091,0.49999007431254394,-6.9,28.65,16.5,0.21191406499999998,0.50097656,0.927734375,0.4999812809947065,0.499981947186882,0.49993871363598086,91.95,-0.3,68.4,0.015869140000000014,0.5412597650000001,0.5983886700000001,0.5000110582316077,0.5000203843984657,0.49993764776340666,58.35,21.45,-1.65
0.022949220000000024,0.5183105450000001,0.298339845,0.5000375711792089,0.4999644938943621,0.5000045964991181,-7.65,28.05,15.6,0.21972656499999998,0.50708008,0.927734375,0.5000177197170302,0.4999784831446491,0.4999774172720749,91.95,-0.3,68.4,0.012695314999999993,0.5520019549999999,0.5998535150000001,0.5000084602217496,0.5000379709468741,0.49996023049133176,60.3,19.8,-1.8
0.03613281499999999,0.5222167950000001,0.302246095,0.5000295107251244,0.4999680245209059,0.5000116577522058,-7.5,28.2,15.75,0.21752929499999998,0.51123047,0.92138672,0.500011324656118,0.4999754188700814,0.4999347833290383,90.75,-0.9,69.15,0.01293945500000001,0.5556640650000001,0.5910644549999999,0.4999895413762568,0.5000015988088613,0.4999640942139633,58.95,20.55,-1.8
0.04809570500000001,0.52294922,0.307373045,0.5000430337107018,0.49995516772750404,0.4999875428869968,-7.5,28.2,15.75,0.21801758000000002,0.508789065,0.9182128900000001,0.49999680246954387,0.49996902372190266,0.4999585650981595,90.0,-0.9,69.15,0.013671875,0.5595703150000001,0.6015625,0.49999453755577355,0.5000202511425773,0.49995070448427437,58.95,20.55,-1.8
0.05346679499999999,0.53515625,0.309814455,0.5000411018057528,0.4999620290531259,0.5000096592629458,-7.05,26.55,17.1,0.22290039,0.5134277349999999,0.9245605450000001,0.5000254471622935,0.49996102985212915,0.4999314525426938,91.35,-0.15,69.15,0.010742189999999993,0.5634765650000001,0.59375,0.5000223828877257,0.5000375045948979,0.499975951719102,58.95,20.55,-1.8
0.06103515499999997,0.5400390650000001,0.30908203,0.5000084602217496,0.4999739533171085,0.4999927389067129,-7.5,26.4,16.2,0.21337890499999998,0.51953125,0.9140625,0.5000504946441883,0.49994817305872724,0.4999354494339473,90.75,0.15,67.05,0.01171875,0.5556640650000001,0.59472656,0.4999954701724594,0.5000249808975838,0.49995216994998076,58.2,19.35,-1.8
0.05493164000000002,0.541015625,0.30419922,0.4999875428869968,0.49997035601898715,0.4999963361175678,-6.45,26.4,16.2,0.21875,0.515625,0.921875,0.5000021983294594,0.49994737369792985,0.49995809874618335,91.8,0.15,68.55,0.00903320500000001,0.5495605450000001,0.5935058599999999,0.4999883422477942,0.5000317756388947,0.499957232801075,58.8,20.25,-2.7
0.06201172000000003,0.5458984400000001,0.299316405,0.49997894949662525,0.4999891416958581,0.49996122969232853,-6.45,26.4,16.2,0.21362304499999998,0.5163574200000001,0.9172363299999999,0.49999453755577355,0.4999529693980447,0.49996682539244336,92.1,-1.65,68.55,0.00390625,0.544921875,0.5866699200000001,0.49997841656033815,0.5000119241767161,0.49996056358741947,58.05,21.0,-2.1
0.05566406499999999,0.52783203,0.29272461,0.4999283881808596,0.5000578223217863,0.4999172633649409,-7.05,26.25,14.55,0.20971679499999998,0.5119628900000001,0.9216308599999999,0.5000223828877257,0.49992912095734604,0.49994697393026466,92.1,-1.65,68.55,0.0068359399999999935,0.5373535150000001,0.580566405,0.4999719548278485,0.5000368384027225,0.4999466409214434,58.5,20.85,-1.5
0.06323241999999998,0.521972655,0.282226565,0.4999353828496363,0.5000146554424625,0.4999488391636363,-7.05,26.25,16.35,0.20971679499999998,0.5114746099999999,0.912597655,0.500005262604027,0.49993125270249444,0.4999689571375917,92.1,-0.45,69.9,-0.001953125,0.537597655,0.5764160150000001,0.4999883422477942,0.4999950704047942,0.49995563399221365,59.7,21.15,-1.5
0.04785156499999999,0.513183595,0.27636719,0.4999401125173763,0.500037438010587,0.49992738897986283,-7.95,25.35,16.8,0.19458008000000002,0.51098633,0.91015625,0.4999965359577671,0.4999327182554673,0.49995796557756145,91.8,-0.9,67.8,-0.011474609999999984,0.541015625,0.583496095,0.49998687669482134,0.4999546347912169,0.499975951719102,60.15,20.25,-0.3
0.04614258000000001,0.51611328,0.271240235,0.4999227924807448,0.5000654831827385,0.499886420342732,-7.05,27.3,16.35,0.19482422000000002,0.5100097650000001,0.9113769549999999,0.5000037970510541,0.49993558268983573,0.49994137823014984,91.8,-0.9,69.9,0.0007324199999999905,0.5363769549999999,0.58984375,0.49998381242025364,0.4999185957492919,0.49996589277575754,60.15,20.25,-0.3
0.05126952999999997,0.51220703,0.28149414,0.4999270558837751,0.500048762666705,0.49986756816881656,-7.05,27.3,16.35,0.19677734500000002,0.51123047,0.91503906,0.4999835459084768,0.49992665620337634,0.4999687572973924,91.35,-1.65,69.15,-0.0009765600000000063,0.537597655,0.58251953,0.4999851447173381,0.4999407787095518,0.5000170536121212,58.35,20.7,-0.6
0.05395508000000001,0.51171875,0.30810547,0.49992239280034606,0.5000706125308773,0.49989115009773843,-7.05,28.05,16.35,0.20263672000000002,0.498046875,0.92138672,0.4999713553072504,0.49991966153459966,0.49993385071235247,89.55,-0.45,69.6,0.0024414049999999746,0.54736328,0.577148435,0.5000044632432297,0.49993451681726153,0.4999449755282711,58.35,20.7,-0.6
0.06079101500000002,0.5126953150000001,0.329833985,0.49991160108051513,0.5000886654312616,0.4998645038069824,-7.2,27.15,16.8,0.21386718999999998,0.502929685,0.9362792950000001,0.5000047963393174,0.49993851379578147,0.499988608759571,90.9,-0.75,69.45,0.007080080000000009,0.5400390650000001,0.583984375,0.4999970023097432,0.4999334510319538,0.4999323184878022,58.05,19.5,-1.65
0.05566406499999999,0.515625,0.311279295,0.4999370482428086,0.5000937947794003,0.49990620522059964,-7.5,26.7,15.45,0.23291015499999998,0.49682617,0.9357910150000001,0.4999954701724594,0.49994137823014984,0.4999652932551594,90.9,-0.75,69.45,0.010253904999999975,0.5388183599999999,0.588378905,0.4999918062900271,0.4999255237464912,0.4999407787095518,59.4,21.0,-0.3
0.04516601500000002,0.5100097650000001,0.30029297,0.49995303598235563,0.5000989907991165,0.4998849547897591,-7.5,26.7,15.45,0.243896485,0.5114746099999999,0.913085935,0.5000262465230909,0.49992392493762994,0.499980015281933,91.8,-0.75,69.45,0.01879883000000001,0.5393066400000001,0.5783691400000001,0.49997548545439235,0.4999764180710781,0.4999614962041053,59.25,21.15,-0.75
0.01953125,0.49560547000000005,0.29370117,0.49990880323045767,0.5001194417818932,0.499893081915421,-6.45,27.9,15.45,0.23681640499999998,0.5222167950000001,0.904296875,0.5,0.4999774172720749,0.5000050627638277,91.8,-1.95,68.55,0.01440429499999999,0.5373535150000001,0.57910156,0.499966558967933,0.4999488391636363,0.49996156278841625,59.25,21.6,-1.2
0.019775390000000014,0.506591795,0.282714845,0.49995017154798727,0.500034840000729,0.49992998698972085,-6.9,28.2,15.75,0.24682616999999998,0.52685547,0.9138183599999999,0.4999895413762568,0.49999553675677033,0.5000070612530877,90.75,-1.2,71.4,0.018554689999999995,0.5441894549999999,0.587402345,0.49997788362405104,0.49988115773870495,0.49996142953252787,59.25,19.35,-1.5
0.011474609999999984,0.49926758,0.28051758,0.49993778101929504,0.5000267128750671,0.49994044561346407,-6.0,26.25,15.3,0.24072265499999998,0.518066405,0.9182128900000001,0.49995216994998076,0.5000203843984657,0.5000183859092058,91.05,-2.7,68.85,0.02221679499999999,0.54345703,0.59375,0.49996336143747694,0.4999091363265455,0.4999592312030685,58.8,20.25,0.3
0.005615234999999984,0.486572265,0.286132815,0.49993531626532534,0.5000079272854626,0.49991799614142735,-6.15,26.1,15.45,0.23730468999999998,0.51611328,0.9143066400000001,0.49996356127767627,0.5000048629236283,0.5000391699880702,91.05,-2.7,68.85,0.012695314999999993,0.5334472650000001,0.5983886700000001,0.4999607634276188,0.49992912095734604,0.4999670919042201,58.8,20.25,0.3
0.0009765649999999937,0.466552735,0.28808594,0.4999600972354434,0.4999825467074801,0.49997581855048007,-6.15,26.1,15.45,0.23022461,0.51171875,0.916015625,0.4999421110066363,0.5000468307617559,0.5000367052341005,91.05,-1.65,68.85,0.01879883000000001,0.541015625,0.5998535150000001,0.4999389800604912,0.4999369149869202,0.4999832128996555,59.25,19.35,-0.45
0.01293945500000001,0.46801758,0.299560545,0.49997115546705106,0.49994697393026466,0.4999775505279633,-8.25,27.9,17.25,0.22265625,0.51171875,0.9226074200000001,0.4999439762400079,0.5000544249511308,0.5000594877149585,91.35,-1.2,69.6,0.013671875,0.5451660150000001,0.606933595,0.49994144490172726,0.4999149984511706,0.49997648465538913,59.85,21.45,-1.65
0.03173827999999997,0.486572265,0.31323242,0.4999739533171085,0.4999720880837369,0.4999648269904498,-7.35,27.3,18.15,0.21386718999999998,0.517578125,0.9313964849999999,0.4999449755282711,0.5000528928138469,0.5000278453319522,91.35,-1.2,69.6,0.015136720000000025,0.546875,0.6047363299999999,0.4999251240660925,0.49994484227238273,0.4999427105272344,59.25,20.85,0.15
0.05175781499999999,0.508789065,0.321777345,0.4999842121006523,0.4999503047166092,0.5000043299873413,-7.5,25.65,15.75,0.22924804499999998,0.5144042950000001,0.9392089849999999,0.49994650766555504,0.5000630183415024,0.500056090344303,90.45,-0.3,68.7,0.021240234999999986,0.5529785150000001,0.6125488299999999,0.4999397128369776,0.4999832794839665,0.49994151148603827,59.85,19.5,0.3
0.068359375,0.5251464849999999,0.32324219,0.4999720880837369,0.4999891416958581,0.5000189854298038,-7.5,25.65,15.75,0.22314452999999998,0.5095214849999999,0.943359375,0.4999528361421563,0.5000495620275024,0.5000482963147289,90.45,-1.05,69.75,0.00903320500000001,0.54345703,0.6042480450000001,0.49993012024560923,0.49998188051530457,0.49995456811963945,59.25,18.6,0.45
0.07397460999999998,0.529296875,0.30493164,0.4999360490418118,0.500056156928614,0.49995743264127435,-8.55,26.4,16.8,0.23120116999999998,0.5041503900000001,0.94189453,0.49992725572397445,0.5000464976656682,0.5000602871630224,91.65,-1.05,68.7,0.004150390000000016,0.5334472650000001,0.60986328,0.49991606432374475,0.4999963361175678,0.4999389800604912,58.8,20.7,-1.05
0.07055664000000002,0.533203125,0.2890625,0.49995829858638274,0.5000476302098198,0.4999910735135407,-8.1,26.55,17.1,0.22680664,0.49951172000000005,0.9123535150000001,0.49994444259198406,0.5000500949637895,0.5000476967941307,91.65,-1.05,68.7,0.01245116999999999,0.5354003900000001,0.609375,0.49990054284890745,0.4999877427271962,0.4999410451340621,58.8,20.7,-1.05
0.04589843999999999,0.52685547,0.283447265,0.49993058651031896,0.5000626853326811,0.4999608300119298,-7.2,27.45,16.8,0.21801758000000002,0.49633789,0.92285156,0.4999696899140782,0.500051493845185,0.5000373047546985,90.9,-0.75,68.7,0.01049804499999999,0.5407714849999999,0.611328125,0.4999042067313397,0.4999958698528581,0.4999215267679712,58.8,20.7,-1.05
0.008056640000000016,0.508789065,0.286621095,0.49991939511008926,0.5000877328145759,0.4999547013755279,-7.65,27.3,15.6,0.21484375,0.490478515,0.9553222650000001,0.49996595944733496,0.5000448989440734,0.5000204509827767,92.1,-0.45,68.85,0.0,0.5378417950000001,0.61279297,0.4998853545574243,0.4999852113016491,0.49993458348883896,59.7,19.35,-0.45
0.005615234999999984,0.50048828,0.30419922,0.4999303866701196,0.5000517603569617,0.49991319988937644,-7.65,27.3,15.6,0.217041015,0.49926758,0.9460449200000001,0.4999557005765246,0.5000227825681245,0.5000423009342153,92.1,-0.45,68.85,0.0009765649999999937,0.5368652349999999,0.61279297,0.4998786263131578,0.49997635148676717,0.4999710222111627,59.7,19.35,-0.45
0.0078125,0.502685545,0.29980469,0.49991939511008926,0.5000303100859218,0.49992272589643383,-7.65,27.3,15.6,0.22241211,0.497802735,0.9299316400000001,0.4999830130594562,0.5000211171749521,0.5000434999754114,91.35,-1.65,69.9,0.00024414000000001578,0.5275878900000001,0.619628905,0.4998778935366714,0.4999729540288453,0.49996515999927105,60.15,18.75,0.0
0.017333984999999986,0.5124511700000001,0.30541992,0.49992499081020414,0.49998900843996974,0.4999744862533956,-7.65,27.75,16.65,0.22558593999999998,0.49853515499999995,0.9201660150000001,0.4999840788447639,0.5000115910806283,0.5000466309215567,91.65,-1.8,68.4,-0.00048827999999997475,0.52734375,0.62109375,0.49988475494955975,0.49999054057725356,0.49993991267717697,59.4,20.25,-0.3
0.024414064999999995,0.513671875,0.30053711,0.49989827793513714,0.49999993341568905,0.49992345867292026,-7.2,26.7,16.5,0.23510741999999998,0.498779295,0.928710935,0.49997388664553105,0.5000344402330638,0.5000472304421547,92.85,-0.9,68.1,0.019287109999999986,0.5173339849999999,0.612304685,0.4998891516084784,0.5000028644343684,0.49996189588450396,59.85,19.2,0.6
0.05126952999999997,0.5148925799999999,0.29272461,0.4999006761047958,0.4999922725547368,0.49997908266524715,-6.0,28.05,17.1,0.23046875,0.497802735,0.919433595,0.49997961560153426,0.5000518935255837,0.5000212503435741,92.85,-0.9,68.1,0.012695314999999993,0.5212402349999999,0.615234375,0.4999006761047958,0.4999952036606826,0.4999477733783286,60.3,19.35,-1.2
0.052734375,0.50463867,0.287109375,0.4998960796056778,0.4999620290531259,0.4999864770144226,-6.0,28.05,17.1,0.23510741999999998,0.489990235,0.92675781,0.499980015281933,0.5000517603569617,0.5000513606765631,91.95,-0.75,70.5,0.017089845000000024,0.518066405,0.615234375,0.4999145321864609,0.4999658261914466,0.499963894373764,59.4,21.0,-0.3
0.04809570500000001,0.5148925799999999,0.28442383,0.499893081915421,0.5000262465230909,0.4999357159457241,-7.35,27.75,15.6,0.224609375,0.50073242,0.931152345,0.49996502683064914,0.5000510275804753,0.500044832272496,91.65,-1.5,69.0,0.019287109999999986,0.5139160150000001,0.607421875,0.49992725572397445,0.4999855443977368,0.4999499050362105,59.85,21.45,0.0
0.04150390499999997,0.50341797,0.282470705,0.49988235677990106,0.4999880091517065,0.4999495053558118,-7.05,28.5,16.65,0.21752929499999998,0.48120117,0.9289550799999999,0.49996356127767627,0.5000301769172999,0.5000586883541611,90.75,-1.65,67.05,0.011474609999999984,0.5166015650000001,0.6062011700000001,0.4999215934395486,0.4999970688940542,0.4999844785251626,59.85,21.45,0.0
0.027587890000000014,0.497070315,0.28198242,0.49992932079754543,0.4999565666088995,0.4999767511671659,-7.05,28.05,16.65,0.21630859500000002,0.477783205,0.9343261700000001,0.4999940712037974,0.5000606868434211,0.5000456983048708,91.05,-0.9,69.15,0.003662109999999984,0.5251464849999999,0.6096191400000001,0.49991266695308934,0.5000162542513238,0.4999744862533956,58.2,18.6,1.2
0.025634765000000014,0.501464845,0.28540039,0.49992239280034606,0.4999780168799394,0.49997894949662525,-7.05,27.3,16.35,0.2109375,0.48364258,0.9338378900000001,0.4999808813143078,0.5000304433418102,0.5000204509827767,90.3,-0.45,68.1,0.0031738300000000094,0.5224609400000001,0.6120605450000001,0.4999429104547002,0.4999988009588039,0.4999455750488692,58.2,18.6,1.2
0.03442383000000001,0.494873045,0.28808594,0.49993724808300793,0.4999636944462982,0.4999887419281929,-7.05,27.3,16.35,0.212890625,0.478515625,0.9323730450000001,0.4999954701724594,0.5000311761182967,0.5000460979852696,91.8,-0.9,69.15,0.005371095000000025,0.524902345,0.6091308599999999,0.4999396462526666,0.500005196019716,0.5000210505033748,60.75,18.6,0.45
0.03173827999999997,0.506347655,0.28564453,0.4999769510073652,0.4999194616944002,0.500016054323858,-6.9,27.9,16.2,0.21459961,0.47729492,0.9255371099999999,0.5000137894100877,0.5000446991038741,0.5000506279000766,91.8,-0.9,69.15,0.007324220000000025,0.5275878900000001,0.611816405,0.4999574992255853,0.4999970688940542,0.49999313858711164,60.0,19.8,0.75
0.041015625,0.508789065,0.278564455,0.4999522366215582,0.4999576324814737,0.5000028644343684,-6.9,27.45,16.2,0.22387695500000002,0.48852539,0.9328613299999999,0.5000164540915232,0.500031442542807,0.5000213170151515,91.95,-1.8,68.7,0.003662109999999984,0.51953125,0.6218261700000001,0.49996296175707816,0.4999891416958581,0.5000132564738006,57.6,21.0,1.35
0.04345702999999997,0.5124511700000001,0.282226565,0.4999498384518995,0.49994410949589635,0.49997408648573044,-7.95,28.65,17.25,0.21997070500000002,0.48388672000000005,0.9216308599999999,0.5000212503435741,0.5000161875797464,0.5000608866836205,90.3,-0.45,68.85,0.015380859999999984,0.52392578,0.6169433599999999,0.4999634280217879,0.500015388218949,0.49999094025765234,58.95,20.1,0.15
0.04956054499999999,0.5095214849999999,0.275146485,0.49995610034418986,0.4999073376774848,0.5000027978500574,-7.95,28.65,17.25,0.22973633000000002,0.48754883,0.908203125,0.500062218980705,0.5000095926786348,0.500018585749405,91.95,-1.05,69.75,0.01245116999999999,0.50390625,0.6052246099999999,0.4999421110066363,0.5000778736241643,0.49999766841465226,58.95,20.1,0.15
0.05761718999999999,0.5192871099999999,0.264160155,0.4999495053558118,0.49993378404077504,0.4999984678627162,-6.45,28.65,16.5,0.22363281499999998,0.47680664,0.916015625,0.500064883574874,0.500022049791638,0.5000088599021484,91.95,-1.05,69.75,0.017089845000000024,0.508789065,0.6018066400000001,0.4999604303315311,0.5000774739437656,0.4999861439183349,59.7,20.85,0.15
0.06030273499999998,0.5275878900000001,0.27807617,0.49994097854975117,0.4999302534142312,0.5000309096065199,-6.9,28.2,18.3,0.22192383000000002,0.48974609500000005,0.93847656,0.5000510941647862,0.49999527033226004,0.5000375045948979,91.95,-2.55,69.0,0.013671875,0.498046875,0.6086425799999999,0.4999517702695821,0.5000903974087448,0.5000071278373986,59.7,20.85,0.15
0.05444335999999998,0.5126953150000001,0.30151367,0.4999650934149601,0.49990680474119775,0.5000566232805902,-7.5,28.95,15.75,0.21533202999999998,0.47802734500000005,0.9460449200000001,0.500039569668469,0.5000049961795168,0.5000147886983509,91.05,-0.45,68.85,0.007568359999999984,0.50463867,0.60595703,0.49996249540510207,0.50008480170863,0.5000024647539697,60.15,19.5,0.0
0.05200195500000001,0.486572265,0.30786133,0.4999270558837751,0.4998998767439984,0.5000108583041419,-7.2,28.2,15.45,0.21899414,0.487304685,0.9401855450000001,0.5000407687969315,0.49996902372190266,0.499997934926429,91.05,-0.45,68.85,0.003662109999999984,0.51171875,0.5944824200000001,0.4999707556993859,0.5000832694840798,0.49999213938611486,61.05,19.8,-0.15
0.05981445500000001,0.49511719,0.291259765,0.4999405122850415,0.4999222595444577,0.499995336916571,-7.2,28.2,15.45,0.19799804499999998,0.5017089849999999,0.90722656,0.500026113354469,0.49997355363670976,0.4999880091517065,91.05,-0.9,68.55,0.004638669999999991,0.5148925799999999,0.6013183599999999,0.4999854111418484,0.5000470972735328,0.500013389729689,57.6,19.95,-1.05
0.06152343999999999,0.5224609400000001,0.299072265,0.4999570329608756,0.49994863932343697,0.5000375045948979,-7.65,28.05,16.65,0.193115235,0.505371095,0.9191894549999999,0.5000257802583812,0.5000010658725742,0.5000343070644419,90.45,-0.3,69.0,-0.0031738300000000094,0.5185546900000001,0.6101074200000001,0.49997262102002393,0.5000458315607592,0.5000371714988102,60.3,20.85,-0.75
0.03881835999999998,0.5485839849999999,0.322021485,0.49996489357476076,0.49998174734668266,0.5000156546434593,-8.55,28.2,15.75,0.20605468999999998,0.50097656,0.931640625,0.5000432335509012,0.5000007327764865,0.5000219831200605,91.8,0.15,68.1,-0.005126955000000009,0.5207519549999999,0.6174316400000001,0.49998827566348325,0.5000303100859218,0.5000392365723811,58.35,21.0,0.3
0.04736327999999997,0.540527345,0.338378905,0.49997248776413555,0.5000007993607974,0.5000404357008437,-7.05,28.05,17.1,0.22802734500000002,0.498046875,0.91796875,0.500044765688185,0.4999670919042201,0.4999937381077097,91.8,0.15,68.1,-0.001953125,0.5363769549999999,0.62207031,0.49995590041672405,0.5000329080957798,0.500013856081665,58.2,19.8,37.65
0.05834960999999998,0.529785155,0.341308595,0.49998274654767944,0.5000099923590335,0.5000169869405438,-7.05,28.05,17.1,0.23364258000000002,0.49853515499999995,0.8986816400000001,0.500062218980705,0.499955234311815,0.500015321634638,91.8,0.15,68.1,0.011962890000000016,0.533691405,0.6257324200000001,0.49997355363670976,0.5000480298902186,0.5000195183660909,58.2,19.8,-0.75
0.06982422000000002,0.5295410150000001,0.338134765,0.4999473070263524,0.5000452986244721,0.5000106584639425,-6.3,28.05,16.05,0.23510741999999998,0.5126953150000001,0.895996095,0.5000564234403908,0.4999824801231691,0.5000184524935167,93.9,-1.65,69.6,0.01879883000000001,0.509277345,0.6115722650000001,0.49996129636390596,0.5000452320401612,0.5000407021253541,58.2,19.8,-0.75
0.06518554499999998,0.52001953,0.32861328,0.49996436063847366,0.5000629517571914,0.500002598009858,-6.6,27.75,16.05,0.23315429499999998,0.5139160150000001,0.91357422,0.5000462312411579,0.4999861439183349,0.5000212503435741,91.8,-0.15,68.85,0.013183595000000025,0.514160155,0.6008300799999999,0.49995303598235563,0.5000528928138469,0.5000379709468741,60.15,21.75,-0.6
0.060546875,0.51074219,0.302490235,0.4999835459084768,0.5000576224815869,0.5000259135142696,-7.05,28.5,16.35,0.2265625,0.5061035150000001,0.90625,0.5000345734889522,0.5000279785878405,0.5000207840788644,91.8,-0.15,68.85,0.015869140000000014,0.513183595,0.60205078,0.499977950208362,0.5000647504062521,0.5000359057860366,60.15,21.75,-0.6
0.03002929499999999,0.513183595,0.280029295,0.49997062253076396,0.5000786730722281,0.5000094594227464,-6.15,27.45,17.25,0.216552735,0.51513672,0.9079589849999999,0.5000069279971994,0.5000271125554657,0.5000369716586108,91.35,-1.95,68.85,0.019287109999999986,0.508789065,0.6018066400000001,0.499984678365362,0.500053425750134,0.500050827740276,60.3,19.8,-0.75
0.010742189999999993,0.5227050799999999,0.27001953,0.49999173970571614,0.5000506279000766,0.5000337741281548,-6.15,27.45,17.25,0.20336914,0.506591795,0.9230957049999999,0.5000072610932871,0.5000310428624083,0.500010791719831,92.1,-0.45,69.6,0.0068359399999999935,0.5285644549999999,0.604492185,0.5,0.5000676148406205,0.5000411018057528,59.4,20.7,-2.1
0.014160154999999975,0.528808595,0.275634765,0.5000131898894896,0.5000077274452632,0.5000196516219793,-7.95,30.15,16.5,0.20190429499999998,0.49951172000000005,0.92675781,0.5000267128750671,0.5000248476416954,0.5000169203562328,91.35,-0.45,69.15,-0.00854491999999999,0.5261230450000001,0.58691406,0.49999114009785167,0.5000329747673573,0.5000438330714992,58.95,19.8,-0.45
0.03393554499999999,0.5302734400000001,0.28588867,0.4999796822731117,0.49997928250544654,0.5000524931334482,-7.05,28.5,17.1,0.189208985,0.50488281,0.9084472650000001,0.5000282450123509,0.4999965359577671,0.5000345069046412,91.35,-0.45,69.15,-0.0009765600000000063,0.529785155,0.5930175799999999,0.49997455283770653,0.500019984718067,0.5000496286118133,59.1,21.0,0.3
0.05444335999999998,0.5358886700000001,0.27807617,0.499975285614193,0.5000002664245103,0.500016054323858,-7.95,27.45,15.45,0.1953125,0.5153808599999999,0.905273435,0.5000184524935167,0.4999956033410813,0.5000257802583812,91.35,-0.9,68.55,0.007324220000000025,0.5319824200000001,0.5886230450000001,0.4999650934149601,0.49998507813302717,0.5000530260697353,59.1,21.0,0.3
0.06079101500000002,0.5134277349999999,0.27368164,0.49998501146144975,0.4999877427271962,0.5000490290912153,-7.95,27.45,15.45,0.193603515,0.50854492,0.91503906,0.5000101256149219,0.5000147886983509,0.500024647801496,91.95,1.05,69.45,-0.0026855449999999906,0.5368652349999999,0.58984375,0.499966558967933,0.5000007993607974,0.5000562901845024,60.3,20.1,-1.2
0.0625,0.50073242,0.27661133,0.49997441958181815,0.49999213938611486,0.5000541585266205,-6.6,28.05,17.4,0.19604491999999998,0.5166015650000001,0.92578125,0.4999814808349059,0.5000122572728039,0.5000221829602599,90.3,-1.2,68.85,-0.004638669999999991,0.537597655,0.59033203,0.49995456811963945,0.49998994105665556,0.5000523598775598,60.3,20.1,-1.2
0.03955077999999997,0.494384765,0.262939455,0.4999722879239362,0.49999813476662835,0.5000145221865742,-7.65,28.5,17.7,0.19189452999999998,0.51953125,0.90673828,0.4999902741527433,0.49999453755577355,0.5000289777888374,91.05,0.15,68.55,-0.0034179700000000254,0.55126953,0.5964355450000001,0.4999498384518995,0.49998401226045297,0.5000135229855773,59.1,19.95,-1.65
0.03173827999999997,0.5134277349999999,0.26196289,0.5000341738085534,0.4999699563385885,0.5000285115241276,-9.15,28.5,16.65,0.19433593999999998,0.52001953,0.9211425799999999,0.4999736202210207,0.5000099923590335,0.5000468307617559,90.15,-0.75,69.45,-0.009521484999999984,0.5500488299999999,0.5837402349999999,0.4999417113262376,0.5000059953805135,0.5000415015734179,60.3,21.6,-0.15
0.028808595000000024,0.5412597650000001,0.27661133,0.5000302435016108,0.4999717549876492,0.5000482963147289,-6.9,28.65,15.75,0.20361327999999998,0.5324707049999999,0.9162597650000001,0.5000009992009967,0.5000125236973141,0.5000387703076715,91.05,0.9,68.55,-0.0017089849999999843,0.556640625,0.5778808599999999,0.4999192618542009,0.49997055585918654,0.5000111248159187,59.4,21.0,-0.3
0.03686523499999998,0.5412597650000001,0.290039065,0.49999593643716905,0.49995197010978143,0.5000412350616411,-6.9,28.65,15.75,0.20971679499999998,0.517578125,0.908691405,0.4999982680225168,0.500017519876831,0.5000724777642488,91.05,0.9,68.55,0.003662109999999984,0.5451660150000001,0.592285155,0.4999220597042583,0.4999771508475646,0.5000355727772153,59.7,20.85,-0.15
0.05688476500000002,0.537109375,0.28833008,0.4999908736733413,0.4999257235866905,0.5000626853326811,-6.45,28.65,15.75,0.21215820500000002,0.51904297,0.90722656,0.5000077274452632,0.49999646937345615,0.500056090344303,91.35,-1.65,69.15,0.007080080000000009,0.5407714849999999,0.58642578,0.499888418831992,0.5000004663519761,0.5000190521013812,60.0,22.35,-0.45
0.06860351500000002,0.53466797,0.295654295,0.49997162173176074,0.49993831395558214,0.5000063950609122,-6.45,29.4,17.25,0.08471679499999998,0.5202636700000001,0.881347655,0.4999904073213652,0.4997564532655182,0.5000651500866508,91.2,0.3,69.0,0.0029296899999999935,0.53515625,0.5983886700000001,0.4998897511290765,0.5000461646568469,0.500037438010587,59.7,19.8,-0.75
0.076171875,0.5358886700000001,0.30029297,0.4999401125173763,0.49998174734668266,0.49998780931150716,-7.05,28.8,17.1,0.24340820500000002,0.5148925799999999,0.9401855450000001,0.5000023981696587,0.49988162400341457,0.500066215959225,91.35,0.9,69.9,0.004150390000000016,0.5270996099999999,0.5925292950000001,0.49989501382037005,0.5000288445329489,0.5000205176543542,59.7,19.8,-0.75
0.07177734500000002,0.5363769549999999,0.30859375,0.49993937982815634,0.49999646937345615,0.5000167205160335,-7.35,27.75,17.1,0.19409179499999998,0.501220705,0.8762207049999999,0.4999774839436523,0.49986370444618494,0.5000718116593398,90.9,-0.75,69.0,0.0034179700000000254,0.5261230450000001,0.59033203,0.49991233385700157,0.500038104115496,0.5000260466828915,58.95,20.85,-0.15
0.08276366999999998,0.5217285150000001,0.30908203,0.4999607634276188,0.5000359724576141,0.5000061952207129,-7.35,27.75,17.1,0.22192383000000002,0.5349121099999999,0.8884277349999999,0.49999660262934453,0.4999082702941706,0.500092995418603,91.05,0.15,69.9,0.008056640000000016,0.5222167950000001,0.5935058599999999,0.49991386599428544,0.4999950704047942,0.5000302435016108,58.95,20.85,-0.15
0.07250976500000002,0.52294922,0.29736328,0.4999517702695821,0.500056023759992,0.5000152549630607,-6.0,28.8,16.05,0.2109375,0.5222167950000001,0.9138183599999999,0.4999910735135407,0.49996289508550074,0.5000565566962792,91.2,-0.75,69.45,0.007324220000000025,0.5224609400000001,0.5988769549999999,0.4999219265356364,0.49995503447161566,0.5000377044350973,59.4,22.2,0.0
0.05908202999999997,0.5329589849999999,0.291503905,0.5000043299873413,0.5000611531081308,0.5000343736487528,-6.45,28.95,16.8,0.21801758000000002,0.521972655,0.932128905,0.4999527028862679,0.5000011324568852,0.500071411978941,91.2,-0.75,69.45,0.00903320500000001,0.53564453,0.6057128900000001,0.4999287878612583,0.4999862771742233,0.5000119241767161,58.35,21.45,0.0
0.025878904999999976,0.5539550799999999,0.28857422,0.5000496952833908,0.5000702795220558,0.500086866782201,-5.55,28.8,17.1,0.22387695500000002,0.5185546900000001,0.9865722650000001,0.499963894373764,0.5000021983294594,0.500076208230992,91.05,-0.15,70.95,-0.006591794999999991,0.5383300799999999,0.607910155,0.49990893648634616,0.4999807480584194,0.5000446991038741,59.4,22.2,-0.6
0.010742189999999993,0.56640625,0.27734375,0.5000274456515534,0.500071545147563,0.5000456983048708,-7.95,28.2,17.25,0.21972656499999998,0.494873045,0.935058595,0.4999831462280781,0.49999853444702713,0.5000632848532791,90.3,1.2,69.15,-0.0034179700000000254,0.5322265650000001,0.626464845,0.49991679710023124,0.49997561871028073,0.5000667488082455,59.4,20.25,0.3
0.008789064999999993,0.560546875,0.27294922,0.5000162542513238,0.5000213170151515,0.5000391034037592,-7.95,28.2,17.25,0.220458985,0.5017089849999999,0.916503905,0.49997548545439235,0.499971288635673,0.5000544915354418,91.35,0.9,70.95,0.009521484999999984,0.5390625,0.63671875,0.49989814467924876,0.4999766179112775,0.5000327082555805,59.4,20.25,0.3
-0.002197265000000016,0.5412597650000001,0.29345703,0.5000045298275406,0.4999851447173381,0.5000632848532791,-6.9,28.65,16.5,0.2109375,0.50341797,0.89550781,0.49997768378385166,0.49985970746766495,0.5000525597177592,91.35,0.9,70.95,0.016113279999999976,0.5256347650000001,0.619140625,0.49994304362332215,0.4999636278619872,0.5000611531081308,59.4,20.25,0.3
0.03173827999999997,0.5295410150000001,0.31567383,0.49998441194085164,0.4999938047792871,0.49999173970571614,-6.45,28.65,16.5,0.24877929499999998,0.5236816400000001,0.9416503900000001,0.49998967454487875,0.4999622289805918,0.500037438010587,91.8,0.15,70.35,0.020019529999999976,0.525390625,0.616210935,0.4999186623336029,0.4999725543484465,0.500062285565016,58.8,21.75,0.3
0.05322265499999997,0.5197753900000001,0.333251955,0.5000280451721515,0.4999744862533956,0.4999907404174529,-7.2,30.15,17.55,0.24926758000000002,0.517089845,0.9284667950000001,0.49998174734668266,0.4999989341274258,0.5000510275804753,90.45,0.75,69.75,0.024902345000000024,0.5261230450000001,0.6193847650000001,0.49995097090878465,0.499988608759571,0.5000522932932489,58.8,21.75,0.3
0.05029297000000003,0.5217285150000001,0.333251955,0.5000090597423477,0.4999616960443046,0.5000267128750671,-7.2,30.15,17.55,0.25292969,0.521972655,0.9577636700000001,0.500015987739547,0.500006661572689,0.5000479632186411,90.45,0.75,69.75,0.020996095000000024,0.533691405,0.6154785150000001,0.49993744792320727,0.5000013989686619,0.5000413016459521,58.95,21.15,0.15
