IMU1_AccX,IMU1_AccY,IMU1_AccZ,IMU1_GyrX,IMU1_GyrY,IMU1_GyrZ,IMU1_MagX,IMU1_MagY,IMU1_MagZ,IMU2_AccX,IMU2_AccY,IMU2_AccZ,IMU2_GyrX,IMU2_GyrY,IMU2_GyrZ,IMU2_MagX,IMU2_MagY,IMU2_MagZ,IMU3_AccX,IMU3_AccY,IMU3_AccZ,IMU3_GyrX,IMU3_GyrY,IMU3_GyrZ,IMU3_MagX,IMU3_MagY,IMU3_MagZ
0.06274414000000002,0.568847655,0.27416992,0.49977057577169365,0.49996682539244336,0.4995159708928706,-9.45,27.75,15.6,0.203125,0.5222167950000001,0.919433595,0.5000276454917528,0.5000036638824322,0.4999509043244737,90.9,1.8,69.75,0.011474609999999984,0.53955078,0.610839845,0.5001024548413494,0.4999616960443046,0.49997581855048007,60.3,20.85,1.5
0.06298827999999998,0.55078125,0.291503905,0.4997402656857718,0.49996662555224397,0.4995058453652152,-9.45,27.75,15.6,0.19970702999999998,0.521972655,0.9140625,0.5000404357008437,0.4999998667441116,0.4999528361421563,91.35,0.15,69.15,0.010009765000000016,0.545410155,0.6120605450000001,0.5001079172855758,0.4999682909454162,0.49995430169512917,60.6,21.0,0.6
0.07324219,0.5400390650000001,0.30029297,0.4997517235977782,0.4999607634276188,0.49950777718289774,-8.25,28.65,15.75,0.205322265,0.5124511700000001,0.91357422,0.5000492289314147,0.50002617993878,0.49992998698972085,91.05,0.9,68.85,0.011962890000000016,0.5378417950000001,0.6115722650000001,0.50009825802263,0.49997994869762197,0.4999950704047942,58.5,19.35,0.15
0.08178710999999998,0.5256347650000001,0.305908205,0.49977297394135234,0.4999856110693143,0.49947486908711786,-9.6,26.7,15.75,0.213134765,0.51171875,0.92675781,0.5000406355410432,0.5000292443006141,0.4999408452938628,91.05,0.9,68.85,0.0078125,0.5358886700000001,0.616210935,0.5001052526914067,0.49999034073705423,0.49999786834211807,60.15,20.7,1.35
0.06372070500000002,0.5192871099999999,0.28857422,0.49979449079670324,0.5000059953805135,0.49953335760107953,-9.45,28.5,16.65,0.22583008000000002,0.5166015650000001,0.9611816400000001,0.5000239816093206,0.500039503084158,0.49997262102002393,91.05,0.9,68.85,0.007080080000000009,0.53515625,0.62060547,0.5000723445956269,0.4999938713635981,0.4999824801231691,60.3,20.1,1.5
0.04223633000000001,0.517089845,0.26586914,0.49982173660805734,0.4999707556993859,0.4995882489041865,-9.0,27.15,16.8,0.22778320500000002,0.5178222650000001,0.9611816400000001,0.5000143223463748,0.5000195183660909,0.49996535983947044,89.85,2.25,69.75,0.005126955000000009,0.5520019549999999,0.62548828,0.5000764080711914,0.4999946707243955,0.49997615164656783,60.3,20.1,1.5
0.05029297000000003,0.49609375,0.27685547,0.49982020447077347,0.49998654368600004,0.4996022381544735,-8.1,27.0,16.65,0.22998047000000002,0.5234375,0.928710935,0.500022715896547,0.49999453755577355,0.49996535983947044,91.65,0.75,68.7,0.006591794999999991,0.552246095,0.62890625,0.500070879042654,0.4999966692136555,0.49996129636390596,59.25,20.1,0.15
0.03125,0.474853515,0.27636719,0.4998033506988516,0.4999648269904498,0.4996830428845836,-8.25,28.95,16.5,0.22290039,0.51904297,0.9123535150000001,0.4999986010313381,0.4999680245209059,0.49995396859904145,91.35,0.15,70.95,0.01049804499999999,0.5458984400000001,0.6291503900000001,0.5000631515973908,0.499975951719102,0.4999898078007671,59.1,21.45,1.05
0.01953125,0.473876955,0.283203125,0.49988115773870495,0.49993778101929504,0.4997252105629105,-9.0,26.4,17.55,0.21997070500000002,0.5322265650000001,0.9084472650000001,0.5000188522611819,0.49999333842731103,0.49996649238362206,91.35,0.9,69.6,0.019775390000000014,0.560058595,0.63330078,0.5000385704674721,0.49997601839067946,0.4999786164005375,59.1,21.45,1.05
0.018066404999999976,0.485595705,0.299560545,0.4998865535986204,0.499931119446606,0.49975385525566013,-7.65,26.55,15.6,0.21875,0.5236816400000001,0.91357422,0.5000053292756045,0.4999778170397401,0.4999804816339091,90.15,1.5,69.0,0.029785154999999976,0.55078125,0.62841797,0.500039503084158,0.5000218499514386,0.4999676914248182,59.85,21.0,1.05
0.04418945500000001,0.493408205,0.317382815,0.4998877526398165,0.4999429770390112,0.49981594106774313,-7.65,26.55,15.6,0.228271485,0.5173339849999999,0.912109375,0.49999007431254394,0.49998427868496326,0.49999367152339874,90.45,0.3,69.0,0.015869140000000014,0.5485839849999999,0.6252441400000001,0.500048229730418,0.5000661492876476,0.49998427868496326,60.75,19.35,0.75
0.06713866999999998,0.5153808599999999,0.314208985,0.4999203277267751,0.49993385071235247,0.49981027869605094,-7.65,26.55,15.6,0.22216797000000002,0.5192871099999999,0.9147949200000001,0.5000117910080942,0.4999916730341387,0.5000083269658613,90.45,0.3,69.0,0.007324220000000025,0.54296875,0.6145019549999999,0.5000244479612966,0.5000706792024546,0.49996595944733496,59.1,20.7,2.4
0.07958984500000002,0.5192871099999999,0.32836914,0.49990760410199514,0.5000033973706555,0.49981027869605094,-7.65,26.55,16.05,0.21215820500000002,0.520996095,0.9162597650000001,0.4999946707243955,0.4999837457486762,0.5000042634030304,90.45,1.5,70.5,-0.0031738300000000094,0.53955078,0.608398435,0.4999997335754897,0.5000393698282696,0.5,60.0,19.05,0.15
0.10180664000000002,0.53125,0.318603515,0.4999275222357512,0.5000431668793237,0.49984478560069207,-7.95,26.4,16.8,0.21044922000000002,0.5222167950000001,0.93457031,0.5000087932305709,0.4999934716831994,0.5000318422232056,91.65,1.8,67.95,0.0009765649999999937,0.536621095,0.6110839849999999,0.49998341273985486,0.49999333842731103,0.4999963361175678,60.0,19.05,0.15
0.075195315,0.5256347650000001,0.302001955,0.4999533024068659,0.500062285565016,0.4999021416577687,-7.5,25.35,17.25,0.21337890499999998,0.5227050799999999,0.9479980450000001,0.4999832794839665,0.5000017986490606,0.5000063284766012,91.65,1.8,68.7,-0.0017089849999999843,0.53466797,0.61669922,0.49996869062581495,0.5000068614128884,0.5000002664245103,59.4,20.25,0.3
0.04003906499999999,0.51074219,0.287597655,0.4999431768792105,0.5001002565118899,0.49991226718542414,-8.25,27.9,17.85,0.21777343999999998,0.5078125,0.9453125,0.4999802817937098,0.49999293874691225,0.5000428338705024,91.65,1.8,68.7,0.002197265000000016,0.528808595,0.60986328,0.49999140660962843,0.4999826799633685,0.4999989341274258,59.4,20.25,0.3
0.021972654999999976,0.50439453,0.27319336,0.49994837289892663,0.5000721447554275,0.49993818069969376,-8.25,27.9,17.85,0.22778320500000002,0.510498045,0.9392089849999999,0.49998934153605745,0.4999831462280781,0.5000128567934019,91.2,1.5,69.0,0.014160154999999975,0.5300292950000001,0.6188964849999999,0.5000113912404289,0.4999531025666666,0.49998034837802074,59.4,21.45,0.6
0.017822265000000014,0.51904297,0.275146485,0.4999648269904498,0.5000277120760638,0.4999848782928278,-7.05,27.3,17.4,0.23120116999999998,0.51098633,0.9138183599999999,0.4999832128996555,0.5000003996803987,0.5000230489926347,89.1,1.8,69.0,0.020019529999999976,0.5280761700000001,0.623046875,0.500024780970118,0.49998601074971294,0.49999573659696966,58.8,21.0,0.6
0.018554689999999995,0.5361328150000001,0.276123045,0.49992425803371765,0.49999173970571614,0.49996749158461884,-7.95,27.15,15.75,0.236328125,0.515625,0.9250488299999999,0.49998727637522006,0.5000013322970845,0.4999951370763716,89.1,1.8,69.0,0.011230470000000025,0.5266113299999999,0.6228027349999999,0.500017519876831,0.5000181860690064,0.4999956700126587,60.15,21.0,-0.3
0.01293945500000001,0.5432128900000001,0.287597655,0.49993411713686275,0.4999292542132344,0.5000099256874561,-8.55,27.45,16.5,0.228515625,0.5202636700000001,0.92529297,0.49997961560153426,0.50000872664626,0.5000254471622935,90.75,-0.15,67.5,0.00854491999999999,0.5280761700000001,0.6232910150000001,0.5000234486730334,0.5000211171749521,0.49999213938611486,60.75,18.6,-0.45
0.02734375,0.544433595,0.28491211,0.4999165972600319,0.4999549012157273,0.4999970688940542,-8.55,27.45,16.5,0.21875,0.5178222650000001,0.9128417950000001,0.49998401226045297,0.5000094594227464,0.5000115244963174,90.15,0.3,68.7,0.010253904999999975,0.53076172,0.62890625,0.5000305765976986,0.5000249808975838,0.49999260565082454,59.4,20.25,0.6
0.04638672000000003,0.5471191400000001,0.29980469,0.49993018682992024,0.49993245174369055,0.5000405688694657,-7.5,28.2,16.8,0.228515625,0.520996095,0.908203125,0.49998481162125036,0.499986676854622,0.5000356393615264,91.95,0.75,68.7,0.017333984999999986,0.52685547,0.627441405,0.5000275122358644,0.5000059287962025,0.49997248776413555,58.8,20.25,0.3
0.06542969,0.561035155,0.30371094,0.49991966153459966,0.49998081472999684,0.49999993341568905,-6.9,28.2,17.25,0.22949218999999998,0.5224609400000001,0.90625,0.5000077940295742,0.4999924058106252,0.5000037970510541,91.95,0.75,68.7,0.015380859999999984,0.520996095,0.615234375,0.5000294441408134,0.5000269127152663,0.4999889417683923,58.8,20.25,0.3
0.09008789000000002,0.5544433599999999,0.313964845,0.4999209272473732,0.4999813476662839,0.49999553675677033,-7.35,27.3,16.35,0.21752929499999998,0.509765625,0.9138183599999999,0.5000123905286922,0.4999849448771388,0.5000013989686619,90.75,0.45,68.85,0.01953125,0.5266113299999999,0.604492185,0.5000498951235901,0.5000498284520127,0.4999835459084768,58.05,19.95,0.6
0.09155273499999998,0.5612792950000001,0.333496095,0.49994504211258206,0.5000011324568852,0.5000018652333716,-8.55,26.4,16.5,0.209228515,0.514160155,0.908203125,0.5000149218669728,0.5000357726174147,0.49999920063920256,90.9,0.75,68.4,0.008056640000000016,0.5202636700000001,0.612304685,0.5000626186611037,0.5000708123710765,0.49999766841465226,60.0,20.55,0.75
0.08666991999999998,0.5544433599999999,0.30053711,0.49992265922485635,0.5000491623471037,0.4999576324814737,-8.55,26.4,16.5,0.21166991999999998,0.50488281,0.936035155,0.5000103920394322,0.5000276454917528,0.49998727637522006,91.65,1.8,69.45,0.009277345000000025,0.5178222650000001,0.607421875,0.5000795390173365,0.5000690138092824,0.49999313858711164,60.0,21.6,0.75
0.05786133000000001,0.544921875,0.271972655,0.4999449755282711,0.5000350398409282,0.49996955665818976,-8.4,27.75,17.7,0.20825195500000002,0.5153808599999999,0.9304199200000001,0.49997308728473366,0.5000033973706555,0.49999960031960133,91.05,0.9,68.1,-0.004638669999999991,0.536621095,0.599121095,0.5000592212904482,0.5000633514375902,0.5000009326166858,59.4,20.25,0.6
0.03637695500000001,0.5324707049999999,0.270996095,0.49996309492570007,0.5000321087349825,0.5000183859092058,-6.6,27.3,16.05,0.204833985,0.5114746099999999,0.9147949200000001,0.4999824801231691,0.49997655132696656,0.4999790160809362,91.8,1.2,69.6,-0.004394529999999975,0.5295410150000001,0.6081542950000001,0.5000844686125423,0.4999990673833142,0.4999568331206763,59.4,20.7,0.0
0.03662109500000003,0.5402832049999999,0.274414065,0.4999441760802073,0.5000420344224386,0.49999207271453744,-7.35,27.3,17.4,0.216552735,0.51123047,0.91503906,0.5000050627638277,0.500000599520598,0.49999833460682774,91.65,0.3,69.45,0.013916015000000016,0.5263671900000001,0.6066894549999999,0.5000659494474482,0.49998827566348325,0.4999922725547368,59.4,18.75,0.3
0.03442383000000001,0.5480957049999999,0.282226565,0.49997322054062204,0.4999932051714226,0.49997475267790586,-7.35,27.3,17.4,0.22778320500000002,0.5146484400000001,0.916992185,0.49999034073705423,0.5000035306265439,0.49998501146144975,91.65,0.3,69.45,0.01489258000000001,0.5266113299999999,0.607421875,0.5000699464259681,0.500011324656118,0.499979882113311,59.4,18.75,0.3
0.04443359500000003,0.5612792950000001,0.28173828,0.4999694234023014,0.5000049295952058,0.4999771508475646,-8.4,26.25,16.05,0.23046875,0.5222167950000001,0.924316405,0.49999800151074,0.5000072610932871,0.4999882089919058,90.15,0.75,70.05,0.01635741999999999,0.53515625,0.60644531,0.5000725444358263,0.5000436998156108,0.49998094789861874,58.95,19.05,-0.75
0.06127929499999999,0.5705566400000001,0.27734375,0.4999687572973924,0.5000009326166858,0.4999620290531259,-8.1,28.5,17.1,0.16455077999999998,0.5124511700000001,0.947753905,0.5000927289068261,0.49989581318116744,0.4999661592875343,91.05,1.2,69.6,0.010253904999999975,0.5324707049999999,0.60546875,0.5000775406153429,0.5000103254551213,0.4999848782928278,58.95,19.05,-0.75
0.06884765499999998,0.5793457049999999,0.28515625,0.4999557672481021,0.49997894949662525,0.49995336907844334,-6.3,27.75,16.05,0.24267577999999998,0.517089845,0.9523925799999999,0.500024714385807,0.49997775036816267,0.4999493720999234,90.75,0.9,68.85,0.005126955000000009,0.5310058599999999,0.599121095,0.5000644838944752,0.5000233155044115,0.49997688442305427,58.95,19.05,-0.75
0.06616210999999998,0.58154297,0.30029297,0.4999240581935183,0.4999946707243955,0.49994244410272404,-7.5,27.45,16.5,0.24169922000000002,0.46850586,0.9592285150000001,0.49995603367261243,0.49997355363670976,0.4999644938943621,90.3,0.45,70.35,0.009277345000000025,0.5354003900000001,0.6145019549999999,0.500062152396394,0.5000357059458373,0.5000004663519761,59.4,19.95,0.3
0.06713866999999998,0.5808105450000001,0.296875,0.4999165305884545,0.500011324656118,0.4999509043244737,-7.5,27.45,16.5,0.20849609500000002,0.494873045,0.91503906,0.49999540350088195,0.49998687669482134,0.4999555674079027,91.65,2.25,67.95,-0.004638669999999991,0.541503905,0.620117185,0.5000466309215567,0.5000526263020701,0.4999581654177608,60.3,20.1,0.15
0.06713866999999998,0.56738281,0.279541015,0.4999451086968931,0.5000053292756045,0.4999403790291531,-8.4,28.05,15.6,0.21533202999999998,0.49951172000000005,0.9343261700000001,0.5000184524935167,0.5000011324568852,0.49993831395558214,91.35,1.65,68.85,-0.0017089849999999843,0.54248047,0.62207031,0.5000385037958948,0.5000241814495199,0.5000111914002296,60.6,19.5,0.6
0.05541991999999999,0.552734375,0.28076172,0.49993298467997765,0.5000111248159187,0.49992532390629185,-8.4,28.5,16.65,0.212646485,0.5056152349999999,0.9289550799999999,0.5000299104055231,0.49999460414008456,0.4999369149869202,91.35,1.65,68.85,0.01171875,0.53564453,0.6232910150000001,0.5000405688694657,0.5000182526533173,0.49998634375853424,59.25,19.05,0.15
0.03808593999999999,0.54345703,0.283203125,0.4999397128369776,0.5000155880591484,0.49992066082286285,-8.1,28.05,16.35,0.21582031499999998,0.505371095,0.9338378900000001,0.5000231822485232,0.49996962324250077,0.49993744792320727,88.65,0.3,70.05,0.006347654999999975,0.5476074200000001,0.6027832049999999,0.5000564234403908,0.5000449655283844,0.5000271791397767,59.7,19.8,-0.45
0.03588866999999999,0.5419921900000001,0.27734375,0.4999859440781355,0.4999723545082472,0.4999574992255853,-8.1,28.05,16.35,0.21337890499999998,0.5158691400000001,0.924316405,0.5000446991038741,0.49996296175707816,0.4999352495937479,90.75,0.15,68.55,0.012695314999999993,0.5498046900000001,0.607910155,0.5000516271010734,0.5000270459711548,0.49999786834211807,60.0,19.8,1.2
0.029052734999999986,0.5358886700000001,0.279785155,0.5000097925188342,0.4999750191024162,0.4999393131565789,-7.65,27.75,17.4,0.22363281499999998,0.5185546900000001,0.9147949200000001,0.500048895835327,0.4999589647785582,0.49994204442232537,90.15,0.3,68.7,0.013916015000000016,0.548828125,0.60107422,0.5000574226413875,0.5000166539317226,0.5000213835994626,60.0,19.8,1.2
0.027099609999999986,0.5322265650000001,0.28833008,0.5000146554424625,0.4999798154417336,0.4999513705891834,-8.4,29.25,16.65,0.23461914,0.5251464849999999,0.919921875,0.5000357726174147,0.4999832128996555,0.49990780394219453,90.15,0.3,68.7,0.025146484999999986,0.5368652349999999,0.6003417950000001,0.5000656830229379,0.5000647504062521,0.5000035972108549,60.0,19.8,0.15
0.03686523499999998,0.5319824200000001,0.291503905,0.500066215959225,0.49994857273912596,0.49997688442305427,-9.0,26.4,16.2,0.22802734500000002,0.5124511700000001,0.9235839849999999,0.5000248476416954,0.499975352198504,0.49991772971691706,90.15,0.3,68.7,0.019287109999999986,0.5283203150000001,0.59326172,0.500047430282354,0.500051493845185,0.49997182157196013,59.25,21.15,0.15
0.03515625,0.5302734400000001,0.298583985,0.5000572894727656,0.4999661592875343,0.4999245911298054,-7.5,27.9,16.8,0.23510741999999998,0.5173339849999999,0.916992185,0.5000483628990399,0.49998381242025364,0.49993791427518347,91.65,-0.75,69.0,0.025390625,0.5241699200000001,0.6042480450000001,0.5000580221619856,0.500033973968354,0.4999922059704259,60.15,19.95,-0.3
0.04370116999999999,0.5432128900000001,0.30126953,0.500055490823705,0.4999654930953588,0.4999225926405454,-7.5,27.9,16.8,0.228515625,0.5080566400000001,0.916015625,0.5000345734889522,0.4999771508475646,0.4999141990903732,90.3,1.2,68.85,0.018066404999999976,0.5187988299999999,0.599609375,0.5000699464259681,0.5000740099887991,0.4999982680225168,60.6,20.25,0.6
0.04467773499999998,0.54296875,0.30029297,0.5000807381457991,0.49993138587111635,0.49993744792320727,-7.5,27.9,17.25,0.21972656499999998,0.502441405,0.91894531,0.5000417014136173,0.5000008660323748,0.499933184520177,90.3,1.2,68.85,0.01293945500000001,0.5234375,0.6015625,0.5000701462661675,0.5000377044350973,0.4999760849749904,59.1,20.7,0.6
0.03540039000000002,0.53857422,0.296875,0.5000461646568469,0.4999901408968549,0.49994304362332215,-8.55,27.45,17.25,0.208984375,0.5078125,0.9128417950000001,0.5000215834396619,0.500003464042233,0.4999247243856938,91.35,-0.45,69.6,0.00854491999999999,0.529296875,0.6081542950000001,0.5000774073594546,0.5000251807377831,0.5000115244963174,60.3,19.35,0.45
0.03002929499999999,0.5334472650000001,0.28881836,0.5000393032439586,0.5000053292756045,0.4999515038450718,-6.9,27.45,16.2,0.21337890499999998,0.50317383,0.921875,0.5000173867082089,0.49997262102002393,0.4999116676648261,90.3,0.45,69.6,0.00024414000000001578,0.53173828,0.60107422,0.5000666822239346,0.5000312427026077,0.49997262102002393,60.3,19.35,0.45
0.03588866999999999,0.546875,0.28979492,0.5000585550982727,0.49998341273985486,0.4999623621492137,-6.9,27.45,16.2,0.20825195500000002,0.5114746099999999,0.92236328,0.5000527595579586,0.49997115546705106,0.4999205275669744,90.45,-0.3,68.4,0.003662109999999984,0.5363769549999999,0.6062011700000001,0.5000723445956269,0.5000506944843875,0.500000066584311,58.8,19.95,0.3
0.04077148499999998,0.5280761700000001,0.28979492,0.5000039303069426,0.49998887518408136,0.4999389134761802,-6.9,27.45,16.2,0.20556640499999998,0.5144042950000001,0.916992185,0.5000329080957798,0.4999774839436523,0.4999189954296906,90.45,-0.3,68.4,-0.0007324199999999905,0.544921875,0.606933595,0.5000620857248166,0.5000404357008437,0.49998587749382456,58.8,19.95,0.3
0.048828125,0.5236816400000001,0.29272461,0.500017919644496,0.5000277120760638,0.4999382472840047,-6.15,27.45,17.85,0.21118164,0.5148925799999999,0.9294433599999999,0.5000520267814721,0.4999646937345614,0.4999287878612583,91.65,-1.8,69.45,-0.005859375,0.5402832049999999,0.607910155,0.5000442994234754,0.500006062052091,0.4999910735135407,60.3,19.8,1.5
0.04785156499999999,0.5329589849999999,0.282226565,0.500031442542807,0.4999681577767943,0.4999679578493285,-6.9,26.7,15.45,0.21459961,0.5266113299999999,0.9401855450000001,0.5000341072242425,0.4999875428869968,0.49992998698972085,90.15,0.0,68.7,-0.013183594999999968,0.55517578,0.6096191400000001,0.5000323751594928,0.5000084602217496,0.4999756852945917,58.95,20.55,-0.45
0.041015625,0.53955078,0.282958985,0.4999880091517065,0.500024647801496,0.4999271891396635,-7.05,26.55,16.65,0.21215820500000002,0.5322265650000001,0.92919922,0.500029377469236,0.499984678365362,0.49992559033080214,89.85,-1.05,69.75,-0.00390625,0.5573730450000001,0.6096191400000001,0.5000365719782122,0.5000145888581515,0.49998987438507814,59.7,19.05,0.15
0.04711914000000002,0.5334472650000001,0.29199219,0.49997441958181815,0.4999822136113923,0.4999155313874577,-7.5,28.2,16.2,0.212646485,0.52734375,0.9133300799999999,0.5000219165357496,0.4999774172720749,0.4999327182554673,90.3,0.15,67.8,-0.0009765600000000063,0.56591797,0.60644531,0.500040036020445,0.4999948039802839,0.49998601074971294,60.0,20.55,-0.15
0.05078125,0.52294922,0.287597655,0.49997688442305427,0.4999856776536252,0.4999212603434609,-7.5,28.2,16.2,0.205078125,0.5134277349999999,0.92529297,0.5000103920394322,0.49998994105665556,0.4999476401224402,90.0,-0.45,68.85,0.0048828149999999935,0.5539550799999999,0.603515625,0.5000412350616411,0.49999886754311484,0.49998814240759487,59.25,19.8,-0.45
0.04614258000000001,0.51074219,0.28979492,0.49998501146144975,0.5000187190052935,0.4999140658344848,-7.2,25.65,15.75,0.21923827999999998,0.5178222650000001,0.924804685,0.5000091929982361,0.4999938047792871,0.4999523032058692,89.25,-0.15,70.65,-0.004638669999999991,0.55419922,0.5939941400000001,0.5000213170151515,0.5000147220267734,0.4999996669039123,59.25,19.35,-0.15
0.05346679499999999,0.51220703,0.291503905,0.4999723545082472,0.500029377469236,0.4999209272473732,-6.3,26.55,16.35,0.21020508000000002,0.5246582049999999,0.92626953,0.49998960796056774,0.49997182157196013,0.4999569662892982,89.25,-0.15,70.65,0.0048828149999999935,0.548828125,0.5949707049999999,0.500011324656118,0.5000087932305709,0.49995303598235563,59.25,19.35,-0.15
0.04248047000000003,0.5114746099999999,0.28515625,0.49998747630268586,0.500000599520598,0.499932518415268,-5.7,27.15,16.5,0.21435547000000002,0.5192871099999999,0.924316405,0.5000154548032599,0.49996682539244336,0.4999543682794401,90.0,1.2,68.85,0.01098633000000001,0.546875,0.6013183599999999,0.5000027312657465,0.5000031975304562,0.49997934917702397,59.4,19.5,-0.15
0.03613281499999999,0.506347655,0.29614258,0.499997401990142,0.49998101457019617,0.49996382770218656,-5.7,27.15,16.5,0.22778320500000002,0.53125,0.9138183599999999,0.4999864770144226,0.49996016381975433,0.49997488593379424,90.15,-0.3,70.05,0.014648439999999993,0.5437011700000001,0.60205078,0.5000029976902568,0.5000120574326045,0.4999810811545071,61.65,17.7,0.0
0.05639648499999998,0.5187988299999999,0.302001955,0.4999617626286156,0.49998401226045297,0.4999349164976602,-7.35,26.55,15.3,0.23706054499999998,0.5383300799999999,0.9138183599999999,0.5000018652333716,0.4999611631080176,0.500002598009858,90.3,-1.2,68.55,0.022460939999999995,0.5505371099999999,0.5866699200000001,0.49996036374722014,0.49998014853782136,0.49996502683064914,61.65,17.7,-1.05
0.05566406499999999,0.51171875,0.31616211,0.4999650934149601,0.49998034837802074,0.4999613629482169,-6.9,26.7,17.25,0.234375,0.5246582049999999,0.913085935,0.4999843453565407,0.49996662555224397,0.4999966692136555,89.85,-0.3,70.05,0.017333984999999986,0.54248047,0.5983886700000001,0.4999748192622168,0.49995603367261243,0.49999400461948645,60.75,19.35,-0.75
0.06372070500000002,0.5163574200000001,0.303222655,0.49998008195351035,0.5000041301471418,0.49996289508550074,-6.9,26.7,16.8,0.236083985,0.524902345,0.920410155,0.499993405011622,0.49997155514744973,0.49998687669482134,90.3,0.9,69.15,0.01953125,0.5417480450000001,0.6013183599999999,0.49997008959447686,0.49996349460609885,0.49996262866099045,60.15,18.45,0.0
0.05395508000000001,0.51220703,0.30126953,0.4999518369411595,0.500025313906405,0.4999405122850415,-7.65,27.3,16.05,0.23193359500000002,0.517089845,0.923339845,0.4999576324814737,0.4999880758232839,0.5000117243365167,91.65,-0.3,70.5,0.016113279999999976,0.55029297,0.604492185,0.49996555976693624,0.499975285614193,0.4999720880837369,60.15,18.0,0.3
0.05444335999999998,0.51171875,0.298095705,0.499984678365362,0.5000290443731483,0.499957898905984,-7.65,27.3,16.05,0.232666015,0.5139160150000001,0.919921875,0.4999590313628692,0.49998760947130777,0.4999966692136555,91.65,-0.3,70.5,0.013427734999999984,0.5498046900000001,0.6042480450000001,0.49990980243145444,0.49999007431254394,0.4999593644589569,59.85,18.45,-0.6
0.04809570500000001,0.517089845,0.301757815,0.49996122969232853,0.5000431002950128,0.49996382770218656,-7.65,28.5,16.65,0.22509765499999998,0.5041503900000001,0.9338378900000001,0.4999523032058692,0.4999602970756427,0.5000192519415806,91.65,-1.8,70.5,0.007080080000000009,0.5373535150000001,0.6174316400000001,0.499919728206177,0.49997055585918654,0.4999730207004227,59.85,18.45,-0.6
0.05126952999999997,0.5222167950000001,0.313476565,0.49994231084683566,0.5000750757741068,0.499941911166437,-7.65,27.0,16.35,0.21948241999999998,0.506591795,0.94189453,0.49995516772750404,0.4999868101105104,0.5000218499514386,90.0,0.15,70.65,0.011474609999999984,0.53076172,0.6086425799999999,0.4999021416577687,0.4999901408968549,0.4999882089919058,59.25,20.55,0.15
0.05078125,0.515625,0.32421875,0.49995756580989625,0.5000885321753732,0.4999503713881866,-7.65,26.55,16.65,0.2265625,0.50488281,0.9401855450000001,0.49997322054062204,0.49997648465538913,0.5000255137466044,91.8,-0.9,68.55,0.006103515000000016,0.52294922,0.6125488299999999,0.4999082702941706,0.49995949771484527,0.49997961560153426,59.25,20.55,0.15
0.06689452999999998,0.53173828,0.303466795,0.49994337671940986,0.5000725444358263,0.49994737369792985,-7.65,26.55,16.65,0.23388672000000002,0.49902344,0.92626953,0.49997408648573044,0.49996209572470335,0.5000010658725742,91.8,-0.9,68.55,0.005371095000000025,0.5173339849999999,0.6208496099999999,0.4999114012403158,0.4999173300365183,0.49998887518408136,60.3,19.05,-0.75
0.05712890499999997,0.515625,0.29980469,0.49991959495028865,0.5000785398163398,0.4999247243856938,-7.95,26.1,16.2,0.23681640499999998,0.49536133,0.9206542950000001,0.4999837457486762,0.49995443495101755,0.5000063950609122,91.65,-0.75,68.4,0.014648439999999993,0.5256347650000001,0.615722655,0.49993864705166985,0.49993365087215313,0.4999880091517065,59.85,19.5,-0.3
0.037109375,0.517578125,0.28808594,0.4999236585131196,0.5000680145210191,0.4999488391636363,-6.15,26.4,15.75,0.228515625,0.48901367,0.9270019549999999,0.4999835459084768,0.4999630283413891,0.5000388368919825,89.85,-1.5,69.45,0.01879883000000001,0.52734375,0.6120605450000001,0.49994304362332215,0.49997035601898715,0.49996296175707816,61.2,19.95,-1.05
0.04467773499999998,0.52001953,0.29199219,0.49993018682992024,0.500052826229536,0.49993191880740345,-9.6,26.7,16.5,0.224609375,0.493896485,0.9455566400000001,0.4999731538690446,0.4999861439183349,0.5000270459711548,89.85,-1.5,69.45,0.01049804499999999,0.52685547,0.6174316400000001,0.49992832159654865,0.49996322818158856,0.5000193851102025,60.3,19.35,0.45
0.033203125,0.51611328,0.276123045,0.49990314085876547,0.5000663491278469,0.4999275222357512,-7.2,28.95,16.2,0.224609375,0.48095702999999995,0.958496095,0.49998601074971294,0.4999848782928278,0.5000103254551213,91.2,-1.05,70.8,0.007080080000000009,0.5263671900000001,0.6340332049999999,0.49990813703828224,0.49997668449558846,0.4999616960443046,60.6,19.95,0.0
0.02270508000000001,0.50732422,0.25830078,0.4999431768792105,0.5000190521013812,0.49995456811963945,-7.2,28.95,16.2,0.22778320500000002,0.48974609500000005,0.9528808599999999,0.4999624288207911,0.4999588315226698,0.5000207840788644,89.4,0.75,70.5,0.013183595000000025,0.5339355450000001,0.6286621099999999,0.49989981007242096,0.4999642273825852,0.49998534455753746,60.15,19.2,-0.3
0.01440429499999999,0.5119628900000001,0.26953125,0.4999479732185279,0.4999858109095136,0.4999631615972775,-8.55,27.45,16.8,0.236083985,0.483398435,0.939453125,0.4999828131319904,0.49998727637522006,0.4999927389067129,91.35,-1.65,70.35,0.007568359999999984,0.5363769549999999,0.6252441400000001,0.49989288207522165,0.49998454519674007,0.4999679578493285,60.15,19.2,-0.3
0.017089845000000024,0.5078125,0.27685547,0.49994244410272404,0.4999832794839665,0.49992265922485635,-7.95,26.1,15.75,0.236572265,0.48974609500000005,0.9606933599999999,0.4999961362773684,0.49999393794790903,0.500018052813118,91.35,-1.65,70.35,0.011962890000000016,0.5383300799999999,0.6208496099999999,0.49987449616601587,0.49996156278841625,0.49998734304679743,59.25,19.35,0.45
0.01953125,0.5036621099999999,0.286865235,0.4999704892748756,0.49992359192880864,0.4999277886602615,-7.95,27.45,16.5,0.256103515,0.48681640499999995,0.959960935,0.5000029976902568,0.4999746860935949,0.5000239150250096,91.35,-1.65,70.35,0.02270508000000001,0.5373535150000001,0.6291503900000001,0.4999124004413125,0.49995823200207173,0.5000045964991181,59.1,19.2,0.6
0.02734375,0.5017089849999999,0.286132815,0.4999661592875343,0.4999033406989648,0.49994770670675115,-7.95,27.45,16.5,0.24145508000000002,0.489990235,0.91748047,0.49999260565082454,0.49995963097073365,0.5000173200366316,90.0,-0.45,70.95,0.015380859999999984,0.5322265650000001,0.6169433599999999,0.49987709417587395,0.49999460414008456,0.49999593643716905,59.85,18.45,-0.3
0.04980468999999999,0.491210935,0.299316405,0.49992712255535254,0.4999294540534338,0.49994957194012274,-6.6,27.0,16.65,0.23193359500000002,0.494873045,0.8894042950000001,0.5000053292756045,0.49999500382048323,0.5000347733291515,90.3,-1.65,69.15,0.015136720000000025,0.5322265650000001,0.61328125,0.49990294101856614,0.500005196019716,0.4999916730341387,60.0,19.05,1.2
0.05346679499999999,0.49536133,0.28857422,0.4999897412164561,0.49989234913893454,0.49995876493835884,-7.35,28.05,16.35,0.22119140499999998,0.501464845,0.9172363299999999,0.5000079272854626,0.5000178529729187,0.5000410352214418,91.2,-0.3,69.45,0.01831054499999999,0.5256347650000001,0.61279297,0.4998870199505965,0.5000013989686619,0.499993271843,60.3,19.8,0.45
0.04931640499999997,0.486572265,0.28442383,0.4999949372361723,0.4999172633649409,0.49996089659624077,-7.5,27.45,16.8,0.22338866999999998,0.50048828,0.9372558599999999,0.5000146554424625,0.5000231155769457,0.5000139892502871,90.45,0.3,70.5,0.005126955000000009,0.5302734400000001,0.60986328,0.49991366615408606,0.5000257802583812,0.5000003330960877,61.05,18.6,0.15
0.046875,0.484375,0.27294922,0.49997668449558846,0.4999068713255087,0.49993977950855506,-7.5,26.7,16.5,0.21826172000000002,0.497802735,0.9406738299999999,0.4999860773340239,0.5000384372115838,0.5000382373713844,89.4,-0.3,70.8,0.005859375,0.533203125,0.6027832049999999,0.4999054724441132,0.49999713556563163,0.5000141890904864,61.05,18.6,0.15
0.05029297000000003,0.48974609500000005,0.279785155,0.5000091929982361,0.4998982113508262,0.4999660260316459,-7.5,26.7,16.5,0.20239258000000002,0.506835935,0.9147949200000001,0.5000067948285775,0.4999964027891452,0.5000155880591484,91.05,-1.2,70.65,-0.004638669999999991,0.5251464849999999,0.6115722650000001,0.49992845485243703,0.49998827566348325,0.49998294638787877,59.25,20.55,0.45
0.06298827999999998,0.50048828,0.28515625,0.5000049295952058,0.4999435765596092,0.4999750191024162,-6.6,27.75,17.4,0.20410156499999998,0.505371095,0.931152345,0.5000147220267734,0.4999941377881084,0.5000442327518979,91.05,-1.2,70.65,-0.005615234999999984,0.5270996099999999,0.6015625,0.49992185986405896,0.4999958031812807,0.5000291776290366,59.25,20.55,0.45
0.05761718999999999,0.5075683599999999,0.302246095,0.4999782167201388,0.49998174734668266,0.4999842121006523,-7.2,27.15,16.5,0.21362304499999998,0.501464845,0.928710935,0.49999646937345615,0.4999700230101659,0.5000412350616411,90.45,-0.3,71.25,-0.0009765600000000063,0.51953125,0.6013183599999999,0.49993118603091696,0.49996729174441945,0.5000045298275406,59.25,20.55,0.45
0.06127929499999999,0.51098633,0.309814455,0.5000185191650941,0.499984678365362,0.4999914731939394,-5.55,27.75,18.15,0.21020508000000002,0.497070315,0.9328613299999999,0.5000009992009967,0.49997082237096335,0.5000299104055231,90.45,0.0,70.8,-0.008056640000000016,0.5187988299999999,0.6047363299999999,0.4999215267679712,0.49992858802105894,0.5000139226659761,60.15,19.5,0.0
0.06958008000000002,0.520996095,0.310546875,0.5000135229855773,0.5000123238571148,0.4999993338078245,-5.55,27.75,18.15,0.21875,0.501464845,0.921875,0.5000006661921754,0.49997248776413555,0.5000458981450702,91.35,-0.45,69.9,-0.005615234999999984,0.5080566400000001,0.60644531,0.4999073376774848,0.49995623351281177,0.5000142557620638,59.85,19.95,0.6
0.05371093999999999,0.51904297,0.302001955,0.49999420445968584,0.5000840689321436,0.49998900843996974,-5.55,27.75,18.15,0.22680664,0.49926758,0.93847656,0.4999928054910239,0.4999990007990032,0.5000442994234754,90.9,1.5,70.5,0.006347654999999975,0.5119628900000001,0.612304685,0.4999229923209441,0.4999806148897975,0.5000350398409282,60.9,19.2,0.0
0.03198241999999999,0.50463867,0.29272461,0.5000033307863445,0.5000425007744147,0.4999968690538548,-7.05,25.8,17.7,0.22338866999999998,0.494384765,0.9453125,0.49998720979090905,0.4999897412164561,0.5000353062654386,91.95,-0.3,70.8,-0.0026855449999999906,0.5163574200000001,0.6110839849999999,0.49990587212451193,0.4999808813143078,0.5000209839190638,60.0,19.35,0.75
0.006103515000000016,0.498046875,0.28857422,0.5000149885385503,0.5000224494720368,0.49999473739597294,-6.45,26.7,16.8,0.23022461,0.48876952999999995,0.9367675799999999,0.4999870099507097,0.4999938713635981,0.5000472971137321,91.95,-1.05,71.25,0.007080080000000009,0.5185546900000001,0.6154785150000001,0.4999205275669744,0.49993071976620734,0.5000108583041419,61.05,18.6,0.45
-0.014892579999999952,0.50854492,0.287109375,0.49995996397955494,0.49999593643716905,0.5000095926786348,-7.95,26.1,16.8,0.23754883000000002,0.498046875,0.9235839849999999,0.5000078606138851,0.49999173970571614,0.5000574226413875,91.95,-1.05,71.25,0.02465820500000001,0.5146484400000001,0.62060547,0.4999339172966634,0.4999513040048724,0.49999766841465226,59.85,18.75,1.65
-0.001953125,0.5036621099999999,0.31176758,0.4999930053312232,0.49995516772750404,0.500031375958496,-6.9,27.45,15.75,0.24438476499999998,0.498046875,0.9235839849999999,0.5000011324568852,0.4999730207004227,0.5000472304421547,91.35,-0.45,70.65,0.025146484999999986,0.525390625,0.62548828,0.4999644938943621,0.4999646937345614,0.5000295107251244,59.85,18.75,1.65
0.027099609999999986,0.5139160150000001,0.30126953,0.49999573659696966,0.49992319216114345,0.500020051302378,-6.9,27.45,15.75,0.24365234500000002,0.508789065,0.91113281,0.5000015988088613,0.49998401226045297,0.50002145027104,90.9,-1.05,70.5,0.03588866999999999,0.5280761700000001,0.615234375,0.49996122969232853,0.4999997335754897,0.500020117886689,61.65,21.0,2.1
0.04589843999999999,0.5080566400000001,0.31689453,0.4999529693980447,0.4999548346314163,0.5000311095339858,-7.5,27.15,16.2,0.24487304499999998,0.5192871099999999,0.908203125,0.4999798154417336,0.5000271125554657,0.5000371049144993,90.45,-0.3,70.8,0.029541015000000014,0.5354003900000001,0.62207031,0.4999393131565789,0.5000507610686985,0.5000366385625231,61.65,21.0,2.1
0.05566406499999999,0.52294922,0.30444336,0.4999366485624099,0.4999835459084768,0.5000273789799761,-7.5,25.65,17.55,0.23193359500000002,0.52001953,0.9196777349999999,0.5000018652333716,0.5000284448525503,0.5000567565364785,90.45,-0.3,70.8,0.022949220000000024,0.5354003900000001,0.6101074200000001,0.499957898905984,0.5000443660077863,0.5000136562414658,59.7,19.05,1.5
0.0625,0.5173339849999999,0.29248047,0.49995669986478786,0.4999678912650175,0.5000328415114689,-7.35,27.3,17.4,0.23852539,0.529785155,0.927246095,0.4999943377155742,0.5000513606765631,0.5000699464259681,91.05,0.45,70.65,0.01440429499999999,0.536621095,0.614746095,0.49993784760360604,0.5000589548659379,0.5000073943491754,59.85,19.5,1.35
0.04589843999999999,0.51513672,0.30029297,0.49993758117909565,0.4999958698528581,0.4999966692136555,-7.35,27.3,17.4,0.21411133000000002,0.517089845,0.9353027349999999,0.4999737534769091,0.5000249142260064,0.5000654831827385,91.35,-1.2,70.35,0.007080080000000009,0.5441894549999999,0.6101074200000001,0.49993378404077504,0.500019984718067,0.5000219165357496,61.05,20.1,0.45
0.033203125,0.502685545,0.302001955,0.49994863932343697,0.5000073943491754,0.5000106584639425,-6.9,27.15,17.55,0.228515625,0.5134277349999999,0.955078125,0.5000040635628309,0.5000170536121212,0.5000405022851547,91.35,-1.2,70.35,0.0029296899999999935,0.5417480450000001,0.62158203,0.4999223262160351,0.4999856110693143,0.500030776437898,59.7,19.35,0.15
0.02807616999999999,0.5126953150000001,0.297851565,0.4999648269904498,0.4999678912650175,0.5000129234649794,-7.35,25.5,16.05,0.224365235,0.501220705,0.9558105450000001,0.5000083935501722,0.49999353826751036,0.5000667488082455,89.4,0.3,70.8,0.004394529999999975,0.529296875,0.62548828,0.4999515038450718,0.4999592312030685,0.4999990007990032,59.7,19.35,0.15
0.03173827999999997,0.5187988299999999,0.294921875,0.49995370217453117,0.4999875428869968,0.49997735068776394,-7.5,27.45,17.25,0.22534179499999998,0.49951172000000005,0.939453125,0.500015321634638,0.5000027312657465,0.5000630183415024,90.3,0.45,70.65,-0.0017089849999999843,0.53173828,0.627929685,0.49992359192880864,0.49995430169512917,0.5000255137466044,60.15,20.25,1.65
0.03417968999999999,0.52734375,0.30078125,0.4999676248405072,0.499970689115075,0.49999600302148,-8.1,27.3,16.65,0.22314452999999998,0.50317383,0.947265625,0.4999925390665136,0.49998174734668266,0.5000762749025695,90.3,-0.9,70.65,0.004394529999999975,0.525878905,0.6306152349999999,0.49992079399148476,0.4999673583287304,0.5000349731693509,60.15,20.25,1.65
0.03442383000000001,0.5275878900000001,0.29760742,0.4999949372361723,0.4999606301717304,0.5000355727772153,-8.1,27.3,16.65,0.23583984500000002,0.50830078,0.93359375,0.4999887419281929,0.49999400461948645,0.5000810045703094,90.3,-0.9,70.65,-0.0026855449999999906,0.5263671900000001,0.6394042950000001,0.49992046098266346,0.4999767511671659,0.5000370382429218,59.25,19.8,1.5
0.0390625,0.5280761700000001,0.298583985,0.49995776573736206,0.4999762182308788,0.5000195849504019,-7.2,27.9,16.8,0.22998047000000002,0.5061035150000001,0.9216308599999999,0.4999916730341387,0.49998361258005425,0.500084335356654,90.9,1.05,71.55,0.004638669999999991,0.5224609400000001,0.6291503900000001,0.49991146782462675,0.4999895413762568,0.5000271125554657,59.25,21.6,0.75
0.04077148499999998,0.5119628900000001,0.302001955,0.4999477733783286,0.4999951370763716,0.5000071278373986,-7.95,27.15,16.2,0.22387695500000002,0.49902344,0.912597655,0.4999910735135407,0.499986610270311,0.5000854012292282,91.2,0.3,70.05,0.010253904999999975,0.5217285150000001,0.6311035150000001,0.4999035405391642,0.5000006661921754,0.5000285115241276,60.9,21.45,1.05
0.03247070500000001,0.51220703,0.3046875,0.4999791493368246,0.49998014853782136,0.5000387703076715,-6.6,27.3,17.4,0.22631836,0.50732422,0.928222655,0.49998900843996974,0.5000017986490606,0.5000796722732249,91.2,0.3,70.05,0.015869140000000014,0.525878905,0.6247558599999999,0.49992845485243703,0.500013323145378,0.5000490956755264,59.1,21.45,-0.6
0.03588866999999999,0.50732422,0.298339845,0.4999694900738788,0.49998188051530457,0.5000299769898341,-6.6,27.3,17.4,0.23486327999999998,0.5095214849999999,0.93408203,0.4999895413762568,0.5000342403928644,0.5000691469779043,90.3,0.9,72.0,0.009765625,0.5251464849999999,0.6179199200000001,0.49993558268983573,0.5000344402330638,0.500053425750134,60.0,20.85,1.5
0.04394531499999999,0.51074219,0.29370117,0.49997788362405104,0.49997035601898715,0.500037438010587,-6.0,25.8,16.05,0.224853515,0.5080566400000001,0.939453125,0.4999904073213652,0.5000339073840431,0.500080271793823,89.4,0.75,70.05,0.017822265000000014,0.5378417950000001,0.606933595,0.49992499081020414,0.500017519876831,0.5000185191650941,60.3,20.85,1.5
0.04589843999999999,0.5224609400000001,0.294921875,0.499991339938051,0.4999660260316459,0.5000392365723811,-6.3,26.25,16.65,0.21875,0.509033205,0.9245605450000001,0.49997874965642586,0.5000157878993476,0.5000729441162249,90.75,0.9,70.65,0.008300779999999975,0.5354003900000001,0.61376953,0.49989861103122485,0.5000051294354051,0.5000297105653237,60.3,20.85,1.5
0.04956054499999999,0.51953125,0.29272461,0.49998740963110844,0.5000063284766012,0.5000293108849251,-5.25,26.25,17.1,0.21362304499999998,0.50854492,0.9201660150000001,0.4999723545082472,0.5000281117564624,0.5000700130102791,90.75,0.9,70.65,0.008789064999999993,0.5368652349999999,0.614746095,0.4999176631326061,0.5000132564738006,0.5000117910080942,60.3,20.85,1.5
0.05078125,0.5236816400000001,0.29614258,0.4999877427271962,0.5000359057860366,0.5000255137466044,-6.6,27.3,15.6,0.21752929499999998,0.5119628900000001,0.9396972650000001,0.4999767511671659,0.5000191852700031,0.5000877328145759,90.3,1.2,69.9,0.005859375,0.5383300799999999,0.612304685,0.49988801915159325,0.5000097925188342,0.5000165872601451,61.05,20.55,0.75
0.05249023499999998,0.5302734400000001,0.29614258,0.5000053958599154,0.500018585749405,0.500053425750134,-6.6,27.3,15.6,0.22167968999999998,0.513183595,0.936523435,0.4999835459084768,0.5000145888581515,0.5000768744231675,89.85,0.75,70.5,0.0034179700000000254,0.53564453,0.6145019549999999,0.4999179295571164,0.5000249142260064,0.5000140559218645,59.7,21.6,1.2
0.06152343999999999,0.53857422,0.302246095,0.4999788828250478,0.5000512940049857,0.5000417679979283,-6.3,28.05,16.65,0.22265625,0.50830078,0.9191894549999999,0.4999862771742233,0.4999906071615645,0.5000732105407353,91.65,1.8,69.45,0.008789064999999993,0.5432128900000001,0.620117185,0.49989374810759646,0.5000165206758341,0.5000213835994626,59.4,20.25,1.35
0.072265625,0.5383300799999999,0.30908203,0.4999941377881084,0.500073477052512,0.5000215168553509,-6.15,27.45,17.25,0.23803711,0.50854492,0.9299316400000001,0.49998347932416587,0.49998507813302717,0.5000961263647481,91.65,1.8,69.45,0.01245116999999999,0.532714845,0.615234375,0.49990966926283253,0.4999907404174529,0.5000301769172999,58.5,21.9,0.75
0.083007815,0.5495605450000001,0.306396485,0.4999731538690446,0.5000476967941307,0.5000455650489825,-5.55,26.55,17.7,0.22998047000000002,0.51904297,0.916503905,0.5000023315853478,0.49999913396762513,0.5000784732320288,91.05,1.95,71.7,0.018554689999999995,0.5310058599999999,0.6171875,0.4999143323462616,0.5000289112045264,0.5000365053939012,59.85,22.2,1.65
0.08544922000000002,0.5390625,0.318115235,0.4999349164976602,0.5000968591412345,0.500017519876831,-5.55,26.55,17.7,0.23828125,0.51611328,0.9299316400000001,0.49999553675677033,0.4999744862533956,0.5000703461063668,89.1,-0.75,70.8,0.015625,0.51611328,0.5998535150000001,0.49989794483904937,0.5000365053939012,0.5000232488328341,59.7,21.6,1.8
0.083007815,0.54638672,0.322265625,0.4999179295571164,0.5000920628019171,0.49999307200280063,-7.2,27.45,15.45,0.23486327999999998,0.5002441400000001,0.93408203,0.4999828131319904,0.49999813476662835,0.5000738101485998,90.3,0.9,71.4,0.025634765000000014,0.5134277349999999,0.6042480450000001,0.49989994332830934,0.5000720114995392,0.5000115910806283,59.7,21.6,1.8
0.08105469,0.5500488299999999,0.31201172,0.4999581654177608,0.5000862672616029,0.5000084602217496,-6.9,26.1,17.25,0.22192383000000002,0.502441405,0.943847655,0.49998674352619943,0.5000186523337161,0.500062218980705,90.3,0.9,71.4,0.013183595000000025,0.5100097650000001,0.599609375,0.49990980243145444,0.5000678146808197,0.5000498951235901,59.7,22.35,1.5
0.04980468999999999,0.5324707049999999,0.295166015,0.49993778101929504,0.500099723575603,0.49999813476662835,-9.3,26.7,17.55,0.239990235,0.494140625,0.9519042950000001,0.499993271843,0.5000099256874561,0.5000644173101643,90.0,0.9,70.35,0.005615234999999984,0.51074219,0.6149902349999999,0.4999091363265455,0.5000177863886077,0.5000301769172999,59.7,22.35,1.5
0.026855470000000024,0.52685547,0.28100586,0.49992832159654865,0.5000793391771372,0.4999877427271962,-7.05,27.75,17.4,0.23583984500000002,0.49511719,0.9152832049999999,0.4999723545082472,0.5000071945089761,0.500033441032067,91.8,1.2,69.9,0.021240234999999986,0.5114746099999999,0.62548828,0.49994204442232537,0.5000150551228613,0.500040102604756,60.3,21.6,1.2
0.010253904999999975,0.5285644549999999,0.267089845,0.4999546347912169,0.500034840000729,0.5000369716586108,-7.05,27.75,17.4,0.23144531499999998,0.5124511700000001,0.91894531,0.4999948039802839,0.4999943377155742,0.5000343736487528,90.45,1.5,70.05,0.019042970000000024,0.5227050799999999,0.62890625,0.4999401125173763,0.5000244479612966,0.5000248476416954,58.35,21.0,1.05
-0.0009765600000000063,0.5300292950000001,0.27026367,0.4999495053558118,0.5000033307863445,0.49997721743187556,-6.15,26.7,16.8,0.232421875,0.49926758,0.9187011700000001,0.5000109915600303,0.5000244479612966,0.5000384372115838,89.85,0.75,70.5,0.01831054499999999,0.5197753900000001,0.6242675799999999,0.49997155514744973,0.5000437664871883,0.5000432335509012,58.8,20.25,1.65
-0.007324220000000025,0.5339355450000001,0.270507815,0.4999590313628692,0.4999878759830846,0.500006661572689,-7.95,26.7,15.45,0.23779297000000002,0.514160155,0.9289550799999999,0.5000065283168006,0.5000515605167625,0.5000368384027225,91.2,-0.3,70.5,0.01684570500000001,0.5234375,0.6208496099999999,0.49996189588450396,0.5000720780838501,0.5000211837592632,59.1,22.5,0.6
-0.0048828100000000065,0.5344238299999999,0.279052735,0.49999993341568905,0.49991979479048804,0.5000322419908709,-7.65,27.3,15.6,0.24731445500000002,0.5236816400000001,0.9279785150000001,0.4999977350862297,0.5000161875797464,0.5000241814495199,90.75,1.65,69.9,0.017578125,0.5314941400000001,0.62890625,0.49996575960713563,0.5000999234158022,0.5000234486730334,60.75,21.15,1.5
0.015380859999999984,0.540527345,0.28881836,0.49997288744453433,0.49989754515865065,0.5000309096065199,-7.65,27.3,15.6,0.24536133000000002,0.5241699200000001,0.9255371099999999,0.4999783498887607,0.5000251140662058,0.5000404357008437,90.75,1.65,69.9,0.017578125,0.5314941400000001,0.626464845,0.49997035601898715,0.500082869803681,0.5000075276050638,60.3,21.6,1.5
0.03881835999999998,0.5358886700000001,0.313720705,0.4999609632678182,0.49993684840260927,0.500020051302378,-7.65,27.3,15.6,0.23559570500000002,0.52685547,0.9270019549999999,0.500017986228807,0.5000006661921754,0.5000407687969315,90.3,1.2,70.65,0.006591794999999991,0.5407714849999999,0.6218261700000001,0.4999713553072504,0.500079605688914,0.5000001998401994,60.3,21.6,1.5
0.064453125,0.5363769549999999,0.32788086,0.4999754188700814,0.49995203678135886,0.5000457648891817,-6.3,28.05,16.35,0.22558593999999998,0.521972655,0.9255371099999999,0.49999873428722647,0.5000242481210974,0.5000286446927495,90.3,0.9,70.95,0.01293945500000001,0.5378417950000001,0.6218261700000001,0.4999961362773684,0.5000566232805902,0.5000171201964322,60.9,21.75,1.65
0.08081054499999998,0.537597655,0.334472655,0.49999800151074,0.4999600972354434,0.5000492955157256,-6.6,28.05,16.35,0.21484375,0.5202636700000001,0.9240722650000001,0.4999885420879936,0.5000043299873413,0.5000517603569617,90.0,1.2,69.6,0.008300779999999975,0.53173828,0.6135253900000001,0.4999943377155742,0.500062218980705,0.5000415015734179,59.4,22.2,1.65
0.07592773499999998,0.5341796900000001,0.31274414,0.4999835459084768,0.500035372937016,0.500015321634638,-8.25,28.65,16.5,0.2109375,0.51074219,0.93017578,0.499997401990142,0.5000177197170302,0.5000500949637895,90.0,1.2,69.6,0.0029296899999999935,0.53564453,0.61816406,0.49997248776413555,0.5000634181091675,0.5000576224815869,60.15,21.45,1.05
0.016601564999999995,0.5334472650000001,0.28491211,0.5000195849504019,0.4999994004794019,0.5000678813523972,-6.6,28.5,17.7,0.22119140499999998,0.510253905,0.928222655,0.5000224494720368,0.5000085268060606,0.5000524264618708,90.9,1.8,69.45,0.0009765649999999937,0.5324707049999999,0.62451172,0.49998361258005425,0.5000438996558102,0.5000245145456076,60.0,21.15,0.45
-0.004638669999999991,0.5441894549999999,0.27294922,0.5000387703076715,0.5000074609334864,0.50008753288711,-6.6,28.5,17.7,0.212890625,0.5126953150000001,0.9362792950000001,0.500017986228807,0.5000321087349825,0.5000229157367464,89.55,0.15,69.6,0.0009765649999999937,0.5234375,0.6203613299999999,0.49998427868496326,0.500051427260874,0.5000336408722663,59.7,21.15,2.25
-0.00854491999999999,0.5283203150000001,0.271972655,0.500051493845185,0.4999824801231691,0.5000499617079011,-7.2,27.15,17.25,0.21899414,0.49682617,0.9348144549999999,0.5000206508229761,0.5000009326166858,0.5000347067448405,89.55,0.15,69.6,0.00048827999999997475,0.524902345,0.6110839849999999,0.4999716884033381,0.5000346401605296,0.5000158544836586,59.1,21.0,1.05
0.021240234999999986,0.5363769549999999,0.27734375,0.5000301102457225,0.4999334510319538,0.5000814709222855,-8.4,28.5,17.1,0.220703125,0.501464845,0.9211425799999999,0.500031309374185,0.500026779459378,0.5000198514621786,90.75,0.9,69.9,0.0029296899999999935,0.5222167950000001,0.619628905,0.4999828798035678,0.5000018652333716,0.4999994004794019,59.1,21.0,1.05
0.0546875,0.541503905,0.306396485,0.500037438010587,0.49992399160920736,0.5000580221619856,-6.6,27.75,16.05,0.21435547000000002,0.51513672,0.9191894549999999,0.5000376378507864,0.5000330413516683,0.5000059287962025,89.1,0.3,71.25,0.001953125,0.5197753900000001,0.6247558599999999,0.49999500382048323,0.500015388218949,0.5000551577276172,59.1,21.0,1.05
0.08935547000000002,0.5478515650000001,0.32470703,0.5000229157367464,0.4999754188700814,0.5000382373713844,-6.6,27.75,16.05,0.228759765,0.510498045,0.9362792950000001,0.5000549578874179,0.5000552909835057,0.5000431668793237,90.45,1.05,71.25,-0.005126955000000009,0.5205078150000001,0.6135253900000001,0.4999990007990032,0.5000190521013812,0.5000355727772153,59.25,21.6,1.8
0.08715820500000002,0.557128905,0.31542969,0.5000628851728804,0.5000013989686619,0.5000569563766779,-8.25,28.95,17.85,0.23046875,0.5241699200000001,0.9587402349999999,0.5000464310813573,0.5000280451721515,0.500007327677598,90.45,1.05,71.25,0.0009765649999999937,0.52783203,0.60595703,0.49998341273985486,0.5000229824083238,0.5000538254305328,59.25,21.6,1.8
0.05859375,0.56591797,0.310058595,0.5000618858846172,0.5000429004548135,0.5000412350616411,-6.9,27.45,16.2,0.22534179499999998,0.5251464849999999,0.932128905,0.5000406355410432,0.5000163208356349,0.5000131233051787,90.3,1.2,69.6,-0.00024414000000001578,0.5270996099999999,0.61767578,0.49998967454487875,0.4999862105899123,0.5000375045948979,58.95,21.9,0.75
0.03784179499999999,0.5615234400000001,0.303466795,0.5000493621873031,0.5000692802337926,0.5000242481210974,-7.65,28.05,16.05,0.22265625,0.5290527349999999,0.9323730450000001,0.5000255137466044,0.5000189188454929,0.49999673579796644,90.3,0.9,69.9,0.009765625,0.54248047,0.62451172,0.4999807480584194,0.5000151883787497,0.5000480964745295,59.4,21.0,1.35
0.037109375,0.568847655,0.3046875,0.5000337741281548,0.5000346401605296,0.5000357059458373,-7.35,28.8,17.4,0.27416992,0.5263671900000001,0.95654297,0.49999393794790903,0.4998515804292695,0.5000089930707703,90.3,0.9,69.9,0.01831054499999999,0.5498046900000001,0.6164550799999999,0.4999901408968549,0.500024048280898,0.5000151217071722,59.25,23.1,0.15
0.04638672000000003,0.5632324200000001,0.298095705,0.5000191186856922,0.5000321753192934,0.5000289112045264,-7.35,28.8,17.4,0.23803711,0.5412597650000001,0.9147949200000001,0.49999527033226004,0.49998334606827743,0.5000099256874561,90.3,1.95,70.35,0.02026366999999999,0.5520019549999999,0.6169433599999999,0.5000015988088613,0.5000409019655534,0.5000172534523206,60.0,23.1,1.2
0.04370116999999999,0.553222655,0.30883789,0.49998174734668266,0.500048762666705,0.500011324656118,-8.1,27.75,17.7,0.236083985,0.529785155,0.89794922,0.5000130566336013,0.4999828131319904,0.5000071278373986,91.05,1.65,68.55,0.029296875,0.553222655,0.6096191400000001,0.4999941377881084,0.5000603537473334,0.5000149885385503,59.7,21.9,1.2
0.05249023499999998,0.552246095,0.29223633,0.5000075941893748,0.5000389701478708,0.5000271791397767,-7.95,28.2,17.55,0.24243164,0.5314941400000001,0.9296875,0.49999886754311484,0.5000211837592632,0.5000286446927495,89.4,1.05,70.8,0.02270508000000001,0.55419922,0.6057128900000001,0.5000104586237432,0.5000524931334482,0.5000131898894896,60.3,23.1,2.25
0.06005859500000003,0.5456542950000001,0.30883789,0.5000165206758341,0.5000323085751819,0.4999932051714226,-8.1,27.3,17.1,0.24194336,0.52783203,0.924804685,0.5000166539317226,0.4999859440781355,0.4999842121006523,89.4,1.05,70.8,0.0234375,0.54345703,0.5998535150000001,0.5000019318176826,0.5000751424456843,0.5000019318176826,60.3,23.1,2.25
0.07666015499999998,0.541015625,0.31323242,0.49998334606827743,0.500073610221134,0.49996502683064914,-8.1,27.3,17.1,0.23120116999999998,0.514160155,0.927734375,0.5000351730095501,0.49999646937345615,0.5000221829602599,90.3,1.2,70.95,0.019042970000000024,0.5290527349999999,0.6003417950000001,0.5000039303069426,0.5000469640176444,0.500008660061949,60.15,21.75,0.3
0.08227539000000002,0.529785155,0.30078125,0.5000285115241276,0.5000716118191404,0.4999938713635981,-8.4,27.0,16.65,0.22729491999999998,0.5183105450000001,0.9235839849999999,0.5000097258472568,0.4999756852945917,0.5000198514621786,90.75,0.9,70.35,0.014160154999999975,0.5224609400000001,0.604003905,0.4999918062900271,0.5000364387223237,0.5000259800985806,58.95,22.35,0.45
0.08251952999999998,0.5300292950000001,0.29321289,0.5000024647539697,0.5000881324949745,0.49999353826751036,-6.6,27.75,16.65,0.22192383000000002,0.513183595,0.9260253900000001,0.5000075941893748,0.5000037970510541,0.5000032642020336,90.3,1.65,70.65,0.008300779999999975,0.5129394549999999,0.6062011700000001,0.500000599520598,0.5000125903688916,0.5000218499514386,59.25,23.85,0.75
0.067382815,0.5314941400000001,0.29272461,0.49997635148676717,0.500120241229957,0.49997628481518974,-6.9,28.65,15.15,0.21215820500000002,0.509765625,0.919433595,0.5000141225061755,0.5000123238571148,0.5000059287962025,92.1,1.2,70.65,0.0012207050000000094,0.5197753900000001,0.604003905,0.5000150551228613,0.5000105918796316,0.5000353062654386,58.8,22.2,1.05
0.060546875,0.5300292950000001,0.28515625,0.5000043966589187,0.5000796722732249,0.49998014853782136,-7.35,27.3,16.65,0.21411133000000002,0.51904297,0.92626953,0.5000046630834291,0.5000241148652089,0.4999908736733413,90.45,1.05,70.65,0.006347654999999975,0.52392578,0.6047363299999999,0.5000388368919825,0.5000031309461451,0.500015321634638,58.95,22.65,0.75
0.04541015499999997,0.53955078,0.275146485,0.4999742197416188,0.5000792725928263,0.49999067383314194,-7.35,27.3,16.65,0.21118164,0.5241699200000001,0.944335935,0.49999946706371295,0.5000275122358644,0.5000001332558884,90.75,1.05,70.5,0.006103515000000016,0.5285644549999999,0.5944824200000001,0.5000285115241276,0.499993271843,0.4999891416958581,60.15,21.0,1.05
0.02270508000000001,0.5490722650000001,0.250976565,0.49995110416467303,0.5000582220894514,0.49999600302148,-7.5,27.45,16.2,0.21484375,0.5236816400000001,0.950683595,0.499983945676142,0.50001945178178,0.5000097258472568,90.75,1.2,69.15,-0.003662109999999984,0.5349121099999999,0.599121095,0.5000512940049857,0.5000123905286922,0.5000128567934019,60.15,21.0,1.05
0.0234375,0.5476074200000001,0.24340820500000002,0.4999750191024162,0.500019984718067,0.4999996669039123,-7.05,28.8,16.65,0.22363281499999998,0.513671875,0.93310547,0.5000044632432297,0.5000157213150367,0.49999980015980067,90.75,1.2,69.15,-0.0048828100000000065,0.5354003900000001,0.60546875,0.5000597542267353,0.500007327677598,0.50000872664626,59.4,22.2,0.6
0.03271484500000003,0.5517578150000001,0.263671875,0.4999523032058692,0.5000109915600303,0.5000089264864593,-8.7,29.25,16.35,0.21191406499999998,0.5290527349999999,0.9094238299999999,0.5000176531327193,0.5000279785878405,0.5000079938697736,90.0,1.2,70.65,0.007324220000000025,0.5368652349999999,0.606933595,0.5000456983048708,0.5000171201964322,0.5000122572728039,59.4,22.2,0.6
0.052734375,0.552246095,0.26611328,0.49993058651031896,0.50001945178178,0.5000017319774832,-7.5,27.15,15.75,0.212890625,0.5153808599999999,0.91113281,0.4999783498887607,0.5000317756388947,0.4999884755036826,90.9,2.55,70.8,0.01049804499999999,0.5439453150000001,0.600585935,0.5000660827033365,0.5000103254551213,0.5000109915600303,60.3,22.35,0.15
