IMU1_AccX,IMU1_AccY,IMU1_AccZ,IMU1_GyrX,IMU1_GyrY,IMU1_GyrZ,IMU1_MagX,IMU1_MagY,IMU1_MagZ,IMU2_AccX,IMU2_AccY,IMU2_AccZ,IMU2_GyrX,IMU2_GyrY,IMU2_GyrZ,IMU2_MagX,IMU2_MagY,IMU2_MagZ,IMU3_AccX,IMU3_AccY,IMU3_AccZ,IMU3_GyrX,IMU3_GyrY,IMU3_GyrZ,IMU3_MagX,IMU3_MagY,IMU3_MagZ
0.05346679499999999,0.5224609400000001,0.287109375,0.5000850681331404,0.49998994105665556,0.49996662555224397,-7.35,28.8,15.6,0.30395508,0.487060545,0.98095703,0.5000063950609122,0.49999034073705423,0.49988022512201913,86.7,-1.2,77.7,-0.0012207050000000094,0.5217285150000001,0.5305175799999999,0.5001611431955104,0.49997788362405104,0.5000113912404289,55.65,17.1,-7.2
0.05737304499999999,0.520996095,0.26928711,0.5000742098289984,0.4999970023097432,0.49998168067510523,-7.35,28.5,15.3,0.282470705,0.484375,0.9670410150000001,0.5000365053939012,0.5000087932305709,0.4998467840899521,86.85,0.3,78.6,-0.0068359350000000065,0.51904297,0.5378417950000001,0.5001378276910989,0.49994590814495693,0.50000199848926,56.4,16.35,-7.8
0.05590820500000001,0.521972655,0.27246094,0.5000955267568835,0.4999608300119298,0.4999814808349059,-9.0,28.95,15.45,0.290771485,0.498291015,0.9846191400000001,0.5000506279000766,0.49999573659696966,0.4998633047657863,86.7,-1.2,76.35,-0.011230470000000025,0.529296875,0.5388183599999999,0.5001374280107002,0.49991546480314675,0.49999853444702713,56.4,15.3,-6.75
0.03613281499999999,0.5310058599999999,0.271728515,0.5000758752221708,0.4999680245209059,0.49994590814495693,-6.9,28.65,15.15,0.295654295,0.5,0.971679685,0.5000206508229761,0.499963894373764,0.4999117343364035,85.8,-2.25,78.0,0.0031738300000000094,0.53515625,0.536621095,0.500137694522477,0.49990513934802544,0.4999982680225168,56.4,15.3,-6.75
0.04443359500000003,0.52685547,0.26904297,0.5000797388575359,0.4999885420879936,0.49996036374722014,-6.9,28.65,15.15,0.29663086,0.50097656,0.9528808599999999,0.5000416347420399,0.49995410185492983,0.49988388900445135,85.8,-2.25,78.0,0.0048828149999999935,0.5388183599999999,0.5302734400000001,0.5001288346203286,0.4998894180329887,0.499986676854622,57.45,16.8,-8.25
0.04663085999999998,0.5241699200000001,0.278320315,0.5001113146562313,0.4999569662892982,0.500008660061949,-6.9,28.65,15.15,0.283691405,0.49658202999999995,0.9470214849999999,0.5000238483534322,0.4999637611178756,0.49989148319382615,86.7,-1.95,78.45,-0.003662109999999984,0.5393066400000001,0.5266113299999999,0.5001189088456061,0.49988042496221846,0.4999805482182201,57.45,16.8,-8.25
0.04711914000000002,0.5300292950000001,0.278320315,0.5001087167336397,0.49997162173176074,0.49996975649838915,-9.3,28.2,14.7,0.283691405,0.48876952999999995,0.94628906,0.5000103920394322,0.499966558967933,0.4999061386362887,84.9,-2.4,78.45,0.015136720000000025,0.54736328,0.5148925799999999,0.5000630183415024,0.49996988975427753,0.5000089264864593,56.7,18.3,-8.25
0.05590820500000001,0.5224609400000001,0.28466797,0.5001061853080926,0.49999886754311484,0.4999708889552743,-7.05,27.3,17.1,0.29589844,0.48974609500000005,0.9582519549999999,0.4999894081203684,0.4999875428869968,0.4999143323462616,86.55,-1.05,76.95,0.011474609999999984,0.5495605450000001,0.5263671900000001,0.500034040552665,0.4999857442379362,0.5000079938697736,55.5,17.4,-7.65
0.05957031499999999,0.5124511700000001,0.27270508,0.5001232389202138,0.4999614962041053,0.4999956700126587,-8.1,26.25,15.0,0.293945315,0.48046875,0.96826172,0.5000008660323748,0.49996922356210205,0.49992618985140025,86.55,-1.05,76.95,0.01440429499999999,0.537597655,0.5134277349999999,0.4999980681823174,0.49999833460682774,0.49999726873425354,57.0,15.9,-6.9
0.048828125,0.5158691400000001,0.27783203,0.5001013223844641,0.4999808813143078,0.499975352198504,-8.1,26.25,15.0,0.294189455,0.479248045,0.9453125,0.5000370382429218,0.49997928250544654,0.49993778101929504,85.65,-1.95,77.1,0.025634765000000014,0.5439453150000001,0.505371095,0.4999569662892982,0.5000365053939012,0.5000123238571148,54.9,15.6,-8.25
0.04907226500000002,0.5129394549999999,0.267578125,0.5001131799768693,0.49998827566348325,0.4999648269904498,-7.5,26.4,16.2,0.290771485,0.486328125,0.9387207049999999,0.5000399693488676,0.49999487056459485,0.4999205275669744,85.95,-1.95,77.4,0.013671875,0.5427246099999999,0.5217285150000001,0.49991233385700157,0.5000658828631372,0.5000010658725742,54.9,15.6,-8.25
0.05151366999999999,0.50830078,0.26977539,0.5001452887118518,0.49997188824353755,0.4999417113262376,-7.35,26.55,15.0,0.28564453,0.494140625,0.932128905,0.5000181860690064,0.5000125236973141,0.49995170368527114,85.95,-1.95,77.4,0.01635741999999999,0.5393066400000001,0.51074219,0.49988755279961716,0.5000464310813573,0.5000206508229761,57.45,16.35,-8.25
0.04370116999999999,0.50732422,0.28027344,0.5001309662782105,0.4999922059704259,0.49996129636390596,-7.65,27.3,15.6,0.290527345,0.50341797,0.9333496099999999,0.500022049791638,0.5000117910080942,0.49995603367261243,85.5,-2.25,79.05,0.020507814999999995,0.5437011700000001,0.5158691400000001,0.49986656888055336,0.5000901308969681,0.49998094789861874,57.45,16.35,-8.25
0.05346679499999999,0.50048828,0.27758789,0.5001235720163015,0.49997142189156135,0.49994817305872724,-7.35,27.3,16.35,0.291259765,0.490234375,0.9514160150000001,0.5000135895698883,0.5000155880591484,0.4999908736733413,84.45,-1.8,77.55,0.00390625,0.53466797,0.52294922,0.4998601738196411,0.5000922626421165,0.49998780931150716,56.1,17.1,-6.75
0.0546875,0.50317383,0.271972655,0.5001635413651692,0.49996635912773363,0.49997708426325366,-7.35,27.3,16.35,0.29296875,0.49658202999999995,0.95800781,0.5000042634030304,0.5000067948285775,0.49998014853782136,87.15,-2.7,78.15,0.007568359999999984,0.5280761700000001,0.52001953,0.49986650229624235,0.5000989242148055,0.4999875428869968,57.15,17.55,-7.2
0.04589843999999999,0.506347655,0.26855469,0.5001223063035279,0.5000151883787497,0.49990980243145444,-7.65,25.8,15.3,0.28979492,0.493408205,0.96044922,0.49999207271453744,0.500033441032067,0.5000132564738006,87.15,-2.7,78.15,0.0068359399999999935,0.5251464849999999,0.5153808599999999,0.4998505145566953,0.5001155114749506,0.4999677580091291,55.8,16.65,-8.4
0.048828125,0.510253905,0.271484375,0.5001175099642106,0.500006728157,0.4999477733783286,-8.55,26.4,15.45,0.28833008,0.49072265499999995,0.971191405,0.4999941377881084,0.5000137228257767,0.5000080604540845,85.8,-2.25,78.0,0.0009765649999999937,0.520996095,0.5173339849999999,0.4998506478125837,0.5001230390800144,0.499968624041504,57.15,19.05,-7.5
0.05297851500000002,0.508789065,0.271972655,0.5001334311194466,0.49998601074971294,0.4999576324814737,-8.25,26.7,15.45,0.28588867,0.49194336,0.966796875,0.49996142953252787,0.5000145888581515,0.5000549578874179,85.95,-1.95,78.15,-0.012207030000000032,0.51513672,0.5261230450000001,0.4998400558456857,0.5001095160944371,0.4999642273825852,57.45,16.8,-7.5
0.04028320500000001,0.509765625,0.274414065,0.5000892649518597,0.5000017319774832,0.4999403790291531,-8.25,26.7,15.45,0.29760742,0.501464845,0.9609375,0.4999432434635215,0.5000079938697736,0.5000286446927495,85.65,-2.7,78.15,-0.013183594999999968,0.5100097650000001,0.5185546900000001,0.49985191343809077,0.5001188422612951,0.499947173770464,56.7,17.1,-7.5
0.04833984500000003,0.50317383,0.27783203,0.5000835359958565,0.5000054624442265,0.49992652294748796,-7.65,25.8,15.6,0.290771485,0.48095702999999995,0.959472655,0.49994684076164275,0.5000043299873413,0.5000304433418102,85.65,-2.7,77.1,-0.00854491999999999,0.52001953,0.5263671900000001,0.499848249642925,0.500147020689335,0.49995583383241304,56.7,17.1,-7.5
0.05346679499999999,0.5139160150000001,0.278320315,0.5000900643126571,0.500020051302378,0.49996542651104786,-6.45,26.1,15.15,0.291748045,0.478515625,0.967285155,0.49993977950855506,0.500016054323858,0.5000531592383572,86.85,-2.25,78.0,-0.013671875,0.509765625,0.5266113299999999,0.4998480498027257,0.500133630959646,0.49993917990069053,56.4,17.1,-7.2
0.05322265499999997,0.5168457049999999,0.286621095,0.500046764177445,0.5000342403928644,0.49992372509743055,-8.55,25.35,16.8,0.290771485,0.467285155,0.96142578,0.499953169238244,0.5000027312657465,0.5000349731693509,88.05,-3.3,78.3,-0.0031738300000000094,0.508789065,0.525878905,0.4998712320512488,0.5001542151110446,0.4999399793487544,56.25,16.95,-8.7
0.05029297000000003,0.5129394549999999,0.28588867,0.5000255804181818,0.5000478966343301,0.4999143323462616,-7.5,26.4,15.75,0.282714845,0.48022461,0.9694824200000001,0.49994757353812924,0.5000321087349825,0.5000506279000766,88.05,-3.3,78.3,-0.004638669999999991,0.50390625,0.53076172,0.4998579089058708,0.5001755321261961,0.49996189588450396,55.8,16.95,-9.45
0.04833984500000003,0.506591795,0.282470705,0.500018585749405,0.500020051302378,0.49997635148676717,-7.5,26.4,15.75,0.299316405,0.470703125,0.97363281,0.49997182157196013,0.5000222496318373,0.5000422342626379,85.65,-3.15,75.6,-0.010742185000000007,0.50048828,0.5344238299999999,0.4998513805890702,0.5001283016840415,0.49994857273912596,55.8,16.65,-8.7
0.04760741999999999,0.493408205,0.283447265,0.49999753524603036,0.5000211171749521,0.4999458414733795,-8.25,26.4,15.75,0.302001955,0.466064455,0.9724121099999999,0.4999482396430382,0.5000317756388947,0.5000606201718436,86.25,-1.8,78.0,-0.006103515000000016,0.49926758,0.5329589849999999,0.49986810110510366,0.5001287679487512,0.499991339938051,55.8,16.65,-8.7
0.037109375,0.483154295,0.287109375,0.49998174734668266,0.5000326416712696,0.4999228591523222,-7.5,25.35,15.15,0.301757815,0.471435545,0.9689941400000001,0.4999729540288453,0.5000291776290366,0.5000456317205598,85.8,-2.55,78.0,-0.0029296850000000065,0.48681640499999995,0.5368652349999999,0.4998878193113939,0.5000742098289984,0.49996962324250077,57.15,16.8,-8.55
0.03662109500000003,0.48046875,0.28808594,0.5000041968187193,0.4999972021499426,0.49995263630195697,-8.25,26.4,14.4,0.299072265,0.47729492,0.96044922,0.4999609632678182,0.5000185191650941,0.5000377710194083,86.25,-1.5,77.55,-0.0014648450000000254,0.482177735,0.541015625,0.49990860339025833,0.5000446991038741,0.49995769906578463,57.3,16.65,-9.75
0.031005859999999986,0.47900390499999995,0.28149414,0.49996622587184525,0.5000219165357496,0.4999607634276188,-7.2,25.65,16.5,0.317626955,0.474365235,0.9426269549999999,0.5000677480965088,0.500019984718067,0.5000024647539697,85.5,-2.25,78.0,0.0024414049999999746,0.48583984500000005,0.52294922,0.49990873655888024,0.50002145027104,0.5000021983294594,57.3,16.65,-9.75
0.03125,0.48413086,0.28515625,0.4999734203808214,0.5000049295952058,0.4999349831692376,-7.2,25.65,16.5,0.28125,0.44189453,0.9807128900000001,0.4999413116458389,0.5000486294108166,0.5000378376909856,86.7,-1.65,78.9,0.003662109999999984,0.48364258,0.5334472650000001,0.49992605668277834,0.5000383039556954,0.49997655132696656,57.3,16.95,-8.4
0.04174804499999999,0.48413086,0.29199219,0.5000063950609122,0.4999970688940542,0.49998381242025364,-6.9,26.1,14.7,0.30102539,0.47802734500000005,0.9577636700000001,0.499984611781051,0.5000191852700031,0.500036105626236,86.7,-1.65,78.9,0.0009765649999999937,0.49365234500000005,0.5397949200000001,0.4999186623336029,0.5000127236247799,0.49999233922631425,56.25,16.95,-7.95
0.04028320500000001,0.48486327999999995,0.294189455,0.49999913396762513,0.4999851447173381,0.5000050627638277,-8.55,26.4,15.45,0.307128905,0.47900390499999995,0.978027345,0.499986676854622,0.5000433001352121,0.5000440329116985,86.7,-1.65,78.9,0.004638669999999991,0.48046875,0.53466797,0.499917796301228,0.5000144556022632,0.4999870099507097,55.2,18.75,-8.7
0.04589843999999999,0.494140625,0.293945315,0.4999782167201388,0.4999924058106252,0.4999660260316459,-9.0,25.65,15.75,0.31542969,0.467041015,0.9763183599999999,0.4999864770144226,0.5000081271256619,0.5000545582070192,85.95,-2.7,78.45,-0.006347654999999975,0.48461914,0.5341796900000001,0.49995876493835884,0.5000116577522058,0.5000082602942838,56.25,17.4,-7.35
0.05053710999999998,0.5056152349999999,0.29663086,0.499984678365362,0.4999783498887607,0.50000872664626,-9.0,25.65,15.75,0.30883789,0.48754883,0.9753417950000001,0.49999946706371295,0.5000045298275406,0.5000239816093206,85.8,-2.55,77.55,-0.00024414000000001578,0.48095702999999995,0.5344238299999999,0.4999647603188724,0.500044765688185,0.5000075276050638,56.25,16.65,-9.75
0.04858398499999998,0.501220705,0.29614258,0.4999843453565407,0.49998760947130777,0.5000173867082089,-7.65,25.05,15.6,0.30834961,0.466308595,0.9665527349999999,0.5000304433418102,0.5000165206758341,0.5000335742879554,87.3,-1.05,77.55,0.005859375,0.478271485,0.5339355450000001,0.4999636278619872,0.5000454984646715,0.49999447088419613,56.1,17.55,-8.25
0.05151366999999999,0.502685545,0.294921875,0.4999537687588421,0.5000110582316077,0.5000063284766012,-6.9,23.85,15.75,0.307128905,0.46826172000000005,0.9548339849999999,0.49998987438507814,0.500009326166858,0.5000171868680097,87.3,-1.05,77.55,-0.003662109999999984,0.493164065,0.5256347650000001,0.499957832321673,0.5000518935255837,0.49998967454487875,56.1,17.55,-8.25
0.04345702999999997,0.49975586,0.298095705,0.4999595642991563,0.49999213938611486,0.5000351730095501,-8.1,25.8,16.05,0.30004883,0.46850586,0.956054685,0.49999646937345615,0.5000392365723811,0.5000497618677018,85.8,-1.8,76.95,-0.004394529999999975,0.493408205,0.5388183599999999,0.499962561989413,0.5000513606765631,0.5000100589433445,55.65,17.55,-8.85
0.04174804499999999,0.498291015,0.29248047,0.49995157042938276,0.49998294638787877,0.5000415015734179,-9.15,26.25,15.6,0.30419922,0.47705077999999995,0.967773435,0.4999956033410813,0.5000491623471037,0.5000503613882998,85.65,-2.4,77.4,-0.0078125,0.49755859500000005,0.5412597650000001,0.4999597641393556,0.5000506944843875,0.5000243147054083,55.65,17.55,-8.85
0.04980468999999999,0.49633789,0.29614258,0.4999403790291531,0.49999813476662835,0.5000288445329489,-9.15,26.25,15.6,0.29760742,0.47192383,0.96582031,0.49999753524603036,0.5000520267814721,0.5000450987842727,85.65,-2.4,77.4,-0.0024414049999999746,0.49975586,0.5393066400000001,0.49999114009785167,0.5000231822485232,0.500000599520598,54.6,16.35,-7.8
0.05712890499999997,0.49975586,0.28588867,0.4999680245209059,0.5,0.500036105626236,-7.65,27.0,17.1,0.303222655,0.46459961,0.9782714849999999,0.5000003996803987,0.5000598874826238,0.5000316423830063,86.7,-2.4,77.7,-0.004638669999999991,0.49951172000000005,0.5344238299999999,0.500006661572689,0.5000007327764865,0.5000227825681245,56.7,17.85,-8.85
0.05517577999999997,0.5036621099999999,0.278564455,0.4999764180710781,0.5000044632432297,0.5000494287716141,-7.65,26.55,15.6,0.287597655,0.46801758,0.971679685,0.500034040552665,0.5000283782682392,0.5000468974333334,86.25,-1.8,78.0,-0.010009765000000016,0.5078125,0.53125,0.5000057289560033,0.5000005329362871,0.5000129900492903,54.0,18.0,-9.75
0.04418945500000001,0.49951172000000005,0.28051758,0.4999551010559266,0.5000117243365167,0.499984611781051,-9.0,26.4,15.75,0.29589844,0.46411133,0.971679685,0.500034840000729,0.5000137228257767,0.5000081271256619,85.65,-2.7,76.65,-0.010742185000000007,0.506347655,0.5329589849999999,0.5000190521013812,0.4999932051714226,0.500033441032067,54.6,17.85,-8.55
0.04028320500000001,0.505859375,0.28442383,0.4999730207004227,0.5000014655529729,0.500017986228807,-9.0,26.4,15.75,0.30761719,0.48120117,0.97705078,0.500028777948638,0.5000097925188342,0.5000451653685837,85.65,-2.7,76.65,-0.013427734999999984,0.493896485,0.524902345,0.49999713556563163,0.5000100589433445,0.5000223828877257,54.6,17.85,-8.55
0.04321289000000002,0.5144042950000001,0.278320315,0.49999420445968584,0.5000096592629458,0.5000329080957798,-9.0,26.4,15.75,0.299316405,0.475585935,0.971191405,0.5000239150250096,0.500011258071807,0.5000329080957798,85.8,-2.55,78.0,-0.008789060000000007,0.50439453,0.5224609400000001,0.5000049295952058,0.5000053292756045,0.50000472966774,55.2,18.0,-9.75
0.0390625,0.510498045,0.283691405,0.49996595944733496,0.5000157213150367,0.5000168537719218,-7.2,26.1,15.75,0.291748045,0.47998047000000005,0.96582031,0.5000315092143844,0.5000242481210974,0.5000226493122361,86.4,-3.15,77.4,-0.0026855449999999906,0.50341797,0.5158691400000001,0.49998814240759487,0.5000152549630607,0.5000472971137321,55.2,18.0,-9.75
0.03955077999999997,0.508789065,0.27758789,0.49996835761699365,0.49998734304679743,0.5000457648891817,-9.3,24.9,15.45,0.28833008,0.473876955,0.96191406,0.500036105626236,0.5000324418310702,0.5000231822485232,86.4,-3.15,77.4,-0.004394529999999975,0.5056152349999999,0.5207519549999999,0.49998401226045297,0.4999961362773684,0.5000139892502871,56.1,17.85,-8.85
0.04467773499999998,0.517578125,0.26904297,0.49997082237096335,0.499986676854622,0.5000428338705024,-8.1,26.25,17.4,0.29199219,0.48803711,0.9543457049999999,0.5000077274452632,0.5000213170151515,0.5000242481210974,88.2,-1.65,76.35,-0.011474609999999984,0.5126953150000001,0.5368652349999999,0.4999862105899123,0.5000054624442265,0.500052826229536,57.0,18.75,-10.05
0.03735351500000002,0.5095214849999999,0.27783203,0.4999632947658995,0.5000114579120064,0.5000004663519761,-8.25,25.35,16.5,0.29370117,0.49365234500000005,0.9680175799999999,0.500033441032067,0.5000204509827767,0.5000289777888374,87.6,-1.8,76.5,-0.010009765000000016,0.5124511700000001,0.53515625,0.4999944042998852,0.4999775505279633,0.5000510941647862,56.7,19.05,-9.6
0.04541015499999997,0.51513672,0.28491211,0.49998008195351035,0.4999938047792871,0.5000139892502871,-8.25,25.35,16.5,0.290039065,0.48852539,0.974609375,0.500009259582547,0.5000231822485232,0.500056090344303,85.95,-0.45,77.1,-0.0031738300000000094,0.518066405,0.5246582049999999,0.49996935681799043,0.49997495251810525,0.5000440329116985,55.8,18.45,-9.45
0.05224609500000003,0.5236816400000001,0.280029295,0.49996935681799043,0.49999946706371295,0.5000295773094354,-8.7,27.3,15.6,0.29345703,0.485595705,0.9738769549999999,0.5000498951235901,0.5000161875797464,0.5000416347420399,85.95,-0.45,77.1,-0.01098633000000001,0.5185546900000001,0.5354003900000001,0.499973287124933,0.49997322054062204,0.5000419012538166,55.8,18.45,-9.45
0.05371093999999999,0.51904297,0.28564453,0.4999455750488692,0.5000284448525503,0.49999140660962843,-7.95,26.4,16.5,0.29248047,0.482177735,0.971679685,0.5000460314009586,0.5000236485132329,0.5000371049144993,85.8,-2.25,77.55,-0.01171875,0.5163574200000001,0.5310058599999999,0.4999652932551594,0.49996729174441945,0.5000480964745295,56.25,19.2,-8.4
0.04907226500000002,0.517089845,0.27783203,0.49997388664553105,0.5000239816093206,0.5000481630588405,-7.35,27.3,15.3,0.286376955,0.479492185,0.9685058599999999,0.500024048280898,0.5000389035635598,0.5000446324322966,87.45,-0.15,76.65,-0.0026855449999999906,0.51171875,0.518066405,0.4999597641393556,0.49999160644982776,0.5000529593981579,55.5,19.2,-9.45
0.05322265499999997,0.51171875,0.290527345,0.4999781500485614,0.4999965359577671,0.5000384372115838,-7.35,27.3,15.3,0.291259765,0.483154295,0.9587402349999999,0.500019984718067,0.5000299104055231,0.5000288445329489,86.7,-1.2,76.65,-0.007568359999999984,0.5119628900000001,0.5305175799999999,0.4999435765596092,0.49997242109255813,0.5000515605167625,55.5,19.2,-9.45
0.04541015499999997,0.5100097650000001,0.282958985,0.49995983081093304,0.5000350398409282,0.5000350398409282,-7.65,26.55,15.6,0.29370117,0.47729492,0.955078125,0.5000371714988102,0.5000145888581515,0.5000430337107018,86.55,-2.25,77.55,-0.004394529999999975,0.50341797,0.5285644549999999,0.499973287124933,0.4999906071615645,0.5000458981450702,57.0,19.95,-9.75
0.05151366999999999,0.5173339849999999,0.29272461,0.4999510374930956,0.5000149218669728,0.5000360390419251,-8.55,26.7,15.75,0.293945315,0.48144531,0.96533203,0.5000320421506715,0.5000198514621786,0.5000457648891817,85.65,-0.9,77.1,0.0024414049999999746,0.50854492,0.5251464849999999,0.4999887419281929,0.4999484394832376,0.5000630850130798,56.4,17.55,-8.85
0.04858398499999998,0.5241699200000001,0.28149414,0.49997062253076396,0.5000191852700031,0.5000302435016108,-8.55,26.4,15.45,0.29589844,0.49267577999999995,0.958496095,0.5000267128750671,0.500048229730418,0.5000402358606444,85.5,-0.3,78.3,-0.00854491999999999,0.514160155,0.5380859400000001,0.49999786834211807,0.4999804816339091,0.5000824701232823,56.7,19.35,-9.9
0.05224609500000003,0.5241699200000001,0.282226565,0.49994390965569696,0.5000445658479856,0.49998734304679743,-7.2,27.45,15.45,0.30053711,0.493408205,0.9592285150000001,0.5000508943245869,0.5000271125554657,0.5000428338705024,85.5,-0.3,78.3,-0.003662109999999984,0.510498045,0.5295410150000001,0.49998341273985486,0.49996216230901436,0.5000548246315295,56.7,17.85,-9.3
0.05053710999999998,0.5173339849999999,0.28515625,0.4999583652579601,0.5000277120760638,0.5000272458113542,-7.2,27.45,15.45,0.290527345,0.49291992,0.9680175799999999,0.5000462312411579,0.5000207174945535,0.5000428338705024,86.25,-2.25,78.3,0.0026855449999999906,0.514160155,0.5187988299999999,0.4999783498887607,0.4999632947658995,0.5000548246315295,56.1,17.55,-7.2
0.05297851500000002,0.525390625,0.286376955,0.49995203678135886,0.5000301769172999,0.5000445658479856,-9.15,27.0,15.3,0.302978515,0.50463867,0.97265625,0.5000264463632902,0.5000132564738006,0.5000433001352121,87.75,-2.4,77.4,0.001953125,0.5224609400000001,0.533203125,0.4999725543484465,0.49997681775147684,0.5000288445329489,55.8,18.45,-7.95
0.05126952999999997,0.5349121099999999,0.279785155,0.49990327411465385,0.5000503613882998,0.5000195183660909,-9.45,25.8,14.55,0.287109375,0.49511719,0.963867185,0.5000135229855773,0.5000323085751819,0.5000528928138469,86.4,-0.9,77.7,-0.001953125,0.529785155,0.5334472650000001,0.499977950208362,0.4999573659696969,0.5000405688694657,55.8,18.45,-7.95
0.04370116999999999,0.5285644549999999,0.27734375,0.49993451681726153,0.5000344402330638,0.5000171201964322,-8.55,25.65,14.4,0.287353515,0.49584961,0.96142578,0.5000098591031451,0.5000146554424625,0.5000636179493669,86.4,-0.9,77.7,-0.0012207050000000094,0.5378417950000001,0.529296875,0.499983945676142,0.4999455750488692,0.5000330413516683,55.5,18.45,-6.9
0.048828125,0.5263671900000001,0.282714845,0.49995143717349433,0.500022049791638,0.5000323751594928,-8.55,25.65,14.4,0.29223633,0.49951172000000005,0.95361328,0.500018585749405,0.5000080604540845,0.5000737434770224,87.15,-2.7,76.65,0.0012207050000000094,0.532714845,0.5322265650000001,0.4999788828250478,0.49995983081093304,0.5000176531327193,55.5,18.45,-6.9
0.046875,0.5207519549999999,0.286132815,0.4999279219161499,0.5000253805779825,0.5000239150250096,-9.0,27.15,16.5,0.279052735,0.50463867,0.96044922,0.5000043966589187,0.4998412549741483,0.5000647504062521,87.15,-1.95,78.9,0.0031738300000000094,0.53955078,0.5314941400000001,0.4999780834642504,0.49997655132696656,0.50000472966774,56.7,20.85,-7.8
0.05346679499999999,0.51513672,0.291015625,0.4999391133163796,0.5000317090545837,0.500013856081665,-9.6,25.65,16.5,0.317382815,0.49609375,0.98925781,0.5000253805779825,0.5000394364125805,0.5000588881943605,87.15,-1.95,78.9,0.0009765649999999937,0.53125,0.529785155,0.4999702894346762,0.49998720979090905,0.5000305765976986,56.55,18.75,-7.65
0.05590820500000001,0.5261230450000001,0.291503905,0.4999569662892982,0.5000269127152663,0.5000245145456076,-9.45,27.3,15.6,0.306884765,0.5207519549999999,0.96142578,0.5000135895698883,0.5000071945089761,0.500080271793823,88.05,-0.3,78.9,0.005371095000000025,0.5380859400000001,0.5407714849999999,0.49993917990069053,0.500002598009858,0.500003464042233,55.5,18.45,-8.4
0.05590820500000001,0.5322265650000001,0.2890625,0.4999375145075182,0.5000279119162632,0.5000243147054083,-10.65,27.15,14.7,0.271972655,0.5139160150000001,0.9431152349999999,0.5000223828877257,0.49990820370985967,0.5000801386252011,85.95,-0.45,77.25,-0.006347654999999975,0.532714845,0.53564453,0.49995456811963945,0.5000197182062902,0.5000098591031451,55.65,19.05,-8.55
0.06469726500000002,0.533203125,0.283447265,0.49993065318189633,0.5000303767574993,0.5000150551228613,-10.65,27.15,14.7,0.30932617,0.502685545,0.97216797,0.5000317756388947,0.49998707653502067,0.5000965926294577,85.65,-0.45,76.35,-0.003662109999999984,0.5380859400000001,0.53466797,0.49995516772750404,0.500002131657882,0.5000093928384355,55.65,19.05,-8.55
0.06152343999999999,0.53955078,0.28588867,0.4999289877887241,0.5000252473220941,0.5000217832798612,-8.1,27.75,16.05,0.30029297,0.510253905,0.9665527349999999,0.5000158544836586,0.49999267232240197,0.5000833361556571,85.65,-1.65,78.15,0.0012207050000000094,0.5305175799999999,0.536621095,0.4999631615972775,0.5000017319774832,0.5000097258472568,56.25,19.5,-7.65
0.06420898499999998,0.53515625,0.276123045,0.499911134728539,0.5000503613882998,0.5000211171749521,-8.4,26.55,16.05,0.334716795,0.49975586,0.9738769549999999,0.5000111248159187,0.4999567664490988,0.5000875995586875,85.65,-1.65,78.15,-0.004638669999999991,0.5244140650000001,0.5471191400000001,0.49994697393026466,0.5000031309461451,0.5000272458113542,56.25,19.5,-7.65
0.06005859500000003,0.5397949200000001,0.28173828,0.4999009426165726,0.5000493621873031,0.5000087932305709,-7.2,26.1,15.15,0.29980469,0.5124511700000001,0.982421875,0.5000059953805135,0.5000009326166858,0.5000791393369378,86.85,-0.75,77.55,-0.00048827999999997475,0.5192871099999999,0.53564453,0.4999497051960111,0.49999067383314194,0.49999054057725356,56.7,20.1,-7.5
0.05297851500000002,0.53466797,0.28491211,0.4999212603434609,0.5000277787476413,0.500051493845185,-7.2,26.1,15.15,0.303466795,0.51171875,0.9660644549999999,0.5000099256874561,0.5000009326166858,0.5000745428378197,85.95,-0.15,76.65,0.003662109999999984,0.51513672,0.5334472650000001,0.49994164474192665,0.4999788162407368,0.49999487056459485,57.15,20.1,-6.75
0.05151366999999999,0.5437011700000001,0.282226565,0.4998983445194481,0.5000338407124657,0.5000047963393174,-10.05,25.65,16.8,0.297851565,0.5129394549999999,0.9609375,0.4999989341274258,0.49996016381975433,0.5000993238952042,87.3,-0.3,77.55,0.001953125,0.52001953,0.545410155,0.4999012090410829,0.4999825467074801,0.499981947186882,55.65,19.8,-8.25
0.04711914000000002,0.5378417950000001,0.279296875,0.49989368143601903,0.5000335742879554,0.5000265130348677,-7.65,27.3,16.35,0.310302735,0.510498045,0.9748535150000001,0.49998994105665556,0.49995663319321043,0.5001064517326028,86.7,0.45,77.4,-0.006103515000000016,0.5114746099999999,0.545410155,0.49990480625193773,0.5000037304667432,0.4999962695332568,56.1,19.8,-7.8
0.05175781499999999,0.5344238299999999,0.28027344,0.4998941477879952,0.5000073943491754,0.5000352396811276,-9.6,26.7,15.75,0.29272461,0.502685545,0.9685058599999999,0.49999233922631425,0.49997215466804784,0.5000933950990016,85.35,-0.45,78.45,0.0017089849999999843,0.5183105450000001,0.5476074200000001,0.49989634611745454,0.49995503447161566,0.49998547781342584,56.1,19.8,-7.8
0.05541991999999999,0.5390625,0.28076172,0.49986770133743846,0.5000095926786348,0.5000286446927495,-9.6,27.15,14.4,0.3203125,0.49902344,0.9665527349999999,0.4999771508475646,0.49998887518408136,0.5001147786984641,87.15,-0.15,77.7,-0.006347654999999975,0.51953125,0.5400390650000001,0.49993298467997765,0.4999880091517065,0.49998534455753746,57.3,19.5,-9.0
0.05908202999999997,0.544433595,0.28198242,0.49986323809420885,0.5000093928384355,0.5000271125554657,-9.6,27.15,14.4,0.298583985,0.49853515499999995,0.971679685,0.5000079272854626,0.5000019318176826,0.50009352835489,87.15,-0.15,77.7,-0.009277345000000025,0.5129394549999999,0.549316405,0.4999399793487544,0.49994410949589635,0.4999980681823174,56.7,20.1,-8.25
0.05908202999999997,0.544433595,0.282226565,0.49986696856095203,0.4999994004794019,0.5000414349018405,-9.45,27.3,16.35,0.299560545,0.498779295,0.9709472650000001,0.5000036638824322,0.5000023315853478,0.5000909303450319,86.85,0.75,76.5,-0.00024414000000001578,0.5222167950000001,0.5471191400000001,0.4999592312030685,0.49995216994998076,0.4999774839436523,56.7,20.1,-8.25
0.06469726500000002,0.5380859400000001,0.279785155,0.49986103985201596,0.5000104586237432,0.5000289112045264,-9.3,29.7,15.75,0.303466795,0.49658202999999995,0.9733886700000001,0.49999400461948645,0.5000062618922902,0.5000812710820862,86.25,-1.5,78.3,-0.0012207050000000094,0.5192871099999999,0.5476074200000001,0.4999811477388181,0.49994857273912596,0.5000016653931723,57.0,19.5,-7.65
0.06494140499999998,0.5478515650000001,0.28491211,0.499879625601421,0.4999962695332568,0.500062218980705,-8.55,28.2,16.2,0.290527345,0.51074219,0.9699707049999999,0.5000043299873413,0.49997275418864584,0.5001114479121196,87.15,-0.45,77.1,-0.0007324199999999905,0.520996095,0.5290527349999999,0.4999826799633685,0.4999339172966634,0.4999798154417336,55.5,20.25,-8.4
0.067382815,0.545410155,0.28540039,0.49986263857361074,0.5000273789799761,0.5000101921992328,-8.55,28.2,16.2,0.29345703,0.5002441400000001,0.9699707049999999,0.5000123905286922,0.49997142189156135,0.5000864004302249,84.9,-0.45,77.7,-0.0017089849999999843,0.51904297,0.544433595,0.499971288635673,0.49991280012171124,0.4999892082801691,55.65,18.3,-7.8
0.06860351500000002,0.549316405,0.287353515,0.49989501382037005,0.5000115244963174,0.5000412350616411,-8.55,28.2,16.2,0.290527345,0.49658202999999995,0.96972656,0.5000185191650941,0.49995276955784534,0.5000946608117751,87.3,-0.75,78.3,-0.0007324199999999905,0.51220703,0.544433595,0.49998734304679743,0.4999106017922519,0.4999990673833142,56.4,19.8,-7.8
0.06372070500000002,0.5498046900000001,0.28808594,0.4998815574191036,0.4999791493368246,0.5000494954431914,-8.25,28.65,14.7,0.29736328,0.494873045,0.974121095,0.5000152549630607,0.499971222051362,0.5000742098289984,85.65,0.9,78.15,-0.005371095000000025,0.520996095,0.5422363299999999,0.4999816140907943,0.4998822901955901,0.49998814240759487,55.8,19.5,-7.65
0.06005859500000003,0.5458984400000001,0.287353515,0.4998690337217894,0.5000121240169154,0.500035372937016,-9.0,30.15,14.7,0.302978515,0.502929685,0.9724121099999999,0.5000077274452632,0.49996122969232853,0.5000790061683159,85.65,0.9,78.15,0.003662109999999984,0.5173339849999999,0.5407714849999999,0.4999631615972775,0.4999227924807448,0.4999742197416188,56.1,19.05,-6.45
0.06201172000000003,0.552246095,0.283203125,0.49988435526916103,0.5000271125554657,0.5000379709468741,-8.7,30.15,15.75,0.30419922,0.509765625,0.9748535150000001,0.5000040635628309,0.49997202141215946,0.5000431002950128,86.25,-1.8,77.55,0.005371095000000025,0.5197753900000001,0.5407714849999999,0.49993724808300793,0.4999174632051403,0.49998008195351035,56.1,19.05,-6.45
0.05639648499999998,0.55810547,0.275146485,0.4999022749136571,0.49996695864833174,0.5000496286118133,-8.7,28.8,14.55,0.298583985,0.5041503900000001,0.9645996099999999,0.5000215168553509,0.4999812809947065,0.5000751424456843,85.65,-0.15,77.4,0.007324220000000025,0.5114746099999999,0.5361328150000001,0.4999474402822408,0.4999409119654402,0.4999963361175678,55.8,19.5,-7.35
0.052734375,0.56201172,0.274414065,0.4998785597288468,0.49997601839067946,0.5000556906639043,-8.7,28.8,14.55,0.305908205,0.5002441400000001,0.9567871099999999,0.4999858109095136,0.4999780834642504,0.5000580888335631,86.4,-0.9,77.4,0.011474609999999984,0.5017089849999999,0.5341796900000001,0.49994604131357884,0.4999628285011898,0.4999966692136555,57.0,19.95,-6.6
0.04638672000000003,0.55029297,0.274902345,0.49990234149796803,0.4999606301717304,0.5000576891531644,-8.1,27.0,17.1,0.30541992,0.49951172000000005,0.9538574200000001,0.49997708426325366,0.4999857442379362,0.5000486294108166,86.4,-0.9,77.4,0.013427734999999984,0.498291015,0.5341796900000001,0.4999594311305343,0.4999744862533956,0.4999844785251626,56.55,19.5,-6.9
0.044921875,0.5598144549999999,0.279785155,0.4999091363265455,0.4999425773586124,0.5000371714988102,-9.45,29.55,16.05,0.294921875,0.49609375,0.947265625,0.49998547781342584,0.49997575187890264,0.5000415015734179,86.25,0.3,78.0,0.019775390000000014,0.497070315,0.5341796900000001,0.4999764180710781,0.49998261329179106,0.5000031309461451,57.15,20.1,-6.75
0.05346679499999999,0.5588378900000001,0.274414065,0.4998740964856172,0.49997022285036524,0.5000362388821243,-9.45,28.05,16.05,0.29370117,0.493408205,0.9572753900000001,0.4999878759830846,0.49998840891937163,0.5000661492876476,86.85,1.5,77.55,0.010009765000000016,0.50341797,0.540527345,0.5000073943491754,0.500019984718067,0.49998967454487875,57.0,19.95,-7.95
0.05834960999999998,0.5642089849999999,0.27319336,0.49989548008507967,0.49994684076164275,0.5000168537719218,-9.45,28.05,16.05,0.299316405,0.49560547000000005,0.9567871099999999,0.49998654368600004,0.49998814240759487,0.5000556240795934,86.85,1.5,77.55,0.006591794999999991,0.50341797,0.5402832049999999,0.49999646937345615,0.5000130566336013,0.4999943377155742,57.3,20.25,-6.3
0.056640625,0.5676269549999999,0.278320315,0.4999042733156506,0.4999439762400079,0.5000389035635598,-10.35,30.15,15.45,0.295166015,0.485595705,0.963378905,0.4999968690538548,0.499973287124933,0.5000472971137321,87.3,1.8,78.3,0.005615234999999984,0.5061035150000001,0.5246582049999999,0.5000157213150367,0.5000347733291515,0.5000125236973141,57.3,20.25,-6.3
0.05249023499999998,0.567871095,0.279785155,0.4998827565475662,0.49995363550295374,0.4999764180710781,-9.0,28.65,16.2,0.29736328,0.490234375,0.9650878900000001,0.4999856776536252,0.5000099256874561,0.5000221829602599,86.4,0.9,77.1,-0.001953125,0.502685545,0.52734375,0.5000075276050638,0.5000704126906779,0.49997355363670976,57.45,20.55,-6.75
0.05175781499999999,0.552734375,0.27709961,0.4998955466693907,0.4999849448771388,0.5000203177268884,-9.0,28.2,17.85,0.294189455,0.47583008,0.97216797,0.49998960796056774,0.4999888085997704,0.5000404357008437,86.55,0.75,78.3,0.00390625,0.505859375,0.52783203,0.5000141225061755,0.5000471638578438,0.49999853444702713,57.45,20.55,-6.75
0.04956054499999999,0.5515136700000001,0.28198242,0.4999243246180286,0.49995536756770337,0.5000198514621786,-8.55,30.15,16.8,0.302246095,0.490966795,0.96533203,0.4999918062900271,0.49999800151074,0.5000103920394322,86.55,0.75,78.3,0.005126955000000009,0.51171875,0.52294922,0.5000363055537018,0.500084268772343,0.49999114009785167,57.3,18.75,-6.9
0.04321289000000002,0.55859375,0.27758789,0.4999275222357512,0.49997934917702397,0.5000027978500574,-8.55,30.15,16.8,0.302246095,0.494384765,0.954589845,0.4999948039802839,0.4999976018303413,0.5000127236247799,87.3,0.75,78.3,-0.004150390000000016,0.510253905,0.5246582049999999,0.500016054323858,0.5000893982077481,0.49999267232240197,56.25,20.7,-7.35
0.041015625,0.5534667950000001,0.268066405,0.4999283881808596,0.49996276182961236,0.5000039969785199,-9.3,30.15,16.2,0.30053711,0.48388672000000005,0.952148435,0.5000078606138851,0.5000007993607974,0.49998994105665556,87.3,1.5,78.3,-0.005615234999999984,0.50830078,0.52783203,0.5000055957001148,0.5000847350370526,0.49999673579796644,56.1,20.1,-7.8
0.03979491999999999,0.5498046900000001,0.275634765,0.4999513040048724,0.49995969755504466,0.500007327677598,-10.5,30.6,16.65,0.290527345,0.486572265,0.947265625,0.5000070612530877,0.4999782167201388,0.49999960031960133,87.45,0.9,77.7,0.001953125,0.510253905,0.5329589849999999,0.4999919395459155,0.5000998568314913,0.49998740963110844,54.9,19.35,-7.8
0.04272460999999998,0.55859375,0.28149414,0.49995443495101755,0.4999830130594562,0.4999889417683923,-8.25,28.65,15.45,0.28540039,0.474853515,0.95019531,0.4999885420879936,0.5000141225061755,0.4999958698528581,86.25,-0.3,78.0,-0.005126955000000009,0.5095214849999999,0.53173828,0.499975285614193,0.5001137128258899,0.4999780834642504,54.9,19.35,-7.8
0.04614258000000001,0.55419922,0.278808595,0.49998987438507814,0.49999173970571614,0.4999795490172233,-8.25,28.65,15.45,0.28442383,0.481689455,0.96191406,0.4999900076409665,0.4999958698528581,0.4999883422477942,88.05,1.05,79.35,-0.012207030000000032,0.5036621099999999,0.5393066400000001,0.4999954701724594,0.5000844686125423,0.5000075276050638,56.55,19.2,-7.95
0.04663085999999998,0.55810547,0.279541015,0.5000234486730334,0.4999849448771388,0.5000188522611819,-9.45,29.85,17.4,0.291015625,0.478515625,0.967285155,0.5000045964991181,0.5000181860690064,0.49999447088419613,86.85,0.3,77.25,-0.0026855449999999906,0.5002441400000001,0.5290527349999999,0.5000094594227464,0.5000879326547752,0.5000187855896044,56.55,19.2,-7.95
0.04394531499999999,0.5563964849999999,0.28540039,0.4999847450369394,0.5000121906884929,0.4999807480584194,-8.25,29.7,14.7,0.294677735,0.48046875,0.96972656,0.5000061286364019,0.5000164540915232,0.4999925390665136,86.85,0.3,77.25,0.0,0.49902344,0.541503905,0.5000451653685837,0.5000766079986572,0.5000175865484083,56.55,19.2,-7.95
0.03686523499999998,0.5529785150000001,0.28540039,0.5000095926786348,0.5000196516219793,0.49998994105665556,-9.0,30.9,17.25,0.29345703,0.48364258,0.9743652349999999,0.5000135895698883,0.5000056622844258,0.4999808813143078,84.6,1.65,77.7,-0.006103515000000016,0.50463867,0.5378417950000001,0.500034040552665,0.5000326416712696,0.5000253805779825,57.9,19.35,-7.5
0.04028320500000001,0.5529785150000001,0.28588867,0.5000297771496347,0.5000017986490606,0.5000045298275406,-8.4,29.55,15.6,0.298583985,0.48974609500000005,0.96826172,0.5000245145456076,0.5000059953805135,0.49995276955784534,85.8,1.5,76.2,0.0031738300000000094,0.5002441400000001,0.5349121099999999,0.500050827740276,0.5000371049144993,0.5000299769898341,56.55,18.75,-7.65
0.03930664000000002,0.5524902349999999,0.287597655,0.5000311761182967,0.5000331746075567,0.49997441958181815,-8.4,29.55,15.6,0.30444336,0.48901367,0.966308595,0.4999961362773684,0.49999766841465226,0.49999573659696966,86.25,0.75,77.55,-0.00854491999999999,0.49609375,0.5344238299999999,0.5000822702830829,0.5000173200366316,0.49998481162125036,57.45,19.05,-7.8
0.04711914000000002,0.5505371099999999,0.282226565,0.5000362388821243,0.500020051302378,0.499959897395244,-8.1,31.05,15.3,0.29345703,0.48388672000000005,0.9665527349999999,0.5000217832798612,0.500005262604027,0.4999401125173763,86.25,0.75,77.55,-0.005615234999999984,0.49511719,0.53955078,0.5000679479367082,0.500042767198925,0.5000811378261978,55.5,20.25,-6.9
0.05102539000000002,0.5537109400000001,0.291503905,0.5000436998156108,0.5000341072242425,0.5000001332558884,-8.1,31.05,15.6,0.29980469,0.48828125,0.96435547,0.5000125903688916,0.5000033307863445,0.4999592312030685,86.55,1.05,77.25,-0.004150390000000016,0.49536133,0.5393066400000001,0.5001043866590319,0.4999995336480239,0.5000526929736476,56.4,18.3,-8.25
0.05371093999999999,0.5539550799999999,0.286865235,0.5000347067448405,0.49998347932416587,0.5000164540915232,-9.45,28.8,15.6,0.299072265,0.48535156,0.967285155,0.5000431668793237,0.5000127236247799,0.4999429770390112,87.15,-0.45,77.4,-0.0007324199999999905,0.5100097650000001,0.53564453,0.5000588881943605,0.5000189854298038,0.49999780167054064,56.55,18.0,-7.95
0.05932616999999999,0.560058595,0.28442383,0.500056156928614,0.5000397029243573,0.5000188522611819,-9.45,28.8,15.6,0.35058594,0.48925781,0.9748535150000001,0.5000343736487528,0.5001029877776364,0.49993051992600795,87.15,1.95,77.4,-0.003662109999999984,0.502929685,0.5339355450000001,0.5000879326547752,0.49998760947130777,0.5000230489926347,56.55,18.0,-7.95
0.06030273499999998,0.5563964849999999,0.28417969,0.5000357726174147,0.5000320421506715,0.5000498951235901,-8.1,29.25,16.05,0.251953125,0.50048828,0.963378905,0.5000420344224386,0.5000317090545837,0.4999551010559266,87.15,1.95,77.4,-0.00048827999999997475,0.52294922,0.520996095,0.5000456983048708,0.5000142557620638,0.5000432335509012,56.1,20.85,-7.5
0.056640625,0.5563964849999999,0.28564453,0.500060087322823,0.5000149885385503,0.500018052813118,-8.1,29.85,16.05,0.29638672,0.49243164,0.967773435,0.5000209839190638,0.5000231155769457,0.49995017154798727,85.65,-0.45,77.4,-0.014404295000000048,0.5212402349999999,0.5388183599999999,0.5002115045838103,0.4999389134761802,0.49991006894323126,54.75,18.75,-7.65
0.0546875,0.5607910150000001,0.279785155,0.500024780970118,0.500057555897276,0.49999114009785167,-8.4,29.85,16.05,0.293945315,0.5017089849999999,0.9807128900000001,0.4999972021499426,0.500013389729689,0.49994177791054856,88.05,0.75,76.2,-0.0017089849999999843,0.5246582049999999,0.5300292950000001,0.5001207740789777,0.4999580321618724,0.5000315092143844,56.7,19.8,-8.55
0.05200195500000001,0.5593261700000001,0.275634765,0.5000410352214418,0.5000239150250096,0.5000211837592632,-8.7,29.25,16.65,0.295654295,0.505126955,0.9641113299999999,0.500017986228807,0.49998827566348325,0.4999474402822408,86.7,0.45,77.1,-0.011962890000000016,0.5227050799999999,0.536621095,0.5001107818072106,0.49997262102002393,0.5000265796191786,56.4,20.1,-8.85
0.05004883000000001,0.56689453,0.280029295,0.5000392365723811,0.500040036020445,0.4999908736733413,-8.7,29.25,16.65,0.296875,0.5146484400000001,0.9606933599999999,0.5000106584639425,0.4999692902336795,0.4999350497535486,86.7,0.45,77.1,0.0048828149999999935,0.521972655,0.5322265650000001,0.5000974586618326,0.49998967454487875,0.5000479632186411,56.4,20.55,-8.25
0.05224609500000003,0.560058595,0.28149414,0.5000389701478708,0.5000582220894514,0.49998274654767944,-9.15,28.5,16.05,0.29272461,0.50341797,0.95703125,0.500036105626236,0.49999353826751036,0.49992239280034606,87.15,0.45,77.4,-0.011962890000000016,0.5314941400000001,0.536621095,0.5001187756769842,0.4999675581689298,0.5000187190052935,56.25,18.45,-6.9
0.05786133000000001,0.5627441400000001,0.280029295,0.500062818501303,0.4999832128996555,0.49999080700176385,-9.0,28.65,16.8,0.298828125,0.509033205,0.9685058599999999,0.5000004663519761,0.49999660262934453,0.49994057886935245,87.6,1.05,77.55,0.0012207050000000094,0.5231933599999999,0.5363769549999999,0.5000938613637114,0.5000007327764865,0.5000606868434211,56.25,18.45,-6.9
0.05395508000000001,0.556640625,0.28417969,0.500066215959225,0.5000119241767161,0.50001072513552,-7.65,29.25,15.6,0.295166015,0.5168457049999999,0.947753905,0.5000217166955503,0.5000111914002296,0.4999269892994641,87.6,1.05,77.55,-0.00390625,0.525390625,0.5400390650000001,0.5000784065604513,0.49997441958181815,0.500070945626965,55.65,19.05,-7.8
0.05859375,0.5583496099999999,0.27734375,0.5000389701478708,0.5000209839190638,0.49996322818158856,-7.65,29.25,15.6,0.293945315,0.5119628900000001,0.96435547,0.4999965359577671,0.49999786834211807,0.49992132692777186,86.85,0.0,78.0,-0.005371095000000025,0.5310058599999999,0.537597655,0.500111647752319,0.49997768378385166,0.4999922059704259,55.65,19.05,-7.8
0.05346679499999999,0.56298828,0.279785155,0.5000582886737623,0.4999891416958581,0.4999662924561562,-9.0,29.4,15.75,0.29711914,0.505126955,0.97216797,0.500002598009858,0.5000148552826619,0.4999396462526666,85.65,1.65,76.65,0.008300779999999975,0.5339355450000001,0.5344238299999999,0.5001041868188325,0.49999960031960133,0.5000500949637895,55.2,19.5,-7.95
0.05932616999999999,0.5556640650000001,0.287841795,0.5000670819043334,0.4999508376528963,0.5000028644343684,-8.7,28.5,15.6,0.30517578,0.5017089849999999,0.97216797,0.5000258468426921,0.4999968690538548,0.49995610034418986,86.25,-1.05,79.35,0.0026855449999999906,0.5300292950000001,0.5478515650000001,0.5001061187237816,0.50000872664626,0.4999878759830846,56.25,19.95,-6.9
0.06225585999999998,0.5573730450000001,0.27758789,0.5000209173347528,0.5000093928384355,0.49996142953252787,-10.05,29.7,15.6,0.299316405,0.51098633,0.9748535150000001,0.5000323751594928,0.5000087932305709,0.4999387802202918,86.25,-1.05,79.35,0.0026855449999999906,0.5341796900000001,0.5261230450000001,0.5000912634411198,0.5000227825681245,0.4999894081203684,53.85,19.35,-9.3
0.06005859500000003,0.55419922,0.28125,0.5000494287716141,0.49999160644982776,0.499966558967933,-10.05,29.7,15.75,0.306152345,0.5153808599999999,0.975097655,0.5000094594227464,0.4999922725547368,0.49993744792320727,85.65,0.45,77.7,0.006591794999999991,0.5341796900000001,0.5505371099999999,0.5000655497670494,0.4999990673833142,0.4999784831446491,55.65,18.6,-6.75
0.06030273499999998,0.5595703150000001,0.283447265,0.5000592878747592,0.49997841656033815,0.4999503713881866,-9.15,29.25,17.4,0.295410155,0.506591795,0.9641113299999999,0.500035372937016,0.5000089930707703,0.49990727109317384,86.25,-0.75,77.25,0.004150390000000016,0.5344238299999999,0.537109375,0.5000934616833126,0.5000187190052935,0.5000262465230909,56.1,19.05,-7.2
0.05688476500000002,0.56298828,0.28417969,0.5000427006146141,0.500011258071807,0.4999680911052169,-9.15,29.25,17.4,0.29345703,0.5187988299999999,0.96484375,0.49997735068776394,0.4999802151221323,0.4999353828496363,86.25,-0.75,78.0,0.0014648450000000254,0.5290527349999999,0.5283203150000001,0.5001095160944371,0.4999922059704259,0.4999862771742233,55.35,19.8,-8.25
0.06225585999999998,0.560058595,0.28149414,0.5000723445956269,0.4999714884758723,0.49997495251810525,-8.25,28.95,16.2,0.286865235,0.5148925799999999,0.9655761700000001,0.49997628481518974,0.5000135895698883,0.49995336907844334,86.4,-1.2,76.05,0.014160154999999975,0.5400390650000001,0.5349121099999999,0.5001113146562313,0.5000104586237432,0.4999882089919058,55.35,19.8,-8.25
0.056640625,0.5573730450000001,0.28491211,0.500057555897276,0.49995949771484527,0.49997428641319624,-9.3,29.4,16.2,0.297851565,0.50390625,0.966796875,0.499981947186882,0.49997928250544654,0.4999490390911021,85.95,-1.65,78.45,0.0026855449999999906,0.5380859400000001,0.5368652349999999,0.5001158445710383,0.49998867534388197,0.4999794157613349,55.35,19.8,-8.25
0.06030273499999998,0.5573730450000001,0.287841795,0.5000431002950128,0.4999774172720749,0.4999624288207911,-8.55,28.95,16.5,0.305664065,0.5061035150000001,0.98095703,0.49995443495101755,0.4999692902336795,0.4999534356627543,88.5,-0.45,78.45,0.005371095000000025,0.5344238299999999,0.524902345,0.5000135229855773,0.500028711364327,0.4999828131319904,55.65,18.6,-8.25
0.05712890499999997,0.549316405,0.286865235,0.5000470972735328,0.4999687572973924,0.4999812809947065,-8.55,28.95,16.5,0.309570315,0.502685545,0.971191405,0.500015987739547,0.499995336916571,0.49995796557756145,88.5,-0.45,78.45,0.011962890000000016,0.5261230450000001,0.533691405,0.500054091855043,0.5000500282922121,0.4999956033410813,56.55,18.75,-7.65
0.048828125,0.557128905,0.28930664,0.5000806048899107,0.49996249540510207,0.4999976018303413,-9.9,29.25,15.6,0.302001955,0.49902344,0.956054685,0.5000105252953206,0.499984678365362,0.4999172633649409,86.85,0.0,77.55,-0.0009765600000000063,0.5244140650000001,0.5380859400000001,0.5000390367321818,0.5000600206512457,0.49997308728473366,56.55,18.75,-7.95
0.04467773499999998,0.553222655,0.286132815,0.5000774073594546,0.4999546347912169,0.499949172259724,-9.3,29.7,15.15,0.30078125,0.490478515,0.95800781,0.49999746857445293,0.49998454519674007,0.49991213401680223,85.35,-0.15,77.4,0.01635741999999999,0.5168457049999999,0.5222167950000001,0.5000506944843875,0.5000377044350973,0.49996609261595687,55.8,18.45,-7.95
0.03808593999999999,0.553222655,0.29272461,0.5001093162542377,0.49996349460609885,0.49997828330444977,-8.55,27.9,16.5,0.30029297,0.48413086,0.95263672,0.49998241345159167,0.49998547781342584,0.49993638205063307,85.5,-0.75,77.55,0.0068359399999999935,0.50463867,0.5290527349999999,0.5000764747427687,0.5001123805288055,0.49997082237096335,55.2,19.5,-9.0
0.03686523499999998,0.546875,0.291015625,0.5001155114749506,0.49993051992600795,0.4999950704047942,-10.05,27.9,14.7,0.30932617,0.474609375,0.9609375,0.5000040635628309,0.5000063950609122,0.49993684840260927,85.5,-0.75,77.55,0.004394529999999975,0.49682617,0.5314941400000001,0.5000891316959714,0.5000991906393157,0.4999859440781355,56.25,17.7,-7.65
0.03247070500000001,0.545410155,0.299072265,0.500098191438319,0.4999415780703492,0.49999200613022643,-10.05,27.9,14.7,0.30493164,0.458740235,0.95751953,0.49997348696513233,0.4999928721626013,0.499901808561681,86.85,-1.8,77.55,0.014648439999999993,0.48291015499999995,0.50708008,0.5001456883922505,0.500082203698772,0.5000155214748374,56.25,17.7,-7.65
0.03881835999999998,0.5402832049999999,0.299072265,0.500124970897697,0.49993791427518347,0.5000373713390096,-8.25,26.4,16.5,0.314697265,0.42919922,0.9660644549999999,0.5000054624442265,0.500035372937016,0.49987696091998557,84.9,-0.45,77.7,0.005859375,0.47412109500000005,0.5139160150000001,0.5001120474327178,0.5001237051849234,0.5001009227040655,56.1,18.6,-8.55
0.04296875,0.53125,0.286621095,0.5001796623606046,0.4999770175916762,0.5000151883787497,-8.4,27.3,15.0,0.309814455,0.423339845,0.966796875,0.5000409686371309,0.5000149885385503,0.4998501814606076,84.9,-0.45,77.7,-0.0007324199999999905,0.458251955,0.5300292950000001,0.5002595344740288,0.5000836692517449,0.5000829364752585,55.2,18.0,-10.05
0.03222656499999999,0.52734375,0.279541015,0.5001612097798215,0.499979882113311,0.5000132564738006,-9.15,27.75,16.35,0.303222655,0.427978515,0.95703125,0.5000643507258533,0.5000377044350973,0.49983539284952316,84.6,-1.95,78.15,0.0012207050000000094,0.456054685,0.520996095,0.5001930520902935,0.5000738101485998,0.5000724111799378,55.65,18.3,-8.85
0.03222656499999999,0.5319824200000001,0.28173828,0.5001759984781724,0.4999813476662839,0.5000140559218645,-8.7,28.05,15.3,0.28198242,0.42529297,0.951660155,0.5000933950990016,0.5000079938697736,0.49978496478964585,85.65,-0.45,77.4,-0.005859375,0.45654297,0.532714845,0.5002250941536986,0.5000781401359411,0.500033973968354,56.1,18.3,-9.9
0.028808595000000024,0.5380859400000001,0.27783203,0.5002049096826987,0.49999660262934453,0.5000207840788644,-8.7,29.25,16.65,0.24291991999999998,0.432373045,0.9621582049999999,0.5001139793376667,0.5000047963393174,0.4998003530085949,86.55,-0.75,77.25,-0.016113280000000032,0.48388672000000005,0.5380859400000001,0.5002186324212089,0.500092928834292,0.5000780734643636,56.4,18.3,-9.3
0.03759765499999997,0.5439453150000001,0.283935545,0.5001971156531245,0.5000115910806283,0.4999976018303413,-9.45,27.75,15.6,0.283691405,0.458251955,0.9919433599999999,0.5001592112905614,0.5002596010583398,0.49973500308174473,86.55,-0.75,77.25,-0.03149414000000002,0.5153808599999999,0.5319824200000001,0.5001967158854593,0.5000336408722663,0.5000206508229761,55.65,16.35,-9.3
0.041015625,0.5349121099999999,0.28515625,0.5002274257390463,0.5000018652333716,0.5000108583041419,-7.95,26.1,16.2,0.24438476499999998,0.50341797,0.948242185,0.5000177863886077,0.5001025214256604,0.49979935372033163,86.55,-0.75,77.25,-0.021484375,0.53076172,0.5275878900000001,0.500186656942115,0.5000279119162632,0.5000215168553509,55.65,16.35,-9.3
0.05566406499999999,0.5380859400000001,0.290039065,0.5001981814384322,0.5000069279971994,0.5000053958599154,-8.25,28.65,15.75,0.283203125,0.498046875,0.986816405,0.500060087322823,0.5000500949637895,0.4997937580202168,86.4,-0.15,77.1,-0.034423829999999954,0.5544433599999999,0.5441894549999999,0.5001508177403892,0.49998307964376715,0.4999699563385885,56.25,18.45,-9.0
0.05395508000000001,0.5314941400000001,0.28027344,0.50017906275274,0.5000219165357496,0.49994144490172726,-8.25,28.65,15.75,0.290283205,0.49511719,0.9943847650000001,0.5000750757741068,0.5000309096065199,0.49980348395474,84.9,-1.95,77.4,-0.010742185000000007,0.572753905,0.50073242,0.500173733564402,0.49995263630195697,0.5000117243365167,56.25,18.45,-9.0
0.05615234500000003,0.5251464849999999,0.28027344,0.5001953835883749,0.5000536921746443,0.4999734203808214,-7.65,27.3,16.65,0.28442383,0.5126953150000001,0.9768066400000001,0.5000921960578055,0.5000001998401994,0.49978776263970326,85.05,-2.55,76.5,-0.00048827999999997475,0.5886230450000001,0.50341797,0.5001378943626763,0.4999791493368246,0.5000032642020336,56.25,17.4,-9.0
0.05322265499999997,0.513183595,0.268066405,0.500216567347638,0.5000529593981579,0.49994650766555504,-8.25,25.35,14.7,0.282958985,0.520996095,0.9670410150000001,0.5000676815121978,0.49999453755577355,0.49981047853625027,86.85,-2.25,77.55,-0.0068359350000000065,0.5832519549999999,0.5100097650000001,0.5001360291293048,0.500053425750134,0.5000267128750671,55.8,18.45,-8.7
0.05371093999999999,0.51074219,0.263183595,0.5001993805668948,0.500064816990563,0.4999297204779441,-7.95,25.65,16.8,0.27709961,0.508789065,0.9548339849999999,0.5000476967941307,0.5000135229855773,0.49985237979006697,86.85,-2.25,78.6,-0.01269531500000005,0.56298828,0.513671875,0.5000870666224003,0.500068347617107,0.5000248476416954,55.2,17.4,-9.75
0.05249023499999998,0.50732422,0.26855469,0.5001993138953174,0.5000478966343301,0.4999523032058692,-9.0,24.9,15.75,0.278564455,0.50317383,0.955566405,0.5000445658479856,0.5000182526533173,0.4998593077872663,86.7,-3.15,76.35,-0.007324220000000025,0.5505371099999999,0.51611328,0.5000836692517449,0.5000577557374754,0.5000496286118133,54.9,17.1,-8.85
0.05151366999999999,0.49951172000000005,0.265625,0.5002334877911373,0.5000163874199458,0.4999580321618724,-9.0,24.9,15.75,0.28540039,0.50463867,0.96044922,0.5000405688694657,0.5000205176543542,0.4998744295817049,86.7,-3.15,76.35,-0.0007324199999999905,0.5419921900000001,0.52294922,0.5000905972489442,0.5000484961549282,0.5000452986244721,54.9,17.1,-8.85
0.05859375,0.49584961,0.25756836,0.5002027113532393,0.5000215168553509,0.49995536756770337,-9.45,25.5,15.3,0.291503905,0.5,0.96972656,0.5000596209708469,0.5000229824083238,0.499859640883354,85.95,-2.7,77.1,0.004394529999999975,0.5314941400000001,0.5202636700000001,0.500068813969083,0.5000598208110463,0.5000568897051004,55.8,16.2,-9.75
0.06201172000000003,0.486572265,0.26245117,0.5001846585401214,0.5000345734889522,0.49992858802105894,-8.55,25.35,15.45,0.282226565,0.51123047,0.9709472650000001,0.5000562901845024,0.5000347067448405,0.4998966125419648,86.4,-1.95,77.1,-0.001953125,0.5324707049999999,0.5280761700000001,0.5000425673587257,0.5000424341901037,0.5000405688694657,55.8,16.2,-9.75
0.06127929499999999,0.49243164,0.263183595,0.5002169004437258,0.49998687669482134,0.49995689970498725,-9.15,24.3,16.05,0.28930664,0.5114746099999999,0.97607422,0.5000431002950128,0.5000157213150367,0.4998908170016507,86.4,-3.45,78.45,-0.005615234999999984,0.52001953,0.525390625,0.500050827740276,0.5000151883787497,0.5000329747673573,55.8,16.2,-9.75
0.05786133000000001,0.49853515499999995,0.26928711,0.5001787297439187,0.4999910069292297,0.49995197010978143,-9.15,24.3,16.05,0.28515625,0.50854492,0.9689941400000001,0.500031309374185,0.5000202511425773,0.4999109348883396,86.4,-3.45,78.45,-0.004394529999999975,0.533203125,0.525390625,0.50001945178178,0.49999333842731103,0.5000553575678166,54.6,17.1,-9.9
0.05493164000000002,0.491210935,0.271728515,0.5001676049280002,0.4999551010559266,0.49996276182961236,-8.25,23.85,15.15,0.29614258,0.50341797,0.967285155,0.5000129234649794,0.5000196516219793,0.49992199311994734,87.6,-3.0,76.95,-0.004394529999999975,0.5280761700000001,0.5197753900000001,0.5000265130348677,0.49998307964376715,0.5000367052341005,55.8,17.7,-9.75
