IMU1_AccX,IMU1_AccY,IMU1_AccZ,IMU1_GyrX,IMU1_GyrY,IMU1_GyrZ,IMU1_MagX,IMU1_MagY,IMU1_MagZ,IMU2_AccX,IMU2_AccY,IMU2_AccZ,IMU2_GyrX,IMU2_GyrY,IMU2_GyrZ,IMU2_MagX,IMU2_MagY,IMU2_MagZ,IMU3_AccX,IMU3_AccY,IMU3_AccZ,IMU3_GyrX,IMU3_GyrY,IMU3_GyrZ,IMU3_MagX,IMU3_MagY,IMU3_MagZ
-967.77344,313.96484,186.03516,-0.1228392398150893,-0.0783399761403914,-0.0732771250462063,4.5,34.05,43.2,354.98047,86.42578,911.62109,0.0732771250462063,0.0158545709251164,-0.1803951370910315,46.5,13.5,93.3,-584.96094,71.77734,783.69141,0.2070414278470793,-0.011191400229638,0.0314426300734534,49.8,25.5,40.35
-970.70312,306.64062,197.75391,-0.1791960958949114,-0.0438330714992115,-0.059687642424328,4.5,34.05,43.2,368.16406,86.42578,900.87891,0.0094593354799588,0.0482297304179105,-0.2280918439553829,45.75,15.45,93.3,-568.35937,65.42969,808.59375,0.2587351132314229,-0.0210505906412288,-0.0433002224785777,49.95,26.7,38.7
-936.52344,299.31641,192.38281,-0.0911300979648563,-0.0564900247017492,-0.0648836621404404,4.5,34.05,43.2,360.35156,84.96094,916.01562,0.0230489926347623,0.0181194846954295,-0.2672619192920413,45.75,15.45,93.3,-583.98437,80.56641,810.54687,0.2625987485965628,0.0050628510941851,-0.0578224090527217,49.8,27.75,38.55
-931.64062,292.96875,198.73047,-0.1171101965454179,-0.0286446927495813,0.0166539317225298,5.1,34.5,43.05,372.07031,78.61328,917.96875,0.0527595579585365,0.0286446927495813,-0.2696600016842815,47.1,14.4,93.15,-593.75,86.42578,814.45312,0.2752557017991005,0.0011990411961201,-0.0893982077481023,50.1,27.75,38.55
-919.92187,281.73828,193.35937,-0.0933951862680945,0.0508943245869302,-0.0608866836204481,5.1,33.45,42.3,359.375,93.26172,916.01562,0.0425006871482391,0.0660827033365605,-0.2941745472919434,46.8,14.25,91.5,-589.35547,100.58594,827.63672,0.2965728042171088,-0.0287778613715085,-0.1204409828899239,50.1,27.75,38.55
-942.38281,276.85547,197.26562,-0.0106585512090041,0.0203843984657425,-0.0115910806283447,4.35,34.2,42.75,372.55859,82.51953,947.75391,0.0229158240128351,0.036238969390859,-0.3144257771357588,49.35,15.75,93.3,-590.82031,92.28516,846.19141,0.2936416982713096,-0.0430337107017981,-0.0976585020319411,49.95,26.7,38.7
-929.19922,287.59766,208.49609,-0.0002665117767795,0.0298437339457014,0.0423675185263119,4.35,34.2,42.75,388.18359,85.9375,958.00781,0.0532925815120956,-0.0038636353651398,-0.3220198792441113,49.35,15.75,93.3,-601.07422,116.21094,853.51562,0.3466675934737005,0.006128723668378,-0.1193751103157309,49.95,26.7,38.7
-950.19531,296.38672,202.14844,-0.0071944217096458,0.1557472483285172,-0.0142556747973644,5.4,33.45,41.25,373.53516,94.72656,978.02734,-0.0017320647496791,-0.023981696587028,-0.3677181841149293,47.4,13.65,92.7,-597.65625,108.39844,846.19141,0.3472006170272596,0.0062618922903052,-0.0932618431132422,49.8,26.55,38.55
-948.24219,310.54687,195.3125,-0.016787100344457,0.0977916706538682,-0.0198513749121835,4.95,32.1,42.9,385.74219,97.65625,974.12109,0.0439662401211387,-0.0467641774450108,-0.3637212055949371,46.8,15.0,94.05,-583.49609,130.85937,870.60547,0.3242847930144244,-0.0471638578437175,-0.1276355791324949,49.8,27.75,38.25
-964.84375,314.45312,205.07812,0.0576890658978693,0.0475635382424242,0.023981696587028,5.7,33.0,41.7,413.08594,128.41797,967.28516,0.0251807377831481,-0.0815375938629702,-0.3507979151485451,46.8,15.0,94.05,-565.42969,138.67187,871.58203,0.3968959004180697,0.0135896571548034,-0.1159111553492978,49.95,27.15,38.4
-964.84375,308.59375,207.03125,-0.0001331686219271,0.0456983048708179,-0.1184425808963904,4.5,32.1,43.2,423.82812,105.95703,976.5625,0.0009327039522657,-0.1240382810112094,-0.3144257771357588,48.3,14.25,94.35,-563.47656,136.23047,849.12109,0.342937301263413,-0.0286446927495813,-0.1128468807815713,48.75,26.55,39.0
-977.05078,287.10937,216.30859,0.0013323843509724,0.0123904414257581,-0.0811377389313384,4.5,32.1,43.2,427.24609,105.95703,935.54687,0.0460979852695246,-0.1600107386252889,-0.3710489704594353,47.1,13.65,92.4,-563.47656,143.55469,852.05078,0.3605237624052835,0.011191400229638,-0.0968591412345277,49.05,27.0,38.55
-968.26172,305.66406,218.26172,0.0754088701945922,-0.0520933657830503,-0.0397029243572922,4.65,33.75,42.75,439.45312,110.83984,922.85156,0.0099923590335179,-0.1141790905996186,-0.378643247100713,48.15,14.85,93.45,-541.50391,170.89844,825.68359,0.3729142038310416,-0.0222496318373489,-0.0895313763700295,48.45,25.65,37.35
-975.58594,279.29687,225.09766,0.0181194846954295,-0.0014655529728996,-0.1474869540446784,3.0,33.45,43.05,427.24609,123.53516,893.55469,-0.0006661921754862,-0.1095160944370653,-0.3677181841149293,48.15,14.85,93.45,-547.85156,179.19922,863.28125,0.3393400031421275,-0.0123904414257581,-0.1352296812408474,48.45,25.65,37.35
-976.07422,279.78516,233.88672,0.0143890179522168,-0.0085268060606182,-0.1520167815853045,5.1,34.95,42.3,429.19922,130.37109,900.87891,0.0207840788644492,-0.0222496318373489,-0.3060321396970677,48.9,14.1,94.2,-545.89844,211.42578,842.28516,0.3653201017226891,0.064750318985588,-0.064750318985588,51.0,28.2,38.4
-977.05078,268.55469,219.72656,0.0301102457224809,-0.0839356762552105,-0.0951270764848485,5.25,32.85,42.15,428.22266,157.22656,913.57422,0.0265129476011954,0.0034639549664331,-0.3430704698853402,48.45,14.1,94.5,-559.57031,212.89062,783.69141,0.287779486379711,-0.0459648166475974,-0.1201746456460695,50.55,27.75,38.25
-960.9375,248.04687,223.63281,0.0430337107017981,-0.0365053066347134,-0.2067749160702998,5.25,32.85,42.15,395.50781,173.82812,895.99609,0.059154618870769,0.0171867807431637,-0.3077642044467469,47.25,13.5,94.05,-529.29687,229.49219,788.08594,0.3109616476364005,-0.0510274932088574,-0.0995237354035474,49.65,28.2,37.65
-957.03125,249.51172,238.28125,-0.004529827540626,0.0213169278850831,-0.1576124817001235,5.25,32.85,42.15,363.76953,189.45312,899.90234,0.0175864611418704,0.0035972981212855,-0.3138927535821997,48.15,15.15,93.15,-542.96875,246.09375,766.60156,0.2348867597992472,-0.0448989440734045,-0.1088499022615791,49.2,26.4,37.35
-967.77344,256.34766,231.44531,0.0615528757959344,0.0035972981212855,-0.1616094602201157,5.25,32.55,42.9,340.33203,186.52344,862.79297,-0.0027979373238721,-0.0417013263508257,-0.2427473736843793,48.3,13.5,95.4,-527.83203,220.21484,752.92969,0.1538820149569108,-0.0738101485997654,-0.0506278128101507,50.55,28.5,37.95
-966.79687,267.57812,256.83594,0.0161209081689708,0.055823832526263,-0.1352296812408474,3.75,34.8,42.6,370.60547,189.94141,829.10156,-0.032908183046353,0.0219831200605693,-0.2138361691580184,49.05,13.95,93.3,-516.11328,233.39844,786.62109,0.1064518198693389,0.0009327039522657,-0.0937948666668012,49.8,27.0,37.5
-936.03516,272.94922,259.76562,-0.0374380105869791,0.0318423104721601,-0.1656064387401079,4.95,32.1,41.85,399.90234,161.13281,853.02734,-0.0638177895662474,-0.027312482931534,-0.1977150864561224,49.05,13.95,93.3,-510.74219,217.28516,824.70703,-0.036238969390859,-0.0099923590335179,-0.0620857248165682,49.8,27.0,37.5
-917.96875,274.90234,274.41406,-0.0720780838500862,-0.0047963393174056,-0.1446891912537315,4.95,32.1,42.15,437.98828,150.39062,854.49219,-0.0538254305327295,-0.039569755735365,-0.1430902951259795,48.15,15.15,93.75,-502.92969,213.86719,838.37891,-0.0510274932088574,0.0500949637895168,-0.0492956029921034,49.8,28.5,37.5
-895.50781,241.21094,311.03516,-0.0527595579585365,-0.1009892883764471,-0.1077840296873862,4.95,32.1,42.15,450.68359,150.87891,828.125,-0.0604870032217414,-0.0390367321818059,-0.1296339811260284,48.15,14.85,92.7,-475.09766,262.20703,892.08984,-0.087532974376496,-0.0050628510941851,-0.0297105653237742,49.8,28.5,37.5
-878.90625,246.58203,323.24219,-0.1277687477544221,-0.0381042027624654,-0.1019218177957876,4.5,33.3,41.85,496.09375,149.90234,845.21484,-0.0602204914449619,-0.0810045703094112,-0.1035207139235396,48.45,13.65,92.4,-462.89062,232.91016,875.0,-0.1582786738756097,0.0151883787496302,0.0031976177225788,49.8,28.5,37.5
-870.60547,217.77344,326.66016,-0.0907304175661496,-0.1063184767144865,-0.0579555776746489,5.4,32.7,41.25,513.67187,167.48047,835.44922,-0.0393032439585855,-0.0644839817417337,-0.0909969293429291,48.45,13.65,92.4,-464.84375,221.67969,871.09375,-0.0730107878023519,0.0355727772153728,-0.0155880591483369,49.8,27.3,39.3
-862.79297,180.66406,320.80078,-0.077007591789419,0.0110582316077108,-0.0544916227082157,6.0,32.55,42.6,508.30078,176.26953,848.14453,-0.0178529729186499,-0.0598208110462552,-0.0189188454928429,47.55,15.45,93.3,-476.07422,222.16797,872.07031,-0.0531592383572432,-0.0138559943986577,0.0231821612566894,50.85,27.75,38.55
-871.09375,180.17578,310.54687,-0.0911300979648563,0.0550244717288496,-0.1624088210175291,5.25,32.85,42.9,504.39453,194.33594,871.58203,-0.0382373713843925,-0.0471638578437175,-0.0093261668580317,49.35,13.2,93.6,-495.11719,219.23828,893.06641,0.0258469299586344,0.0213169278850831,-0.049162259837251,51.45,27.9,38.7
-871.58203,187.5,299.31641,-0.0243813769857347,0.0516936853843436,-0.077540615342978,5.25,32.85,42.9,478.02734,210.44922,891.11328,-0.0612863640191548,-0.1044532433428802,0.0143890179522168,49.35,13.2,93.6,-503.41797,209.47266,909.66797,0.032908183046353,0.023981696587028,-0.0977916706538682,49.35,28.05,37.2
-929.19922,180.66406,291.50391,-0.0467641774450108,0.1113813278086717,-0.0812710820861907,5.1,32.4,42.3,477.53906,199.70703,870.11719,-0.0885988469506889,0.0121241041819038,0.0935283548900217,49.35,13.2,93.6,-531.25,159.66797,913.08594,0.0893982077481023,-0.0355727772153728,-0.0800720408900706,50.85,27.3,37.5
-952.14844,198.73047,275.87891,-0.0411684773301918,0.1538820149569108,-0.0800720408900706,5.1,32.7,42.3,479.49219,153.80859,940.42969,-0.1477534658214579,0.0989908863829135,0.1133797298022052,47.7,12.6,94.5,-533.20312,121.09375,939.94141,0.0544916227082157,-0.0650168307623675,-0.1100489434576992,49.05,28.05,38.25
-956.05469,197.26562,246.09375,-0.0282450123508746,0.1497518678149914,-0.0343737360192527,4.5,32.85,42.15,493.16406,103.02734,1003.90625,-0.0972588216332344,0.1045865864977326,0.0751423584178126,47.4,14.4,94.5,-541.50391,113.28125,923.82812,0.1041869060990259,-0.0118575924051242,-0.1159111553492978,49.05,28.05,38.25
-947.75391,217.28516,244.14062,-0.0409019655534123,0.2208974222457371,0.0091929982361045,5.55,33.3,41.85,466.30859,66.89453,1078.125,-0.1112481591867445,0.0369049870334201,0.0159877395470436,47.55,13.2,93.3,-576.17187,93.75,900.39062,0.1151117945518844,-0.0213169278850831,-0.1341638086666545,49.95,27.9,38.1
-959.96094,204.58984,214.84375,-0.04849624219469,0.1843921156110237,0.0105252080541518,5.55,33.3,41.85,434.08203,68.35938,1044.92188,-0.0375711792089063,-0.0495619402359577,0.0141225061754373,47.55,13.2,93.3,-587.40234,102.05078,928.71094,0.157878993476903,-0.0143890179522168,-0.2031776179490143,49.95,27.9,38.1
-949.70703,229.00391,197.75391,-0.0163874199457503,0.1271025555789358,0.1296339811260284,5.4,32.7,42.0,417.48047,73.73047,977.53906,0.0,-0.0442327518979182,-0.0154548905264097,47.4,14.1,93.15,-581.05469,113.76953,928.71094,0.118842261295097,-0.0584886012282079,-0.1360290420382608,50.7,27.9,39.15
-956.54297,236.81641,194.33594,-0.0500949637895168,0.1606769308007752,0.0744763407752516,4.35,32.7,41.7,410.64453,84.47266,1002.44141,-0.0744763407752516,-0.0274456515534612,-0.0210505906412288,48.0,12.45,95.4,-574.21875,96.19141,856.44531,0.0832694840797242,-0.0516936853843436,-0.1378942754098671,49.95,27.15,39.15
-935.05859,245.11719,196.77734,-0.0494287716140306,0.1484196579969441,0.0790061683158777,4.95,33.6,41.85,408.20312,80.56641,991.69922,-0.0495619402359577,-0.0519601971611231,-0.0347734164179594,47.7,13.65,93.45,-553.71094,115.72266,861.81641,0.0634181091675407,-0.0815375938629702,-0.0925956509377559,49.35,27.75,39.0
-961.42578,256.34766,193.35937,-0.0555574952824086,0.1231057515918688,0.1317657262744143,5.25,32.55,42.6,418.45703,83.98438,953.125,-0.08420218803199,-0.1257703457608885,-0.0258469299586344,47.55,13.2,92.85,-554.6875,133.78906,874.02344,0.1183094122744632,-0.069680001457846,-0.2133031456044594,50.25,25.65,38.4
-974.60937,255.85937,181.15234,-0.1477534658214579,0.1408253813556664,0.1077840296873862,5.25,32.55,42.6,421.38672,91.30859,893.55469,-0.1388269793621329,-0.0319754790940873,0.0002665117767795,47.1,12.9,93.45,-560.54687,159.66797,836.42578,-0.0033307863445059,-0.093128674491315,-0.1482863148420918,50.55,26.55,39.0
-988.28125,263.18359,184.08203,-0.1890551117735769,0.0486294108166172,0.1320322380511938,4.35,34.2,41.25,398.92578,86.42578,878.41797,-0.1333644478692411,-0.0105252080541518,0.0217166082837898,49.2,13.65,93.45,-537.10937,176.75781,801.26953,0.016787100344457,-0.0650168307623675,-0.1637412053685016,50.7,27.15,40.5
-980.46875,247.07031,183.10547,-0.1374945950111605,0.0287778613715085,0.1374945950111605,4.65,31.95,41.7,429.19922,96.67969,876.46484,-0.1287014517066878,-0.0478300500192038,0.0146553551960711,49.2,13.65,93.45,-537.10937,187.98828,843.75,-0.0086599746825454,-0.0426340303030914,-0.1003230962009608,50.7,27.15,40.5
-967.28516,237.30469,177.73437,-0.1821270273077855,0.0726111074036452,0.1279019163763492,4.95,32.85,42.15,399.41406,84.96094,876.46484,-0.1648070779426945,0.0035972981212855,0.058088746296576,47.55,14.25,93.6,-542.96875,178.71094,817.87109,-0.060753514998521,-0.0283781809728018,-0.1795957762936181,50.55,26.25,40.05
-941.40625,249.51172,199.70703,-0.148952507017578,0.0514271736075641,0.1120475199841579,4.05,33.45,41.7,406.73828,102.05078,900.39062,-0.0901975685455157,-0.0407687969314851,0.0782068075184643,47.4,12.9,93.75,-545.41016,195.3125,824.70703,-0.0185191650941362,0.0030642745677264,-0.179062752740059,50.55,26.25,40.05
-926.26953,237.79297,203.61328,-0.1075176924435318,0.0011990411961201,0.1189754299170242,4.05,33.45,41.7,409.66797,94.23828,899.90234,-0.1183094122744632,-0.0599539796681824,0.1216401986189692,46.8,13.2,94.35,-546.38672,189.94141,814.94141,-0.1269693869570086,-0.0322419908708668,-0.1004564393558132,50.85,28.05,38.55
-914.0625,234.86328,220.21484,-0.0981913510525749,0.0097258472567384,0.1125803690047918,4.65,34.5,43.05,416.01562,89.35547,925.29297,-0.1404257009569597,-0.0554241521275563,0.0511608363637097,46.8,13.2,94.35,-541.50391,171.875,790.03906,-0.093128674491315,-0.0503614755662963,-0.0911300979648563,49.8,25.5,39.3
-936.03516,229.98047,187.98828,-0.0980581824306478,0.0415681577288985,0.0688804661275074,5.4,33.75,42.75,416.01562,96.67969,912.10937,-0.1334976164911682,-0.0611531953972277,0.0904640803222952,48.15,13.65,93.75,-552.73437,125.97656,811.52344,-0.0679479367081668,-0.0436999028772844,0.0158545709251164,51.0,27.15,38.7
-968.75,203.61328,185.54687,-0.051827028539196,0.0146553551960711,0.1159111553492978,5.55,32.85,42.6,406.25,62.01172,904.29687,-0.0836691644784309,-0.0214502710399355,0.0830031468358699,46.8,12.45,94.65,-551.26953,139.64844,808.59375,-0.0640843013430269,-0.0331745202902074,-0.070346019100407,50.55,27.0,37.5
-961.42578,210.9375,175.78125,-0.0161209081689708,0.0582220894514284,0.0843353566539172,5.55,33.6,41.55,396.97266,60.05859,904.29687,-0.0678147680862396,-0.0281118437289474,0.0963261176809686,47.1,13.35,93.45,-569.82422,119.62891,805.17578,-0.0218499514386422,0.0242480338308824,-0.0255804181818548,50.55,27.0,37.5
-983.39844,204.58984,182.61719,-0.0151883787496302,0.0299770771005538,0.045165455850184,5.55,33.6,41.55,384.76562,37.10938,925.78125,-0.0655498543159266,-0.015055210127703,0.0247810573844414,47.4,12.6,93.45,-576.66016,109.375,814.94141,-0.0127901218244648,0.0381042027624654,-0.0602204914449619,50.7,26.7,38.4
-996.09375,204.58984,162.10937,0.0515605167624164,0.0321086477160144,-0.0137228257767306,5.7,34.2,42.75,383.78906,55.17578,937.98828,-0.0261132672024887,0.0215834396618626,0.0125237845806105,47.1,12.9,94.2,-581.54297,107.42188,785.64453,0.0476967068643514,0.0550244717288496,-0.1129800494034985,49.8,25.5,37.2
-1004.39453,197.75391,153.32031,0.0839356762552105,0.0289112045263608,0.105385947295146,3.3,34.2,41.7,378.90625,70.3125,940.42969,-0.0121241041819038,0.0702128504784798,0.0023980823922402,48.9,12.9,94.2,-575.19531,104.00391,797.85156,0.0470306892217904,0.0623522365933478,-0.073676805444913,49.8,25.5,37.2
-1015.13672,207.51953,144.04297,0.058088746296576,0.0712787230526728,0.042900542079871,4.2,33.3,42.9,357.42187,51.75781,946.77734,-0.0291777163031404,0.1582786738756097,0.0177198042967228,48.9,12.9,94.2,-591.79687,119.62891,805.66406,0.1211071750654101,0.0778071271197576,-0.0381042027624654,50.25,27.45,38.1
-1017.57812,199.21875,142.08984,0.1549478875311037,0.0688804661275074,0.1273690673557154,4.95,34.05,41.1,374.51172,62.01172,943.35937,0.0259800985805615,0.1147121141531777,0.0137228257767306,47.55,12.45,93.3,-613.28125,129.88281,814.45312,0.0446324322966249,0.0995237354035474,-0.050228132411444,50.1,27.75,38.25
-1046.38672,194.33594,133.30078,0.1637412053685016,0.0038636353651398,0.1248376418086228,4.95,34.05,41.1,373.04687,86.42578,954.10156,-0.0089264864593249,0.1101822866125516,0.0122572728038309,47.25,12.75,92.55,-617.1875,140.625,786.62109,0.0716784034513795,0.093128674491315,-0.0917962901403425,50.25,26.7,39.15
-1022.94922,196.28906,108.39844,0.1524164619840112,0.0419678381276052,0.0979250138087206,4.65,34.2,41.7,348.14453,85.44922,934.57031,0.0487625794385443,0.1208406632886305,0.040235773377926,46.8,12.75,93.3,-620.60547,156.73828,794.43359,0.0919296332951949,0.1273690673557154,-0.1001899275790336,51.15,25.8,40.05
-1041.50391,156.73828,109.375,0.1698697545039545,0.0642174699649541,0.1594777150717298,5.55,33.3,41.85,352.05078,88.86719,950.68359,0.0046631706954784,0.1518836129633773,0.0401026047559989,46.8,12.75,93.3,-634.76562,135.74219,819.82422,0.0025314255470925,0.1548147189091766,-0.1015221373970809,51.15,26.25,39.6
-1037.59766,143.55469,96.19141,0.194650811888396,0.0687472975055802,0.3194884536970188,4.5,34.35,41.85,323.73047,95.70313,958.00781,0.0103920394322246,0.1552143993078833,0.0235820161883213,47.4,12.6,94.2,-660.64453,170.89844,802.73437,-0.0102588708102974,0.0700796818565527,-0.0776737839649052,50.1,27.0,39.6
-1013.18359,151.85547,109.86328,0.1685375446859072,0.1769310075916731,0.3460015758311394,4.5,34.35,41.85,334.47266,116.21094,968.75,-0.0460979852695246,0.0698131700797731,0.0783399761403914,47.4,12.6,93.45,-661.62109,182.61719,811.52344,-0.1013889687751538,0.1140459219776914,-0.0798055291132911,50.1,27.0,39.6
-1003.90625,179.6875,123.53516,0.2871132942042247,0.08420218803199,0.4319356540798835,4.5,34.35,41.85,335.44922,120.60547,984.375,-0.018385996472209,0.0334410320669869,0.0495619402359577,47.4,12.6,93.45,-642.57812,171.875,801.26953,-0.091529778363563,0.0827366350590903,-0.0431668793237253,49.95,27.15,38.7
-977.53906,181.64062,134.27734,0.2885788471771244,0.0213169278850831,0.5964762202457985,4.65,33.75,42.75,332.03125,136.23047,948.24219,-0.0363721380127862,0.0297105653237742,0.0512940049856369,47.7,13.35,91.95,-631.83594,203.125,801.26953,-0.1329647674705344,0.0069280844657914,-0.0295773967018471,49.95,27.15,38.7
-949.70703,220.70312,157.22656,0.2598009858056159,0.1157779867273706,0.4921561455248454,3.75,34.05,41.55,343.75,108.88672,918.94531,-0.0858009096268168,-0.0038636353651398,0.1005896079777403,47.4,13.35,94.2,-602.53906,196.77734,772.94922,-0.1698697545039545,-0.0205175670876697,-0.0381042027624654,51.0,26.7,38.7
-955.56641,233.88672,168.94531,0.2904440805487308,0.1458882324498516,0.5235987755982988,4.35,34.5,42.0,338.37891,107.91016,896.48437,-0.1175098769441246,0.0389035635598788,0.1736002212471671,47.4,12.15,93.15,-570.80078,200.19531,774.90234,-0.1414915735311527,-0.0139893375535101,-0.0137228257767306,51.15,26.25,37.2
-963.86719,277.34375,162.10937,0.2923093139203371,0.0802052095119978,0.4862939336332468,4.05,35.25,41.7,352.53906,64.45313,896.97266,-0.0895313763700295,0.034640073263107,0.213036808360605,47.4,12.15,93.15,-569.82422,173.33984,773.4375,-0.2777871273461931,0.0159877395470436,0.0042633157638465,50.7,24.6,38.1
-960.44922,304.6875,166.50391,0.2384838833876076,0.0909969293429291,0.4243415519715309,4.05,35.25,41.7,368.16406,84.47266,893.55469,-0.0137228257767306,0.0714118916745999,0.2047763395438411,47.4,12.15,93.15,-539.0625,194.82422,803.22266,-0.300036759183542,0.0297105653237742,0.046897346066938,51.45,24.9,38.4
-979.98047,311.52344,184.57031,0.219698381049617,0.1175098769441246,0.4429938856875943,1.8,33.75,41.25,391.60156,72.75391,892.08984,-0.0258469299586344,0.0899310567687362,0.269926513461061,47.1,13.35,94.2,-547.85156,198.73047,785.64453,-0.2836493392377916,0.0135896571548034,0.0472970264656447,49.8,24.3,38.55
-993.16406,321.28906,191.40625,0.2283583557321624,0.0640843013430269,0.4513873485933602,3.45,35.1,40.05,408.69141,87.40234,887.20703,-0.037970859607613,0.0543582795533633,0.2879126550016381,47.4,13.65,91.95,-544.43359,156.73828,787.10937,-0.3814410098916599,0.0419678381276052,0.0743429976203992,51.15,25.5,39.0
-1009.76562,328.61328,207.03125,0.1524164619840112,0.0246477142295891,0.3256171773653969,3.15,35.1,41.55,417.96875,66.40625,887.69531,0.0169204434993094,0.0884655037958365,0.3012358003796621,48.15,11.85,93.75,-546.38672,151.85547,781.25,-0.3101622868389871,-0.0067947413109391,0.1089830708835063,51.15,25.5,39.0
-1000.97656,329.10156,204.58984,0.1385604675853534,-0.0038636353651398,0.2840490196364983,2.7,34.8,40.8,435.05859,65.91797,907.71484,-0.0149218669728507,0.1537488463349836,0.3521301249665923,47.1,11.4,94.2,-549.31641,132.32422,808.10547,-0.3821072020671461,0.0309096065198943,0.0957932686603347,51.9,26.55,38.55
-970.21484,331.54297,202.63672,0.1211071750654101,-0.0960597804371143,0.2759218939745868,2.7,34.8,40.8,413.57422,56.64063,891.60156,0.0205175670876697,0.1558805914833695,0.3654532703446163,48.0,12.75,94.05,-547.36328,139.64844,810.05859,-0.3330781108518222,0.0551578148837019,0.1605435876459228,51.9,26.55,38.55
-957.51953,329.58984,221.19141,0.1089830708835063,-0.0107917198309313,0.1749326055981396,3.0,34.95,40.2,417.48047,68.35938,901.85547,0.0173201238980161,0.0924624823158288,0.349199019020793,47.25,13.2,94.05,-575.19531,130.85937,821.77734,-0.4687074724913764,0.1464210814704855,0.1156446435725182,50.85,25.05,38.25
-920.41016,330.56641,214.84375,0.0592879620256213,-0.0123904414257581,0.1211071750654101,3.0,34.95,39.9,404.29687,84.47266,916.01562,0.029044373148288,0.2013123845774079,0.4095528536206074,47.25,13.2,94.05,-560.54687,88.37891,830.07812,-0.5192021166795999,0.0892648645932499,0.15561407970659,49.95,25.65,38.1
-897.94922,293.45703,238.28125,0.0611531953972277,-0.0724777642487929,0.1025880099712739,3.6,35.25,41.25,381.83594,74.70703,947.26562,0.0377045223637587,0.2192987006509103,0.3956966846890244,46.8,12.45,95.1,-569.33594,112.79297,858.88672,-0.4280720187147436,0.0969923098564548,0.1434899755246862,49.95,25.65,38.1
-897.46094,301.75781,214.84375,0.0616860444178615,0.0089264864593249,0.0727442760255724,2.4,36.6,40.5,365.23437,90.33203,948.24219,-0.0051960197161123,0.1525498051388636,0.3897014787084239,49.05,12.75,94.05,-598.14453,110.35156,834.96094,-0.4906905925519457,0.0905972489442224,0.0676814249313873,49.65,24.6,38.7
-904.78516,308.10547,213.86719,0.0265129476011954,0.0887320155726161,0.0600873228230347,2.4,36.6,40.5,364.74609,74.70703,967.28516,-0.0129234649793172,0.1501515482136981,0.4471240328295137,46.5,13.2,92.85,-597.16797,118.16406,882.8125,-0.3797091196749059,0.068614128883653,0.104320074720953,50.7,24.9,38.4
-918.94531,309.08203,210.9375,0.0820704428836041,0.0909969293429291,0.0683476171068735,3.15,35.1,39.75,393.55469,51.75781,979.98047,-0.0326416712695735,0.0963261176809686,0.4206110852283183,46.5,13.2,92.85,-610.35156,95.70313,896.48437,-0.4552511584914253,0.0013323843509724,0.1179097318757565,51.9,26.25,38.55
-937.01172,311.52344,206.05469,-0.0071944217096458,0.2010458728006284,0.0991240550048407,3.0,36.0,40.65,400.39062,74.70703,1001.95312,-0.0261132672024887,0.079272505559732,0.3621224840001103,47.4,12.15,95.25,-587.89062,85.9375,889.64844,-0.4492557779778995,-0.0210505906412288,0.1113813278086717,51.45,26.1,38.4
-937.01172,287.59766,202.14844,0.0331745202902074,0.1717349878755608,0.1083170532409452,3.3,36.0,39.9,433.59375,15.13672,1020.01953,-0.0046631706954784,0.0438330714992115,0.4063552358980286,46.8,12.45,94.35,-594.23828,59.08203,897.46094,-0.3971624121948492,0.0387702204050264,0.1208406632886305,51.45,26.1,38.4
-935.54687,293.94531,209.47266,0.1096492630589925,0.1432236382808319,0.2015788963541875,2.4,35.85,41.1,432.12891,2.92969,992.1875,0.0419678381276052,-0.0291777163031404,0.3619893153781831,46.8,12.45,94.35,-561.03516,34.66797,867.1875,-0.4753690451803883,-0.0314426300734534,0.1324319184499005,50.85,25.05,39.0
-945.3125,299.31641,208.00781,0.0438330714992115,0.2050428513206206,0.1694700741052478,2.4,35.85,41.1,424.31641,-3.90625,937.5,0.0258469299586344,-0.0782068075184643,0.322419559642818,47.4,11.85,94.8,-540.52734,33.20313,889.16016,-0.3855711570335793,-0.059154618870769,0.1157779867273706,50.85,25.05,39.0
-967.77344,310.54687,224.60937,0.0780734643636119,0.2346202480224677,0.1738667330239467,3.45,35.55,40.8,457.51953,-6.83594,892.08984,0.0531592383572432,-0.0909969293429291,0.2747228527784666,48.0,11.55,94.05,-514.16016,14.64844,867.1875,-0.3914333689251778,-0.0430337107017981,0.1089830708835063,50.55,26.25,38.25
-972.65625,311.52344,224.12109,0.1406922127337393,0.1574793130781963,0.2620658995759289,2.4,35.85,40.5,466.30859,7.8125,876.95312,0.043566559722432,0.0147886983509235,0.3035007141499751,47.25,13.2,94.05,-482.42187,18.06641,883.30078,-0.2819172744881125,-0.0393032439585855,0.1279019163763492,51.15,26.55,37.5
-968.75,309.08203,220.21484,0.1432236382808319,0.0880658233971298,0.3066983318725539,3.15,35.85,40.5,468.75,2.92969,880.37109,0.0365053066347134,0.0079939570399844,0.2424808619075998,47.25,13.2,94.05,-492.1875,36.13281,906.25,-0.2260934419618494,0.0069280844657914,0.0940612039106556,50.1,25.5,39.0
-937.98828,288.08594,226.5625,0.0973919902551615,0.1169770279234907,0.3061653083189948,3.15,33.3,40.05,482.42187,11.23047,884.76562,0.0751423584178126,-0.0021317451483858,0.1841256038342442,47.25,12.45,95.1,-485.35156,33.20313,884.27734,-0.2753890449539529,-0.0014655529728996,0.0739433172216925,50.85,24.0,38.55
-905.76172,262.69531,245.60547,0.2427473736843793,0.0660827033365605,0.2897778883732445,3.15,33.3,40.05,480.95703,17.08984,869.14062,0.0631515973907612,0.0423675185263119,0.2070414278470793,46.2,13.2,93.6,-481.44531,36.13281,865.23437,-0.2300904204818416,0.0179861415405771,0.0909969293429291,49.95,26.1,38.7
-916.01562,254.39453,233.39844,0.3244181361692768,0.0908637607210019,0.3970290690399969,2.7,35.55,40.5,479.00391,15.625,883.30078,0.0568897051004559,0.041834669505678,0.210771894590292,48.0,12.75,94.65,-510.74219,-1.95312,861.32812,-0.2206309104689576,0.0282450123508746,0.0851347174513306,49.35,25.5,38.55
-899.41406,270.50781,249.51172,0.3571929760607775,0.2145023613335047,0.4010260475599891,1.5,37.95,40.95,472.65625,1.95312,908.69141,0.0889985273493956,0.0498284520127373,0.1573461444562691,47.7,12.6,94.2,-499.02344,31.73828,903.80859,-0.0844685252758443,0.0427671989250186,0.0383705400063197,49.35,25.5,38.55
-892.08984,316.40625,228.02734,0.4328683580321492,0.1994471512058016,0.5333246228550372,2.55,35.25,38.85,454.58984,-4.39453,915.03906,0.0979250138087206,0.0570230482553083,0.1152449631738115,47.55,12.75,92.55,-530.27344,27.34375,873.04687,-0.1116478395854512,0.1091164140383586,0.080871401687484,49.8,25.5,39.6
-886.23047,340.82031,206.05469,0.4732373000320025,0.2344869048676153,0.4900245749093847,2.7,35.85,40.05,434.08203,3.90625,921.38672,0.0997902471803269,0.0265129476011954,0.0654165111610742,47.4,13.35,93.75,-541.01562,21.48438,875.97656,-0.1265697065583019,0.0227824808579827,0.1083170532409452,49.8,25.5,39.6
-895.50781,370.60547,180.17578,0.4771011099300675,0.2999035905616148,0.5227994148008854,2.7,35.85,40.05,415.52734,17.08984,953.61328,0.1204409828899239,0.0562235129249697,0.0448989440734045,47.4,13.35,93.75,-580.07812,76.17188,857.91016,-0.0618192130397887,0.1394931715376192,0.1219065358628235,50.1,25.05,39.0
-887.20703,396.97266,157.22656,0.4966861475983967,0.2824502980416715,0.4854945728358334,0.3,36.15,39.75,406.25,31.25,951.66016,0.1044532433428802,0.060753514998521,0.0755420388165193,47.4,12.15,94.2,-583.49609,104.49219,877.44141,-0.0744763407752516,0.0911300979648563,0.0710122112758932,49.2,26.1,39.45
-892.57812,400.39062,145.50781,0.5117411831931745,0.1890551117735769,0.4676415999171834,1.5,37.2,39.15,402.83203,69.33594,970.21484,0.1073843492886795,0.0199847180670358,0.0937948666668012,46.2,12.75,94.65,-551.26953,110.35156,876.46484,-0.1436233186795386,-0.0102588708102974,0.1129800494034985,50.55,26.25,39.0
-886.71875,431.64062,129.88281,0.4417948444914742,0.2406156285359934,0.4003598553845028,1.35,36.9,38.7,408.69141,87.89063,940.42969,0.0250473946282958,0.0038636353651398,0.1376279381660128,47.4,13.65,94.2,-585.44922,134.27734,821.28906,-0.196249708016148,0.0764747427687851,0.0707458740320389,49.8,25.5,38.25
-887.20703,451.17187,119.62891,0.4416615013366219,0.1526829737607907,0.3365420658182554,0.45,36.0,38.55,392.08984,100.09766,930.66406,0.0640843013430269,-0.0399694361340717,0.1582786738756097,47.4,13.65,94.2,-552.73437,132.32422,853.51562,-0.1901209843477699,0.0478300500192038,0.1032542021467601,50.55,25.05,39.6
-883.30078,471.19141,112.30469,0.3902343277290577,0.2019785767528942,0.2937748668932367,0.45,36.0,38.55,385.25391,115.23438,886.23047,0.0310429496747467,-0.0274456515534612,0.1416247421530798,47.1,13.65,94.5,-548.82812,137.69531,860.83984,-0.1811944978884449,0.0638177895662474,0.1080505414641657,50.85,25.5,39.3
-893.06641,483.39844,119.62891,0.3052327788996543,0.1330979360924615,0.1672051603349347,1.5,36.0,38.1,372.55859,107.42188,888.67187,0.0262466103573411,-0.0486294108166172,0.1509510835440367,46.35,13.35,93.15,-541.01562,118.65234,828.125,-0.2087733180638333,0.0562235129249697,0.0899310567687362,50.85,25.5,39.3
-893.55469,495.11719,110.35156,0.3052327788996543,0.1193751103157309,0.1609432680446295,0.15,37.2,37.8,379.39453,110.35156,876.95312,0.0274456515534612,-0.031309286918601,0.1481531462201646,48.0,14.25,94.65,-533.69141,87.89063,876.95312,-0.1803951370910315,0.0159877395470436,0.0834028272345766,50.85,25.5,39.3
-897.46094,492.1875,116.21094,0.2045100022999867,0.029044373148288,0.0973919902551615,1.35,35.85,37.65,419.92187,82.51953,895.99609,0.032375159492794,-0.0087933178373978,0.2019785767528942,46.5,14.7,94.35,-524.90234,52.24609,847.16797,-0.1566799522807829,0.0409019655534123,0.1291011321053945,49.65,26.1,38.7
-885.25391,486.32812,116.21094,0.1287014517066878,0.0415681577288985,0.0584886012282079,1.5,36.45,37.05,426.75781,63.96484,906.73828,0.0339738810876208,-0.0137228257767306,0.1281684281531288,46.65,13.65,93.75,-528.32031,32.22656,884.76562,-0.1390934911389125,0.0514271736075641,0.1509510835440367,49.65,26.7,40.2
-892.08984,472.65625,133.30078,0.0945942274642146,0.0330413516682802,-0.0444992636746978,1.5,36.45,37.05,426.75781,20.50781,925.78125,0.0534257501340228,-0.0098591904115907,0.1216401986189692,47.1,12.9,94.5,-552.24609,14.64844,883.78906,-0.0972588216332344,0.1077840296873862,0.0715452348294523,49.65,26.4,38.7
-902.83203,456.05469,133.78906,0.0699463387017003,-0.0095926786348112,0.0335742006889141,1.5,36.45,37.05,421.875,-3.90625,917.48047,0.0731439564242791,-0.1035207139235396,0.0375711792089063,47.1,12.9,94.5,-548.82812,3.41797,854.49219,-0.020117886688963,0.0956601000384076,0.0856677410048896,50.55,26.25,38.25
-914.55078,437.01172,122.55859,-0.0085268060606182,0.0299770771005538,-0.0724777642487929,1.8,36.45,38.1,436.52344,-13.18359,904.29687,0.0706125308771865,-0.0640843013430269,-0.0090596550812521,47.1,12.9,94.5,-535.64453,2.44141,875.97656,0.0013323843509724,0.0370383301882724,0.0820704428836041,49.8,26.25,39.0
-888.67187,424.80469,119.62891,0.0070612530877186,-0.0528927265804637,-0.1259035143828157,0.75,35.7,37.5,443.35937,-2.92969,941.40625,0.0976585020319411,-0.0592879620256213,-0.0496952833908101,46.5,12.75,92.85,-551.26953,22.46094,885.25391,0.0738101485997654,0.0250473946282958,0.0536922619108023,49.05,26.55,39.0
-884.27734,405.76172,131.83594,0.0050628510941851,-0.1145789455312505,-0.0743429976203992,0.6,35.85,39.0,436.52344,41.50391,946.77734,0.152283293362084,-0.0425006871482391,-0.0563568560798221,46.65,13.35,92.7,-545.89844,45.41016,868.16406,0.0937948666668012,0.0587549384720623,0.0475635382424242,49.05,26.55,39.0
-883.30078,387.20703,123.04688,-0.0303767574992605,-0.0535589187559499,-0.1101822866125516,1.8,36.45,38.1,432.12891,48.33984,937.01172,0.1528161423827179,-0.0330413516682802,-0.1217733672408963,46.8,14.25,93.6,-556.64062,51.75781,853.51562,0.1276355791324949,0.0021317451483858,0.058088746296576,50.25,27.15,38.7
-905.76172,391.60156,117.1875,0.023981696587028,-0.0366386497895657,-0.1071178375118999,1.8,36.45,38.1,403.32031,84.96094,939.45312,0.1586783542743164,0.0087933178373978,-0.125503833984109,46.8,14.25,93.6,-569.82422,70.80078,840.33203,0.0984578628293545,0.1096492630589925,0.0448989440734045,50.25,27.15,38.7
-921.875,395.01953,104.00391,0.0315757986953806,-0.070346019100407,-0.0543582795533633,2.4,36.6,38.7,392.08984,79.58984,934.57031,0.1572128013014168,0.0378376909856858,-0.096459460835821,45.9,14.4,93.15,-586.91406,72.75391,823.24219,0.0908637607210019,0.079272505559732,0.0334410320669869,50.25,26.7,38.7
-916.50391,402.83203,106.93359,-0.0129234649793172,-0.0309096065198943,-0.0977916706538682,1.2,35.25,38.55,369.14062,82.51953,920.41016,0.1113813278086717,-0.0530260697353161,-0.1358958734163337,47.25,13.2,94.05,-579.10156,72.26563,832.03125,0.1097826062138449,0.0883323351739094,0.0406354537766327,49.95,26.7,37.65
-946.77734,414.0625,90.33203,0.0079939570399844,-0.0051960197161123,-0.0106585512090041,1.05,34.35,36.9,366.69922,84.96094,923.33984,0.1157779867273706,-0.0331745202902074,-0.1039203943222463,47.25,13.2,94.05,-568.35937,83.98438,837.89062,0.0700796818565527,0.0776737839649052,0.0508943245869302,49.2,26.1,38.4
-942.87109,433.10547,96.67969,-0.0053291883380394,-0.0595542992694757,0.0122572728038309,1.05,34.35,36.9,379.39453,70.3125,947.75391,0.0710122112758932,0.0421010067495324,-0.1297671497479555,46.2,12.45,93.6,-579.58984,98.63281,836.91406,0.1265697065583019,0.0691469779042869,0.0298437339457014,49.65,26.7,39.15
-944.33594,411.13281,92.77344,-0.0318423104721601,-0.0231821612566894,0.0119907610270514,1.8,37.2,38.1,381.34766,71.28906,947.26562,0.1205743260447762,0.0033307863445059,-0.1349631694640679,46.35,13.35,92.4,-585.9375,100.09766,822.26562,0.1530826541594974,0.0592879620256213,0.0365053066347134,49.95,26.1,38.4
-936.52344,431.64062,102.53906,-0.025713586803782,0.0285115241276541,-0.0035972981212855,1.05,35.1,38.7,368.16406,103.02734,942.38281,0.1147121141531777,-0.029044373148288,-0.1349631694640679,48.45,13.65,92.7,-592.28516,115.23438,821.28906,0.1477534658214579,0.070346019100407,0.0582220894514284,49.2,25.65,38.4
-881.34766,419.43359,107.91016,-0.0177198042967228,-0.0474303696204971,0.0169204434993094,1.65,35.85,37.35,379.88281,120.60547,934.57031,0.1063184767144865,-0.0217166082837898,-0.150018379591771,48.45,13.65,92.7,-604.00391,146.48437,827.14844,0.1354961930176269,0.0615528757959344,0.0125237845806105,49.2,25.65,38.4
-901.85547,430.66406,103.02734,-0.0107917198309313,-0.0137228257767306,0.03064326927604,1.65,36.9,38.4,364.74609,142.57812,936.03516,0.0634181091675407,-0.0175864611418704,-0.181327666510372,46.5,12.75,94.05,-594.72656,118.65234,795.89844,0.0891316959713228,0.0365053066347134,0.0515605167624164,49.95,26.4,39.15
-914.55078,423.33984,107.91016,-0.0241148652089552,0.0464976656682313,-0.0516936853843436,1.65,36.9,38.4,362.30469,142.57812,910.15625,0.0534257501340228,-0.0294440535469947,-0.1177763887209041,47.1,13.65,92.4,-594.72656,139.16016,831.05469,0.1609432680446295,0.0848683802074762,0.0611531953972277,49.95,26.4,39.15
-931.15234,419.92187,98.63281,0.0450321126953316,0.0459648166475974,-0.0137228257767306,-0.45,35.25,37.5,350.58594,118.16406,922.85156,0.0483628990398376,-0.0227824808579827,-0.1192419416938038,46.35,14.1,93.75,-600.09766,108.88672,792.96875,0.1205743260447762,0.0271791397766816,0.0691469779042869,51.45,26.1,39.15
-934.57031,411.13281,102.53906,0.0297105653237742,0.0459648166475974,0.0131899767560967,0.6,36.6,38.7,352.53906,108.88672,925.78125,0.0740764858436197,-0.0229158240128351,-0.1390934911389125,46.35,14.4,93.45,-594.72656,97.65625,822.26562,0.1305666850782942,0.032908183046353,0.041834669505678,49.8,27.0,38.25
-913.08594,409.66797,92.28516,0.0125237845806105,0.0682144484849463,-0.0011990411961201,0.45,36.45,37.8,356.44531,84.47266,934.08203,0.0398360929792193,0.004529827540626,-0.196249708016148,46.35,13.65,93.75,-586.42578,85.44922,803.71094,0.1854578136522914,0.046897346066938,-0.0095926786348112,50.25,28.65,39.45
-924.31641,411.13281,99.60938,0.1055191159170731,0.0536922619108023,0.0309096065198943,2.4,35.55,37.95,354.00391,58.59375,937.98828,0.0594211306475485,0.0067947413109391,-0.1592113778278755,46.5,14.25,94.35,-601.07422,85.9375,803.22266,0.1915865373206695,0.0438330714992115,-0.0375711792089063,49.65,26.4,38.7
-910.64453,408.69141,88.86719,0.0989908863829135,0.1063184767144865,-0.0399694361340717,2.4,35.55,37.95,380.85937,87.89063,941.40625,0.0463644970463041,-0.0205175670876697,-0.2452787992314719,46.5,14.25,94.35,-616.69922,83.00781,820.80078,0.2496752836172456,0.0247810573844414,0.025713586803782,50.25,25.35,76.5
-910.64453,411.62109,95.70313,0.0724777642487929,0.1546815502872494,-0.0771409349442713,0.6,35.85,36.9,360.35156,73.24219,952.14844,0.0602204914449619,-0.0149218669728507,-0.2240948654353907,46.65,14.4,93.15,-598.63281,93.26172,778.32031,0.2340872244689086,0.0215834396618626,-0.0203843984657425,49.95,26.1,38.1
-911.13281,414.0625,90.82031,0.1534823345582041,0.2284915243540896,0.0654165111610742,1.65,35.55,36.9,346.19141,71.28906,939.94141,0.1011224569983742,-0.0297105653237742,-0.2811179136906991,47.1,14.85,93.15,-590.33203,67.38281,819.82422,0.2725911076300807,0.0470306892217904,0.0197182062902563,49.95,26.1,38.7
-918.94531,428.71094,92.77344,0.1372282577673061,0.1249709849634751,0.0191853572696224,1.35,36.15,37.95,363.76953,96.19141,923.82812,0.0683476171068735,-0.0297105653237742,-0.2582020896778639,46.65,14.4,93.75,-593.75,63.96484,780.76172,0.3084302220893079,0.0318423104721601,-0.0230489926347623,49.95,26.1,38.7
-922.85156,436.03516,85.44922,0.0972588216332344,0.23981626773858,-0.0198513749121835,0.6,35.1,37.35,352.53906,85.44922,923.82812,0.0738101485997654,-0.0034639549664331,-0.3609234428039902,46.65,14.4,93.75,-600.58594,79.10156,815.42969,0.3404058757163204,0.0003996803987067,-0.0678147680862396,49.8,26.25,37.2
-951.17187,440.42969,89.84375,0.1686707133078344,0.1843921156110237,0.0303767574992605,0.6,35.1,37.35,366.21094,95.21484,922.85156,0.0738101485997654,-0.0237151848102485,-0.3474671288040391,47.25,14.25,93.6,-599.12109,103.51563,822.75391,0.385970837432286,0.006128723668378,-0.0207840788644492,49.8,26.25,37.2
-929.19922,438.96484,81.05469,0.1244379614099161,0.1224395594163826,0.0289112045263608,0.6,35.1,37.95,368.16406,110.35156,931.15234,0.1052526041402936,0.0050628510941851,-0.3368085775950349,46.2,13.95,93.3,-599.60937,91.30859,796.875,0.3074976926699673,-0.0331745202902074,-0.0643506385868813,50.1,27.75,38.25
-917.48047,442.87109,69.33594,0.0790061683158777,0.2098391906380262,-0.0085268060606182,1.35,36.6,36.3,366.69922,127.92969,949.21875,0.0779402957416847,0.0051960197161123,-0.3654532703446163,46.2,13.95,93.3,-607.42187,114.25781,839.84375,0.3605237624052835,0.0415681577288985,-0.0969923098564548,48.9,26.4,39.15
-921.875,436.03516,86.42578,0.0884655037958365,0.1353630243956998,0.0342403928644003,0.45,35.25,36.45,375.97656,117.1875,937.98828,0.0751423584178126,-0.022382800459276,-0.3847717962361659,47.7,14.4,93.75,-613.28125,125.48828,813.96484,0.3425374463317811,-0.043566559722432,-0.0932618431132422,50.85,26.25,39.3
-918.45703,434.57031,83.49609,0.098724374606134,0.1658729505168874,0.0414349891069713,1.5,34.5,36.75,384.27734,116.69922,940.42969,0.0138559943986577,-0.0492956029921034,-0.3657197821213958,48.9,15.6,92.4,-598.14453,92.77344,805.66406,0.312294031987373,0.0133231453780239,-0.1235054319905755,49.65,26.4,38.1
-914.55078,418.94531,93.75,0.0519601971611231,0.2344869048676153,-0.0097258472567384,1.5,34.5,36.75,383.30078,125.97656,951.17187,0.0355727772153728,-0.0799386977352182,-0.4071547712283672,47.1,14.4,92.4,-586.91406,131.83594,851.07422,0.3678515272697816,0.0303767574992605,-0.11990813386929,49.8,27.3,37.95
-920.41016,439.45312,85.44922,0.0656830229378538,0.2764547429952206,-0.0297105653237742,0.6,37.65,37.35,374.02344,134.27734,947.75391,0.0455651362488907,-0.0643506385868813,-0.3594578898310905,47.1,14.4,92.4,-593.26172,148.4375,811.03516,0.3602572506285039,-0.0282450123508746,-0.0940612039106556,50.1,27.3,36.9
-919.43359,444.33594,73.73047,0.080871401687484,0.2204977418470304,-0.0121241041819038,1.05,36.9,36.3,380.85937,153.32031,917.96875,0.0598208110462552,-0.1056524590719255,-0.4070214280735147,47.55,14.7,92.55,-590.33203,149.90234,858.39844,0.3834395864181186,-0.0271791397766816,-0.1197749652473628,50.1,27.3,36.9
-930.66406,453.61328,88.86719,0.0397029243572922,0.218632508475424,-0.0590214502488418,0.6,36.15,35.85,389.64844,148.4375,921.875,0.0087933178373978,-0.0450321126953316,-0.4155482341341331,47.7,15.15,93.75,-578.125,177.73437,830.56641,0.3991608141883827,0.0189188454928429,-0.1348300008421407,50.1,27.75,36.15
-951.66016,436.03516,90.33203,0.0310429496747467,0.1493521874162847,-0.0197182062902563,-0.15,36.0,36.75,404.29687,138.18359,935.54687,-0.0110582316077108,-0.0603538345998143,-0.3643873977704233,48.0,13.95,94.05,-568.35937,173.33984,815.42969,0.3410718933588814,-0.0090596550812521,-0.1220398790176759,50.1,28.05,38.55
-958.49609,416.99219,96.67969,0.0419678381276052,0.1592113778278755,0.0584886012282079,-0.15,36.0,36.75,418.45703,139.16016,907.71484,0.0002665117767795,-0.0687472975055802,-0.3642542291484961,48.0,13.95,94.05,-568.35937,167.48047,813.96484,0.2932420178726028,-0.0114579120064175,-0.128834620328615,51.15,27.0,37.2
-950.19531,416.99219,96.19141,0.0013323843509724,0.1577458248549758,-0.0254472495599277,0.3,36.15,36.3,420.41016,158.20312,878.90625,-0.007860613885132,-0.0302434143444081,-0.3096294378183532,48.3,14.7,95.1,-555.66406,181.64062,822.26562,0.2813844254674786,-0.0118575924051242,-0.1568131209027101,50.1,27.75,37.95
-961.91406,422.85156,99.12109,-0.0046631706954784,0.1981147668548291,-0.0018652333716063,-1.35,35.55,36.3,423.82812,145.01953,879.88281,0.0030642745677264,-0.0446324322966249,-0.3871700531613313,47.55,15.45,93.6,-542.96875,188.96484,847.65625,0.2482097306443459,-0.0255804181818548,-0.1011224569983742,49.95,27.45,36.3
-951.66016,430.17578,119.62891,0.011191400229638,0.1372282577673061,0.0386370517830992,0.0,34.8,36.9,425.29297,184.08203,864.74609,0.0143890179522168,0.0074609334864253,-0.2900444001500241,46.65,14.85,92.7,-538.57422,199.70703,827.63672,0.2551378151101375,-0.0403691165327784,-0.1117810082073784,49.8,27.0,37.2
-929.19922,401.85547,119.14063,-0.0528927265804637,0.1049862668964393,-0.0177198042967228,0.0,35.55,36.3,426.26953,163.57422,881.83594,-0.0151883787496302,0.0141225061754373,-0.2709923860352539,46.65,14.85,92.7,-548.82812,198.73047,854.00391,0.2511408365901452,0.0434333911005048,-0.1437564873014657,49.8,27.0,37.2
-905.27344,385.25391,119.62891,-0.1079173728422385,0.0925956509377559,0.0113245688515652,0.0,35.55,36.3,444.82422,155.76172,926.26953,-0.0341072242424731,0.0382373713843925,-0.3141592653589793,48.3,15.45,94.05,-562.01172,204.58984,868.16406,0.2419480128869659,0.0159877395470436,-0.0928621627145355,50.7,26.7,38.4
-928.22266,389.64844,125.48828,-0.0476967068643514,0.0764747427687851,0.0247810573844414,0.0,35.55,36.3,457.51953,151.36719,934.57031,-0.0231821612566894,0.0803383781339249,-0.2720582586094469,46.8,13.5,93.3,-555.66406,219.72656,860.35156,0.219698381049617,-0.0059953805135257,-0.0883323351739094,50.7,26.7,38.4
-911.13281,353.02734,130.37109,-0.0679479367081668,0.1593445464498027,0.0154548905264097,-0.6,35.85,35.55,452.63672,134.76562,962.40234,-0.0425006871482391,0.0602204914449619,-0.2440795835024266,47.1,14.85,92.7,-545.89844,209.47266,863.28125,0.19132002554389,0.0401026047559989,-0.0411684773301918,50.1,27.3,37.95
-904.78516,358.39844,127.92969,-0.054091942309509,0.1810613292665177,0.0302434143444081,0.3,35.55,35.25,442.38281,151.85547,932.12891,-0.007860613885132,-0.0029311059457992,-0.2748560214003938,47.1,14.85,92.7,-538.08594,222.65625,845.70312,0.1429571265040523,0.0267794593779749,-0.1091164140383586,50.7,26.7,38.1
-895.50781,357.91016,134.27734,-0.0009327039522657,0.1305666850782942,0.0981913510525749,-0.45,36.45,36.75,439.94141,177.73437,916.50391,0.0218499514386422,-0.0085268060606182,-0.214768698577359,47.7,14.85,93.15,-529.78516,218.75,836.91406,0.0755420388165193,-0.005595700114819,-0.1416247421530798,49.95,27.45,38.7
-897.94922,353.51562,119.14063,0.0121241041819038,0.2095726788612467,0.0887320155726161,-0.3,35.85,36.6,447.26562,182.12891,898.4375,-0.023981696587028,-0.0237151848102485,-0.1577458248549758,48.45,13.65,94.2,-520.01953,222.65625,828.125,0.1183094122744632,0.0330413516682802,-0.1440229990782452,49.8,27.0,38.25
-895.50781,348.63281,112.79297,0.0205175670876697,0.212503784807046,0.0345069046411798,-0.3,35.85,36.6,437.98828,198.73047,884.27734,-0.0846018684306967,-0.0255804181818548,-0.1151117945518844,48.6,13.5,93.6,-512.20703,204.58984,837.89062,-0.0065284040670847,-0.0135896571548034,-0.175731966395553,49.8,27.0,38.25
-913.08594,360.83984,117.1875,0.1212403436873373,0.1826600508613445,0.1024548413493467,-1.2,36.0,36.0,453.125,189.45312,884.27734,-0.0836691644784309,0.0091929982361045,-0.0923293136939016,48.0,13.95,93.6,-514.16016,192.38281,844.72656,-0.0141225061754373,-0.004529827540626,-0.1329647674705344,50.7,28.2,37.65
-916.50391,362.79297,115.23438,0.069680001457846,0.1440229990782452,0.0892648645932499,-1.05,35.85,35.55,440.42969,166.01562,896.48437,-0.0952604196397009,0.0691469779042869,-0.0993905667816202,47.25,13.2,93.3,-512.69531,164.55078,801.26953,0.0033307863445059,0.1008561197545199,-0.1406922127337393,49.8,27.0,37.95
-901.85547,368.16406,100.09766,0.0884655037958365,0.1982481100096814,0.1120475199841579,-0.3,36.6,36.3,418.45703,151.85547,893.06641,-0.1081837100860929,0.0679479367081668,-0.06634921511334,47.55,14.7,94.65,-523.92578,142.57812,812.5,0.0311761182966739,0.0858009096268168,-0.192918921671642,49.8,27.0,37.95
-913.57422,388.18359,92.28516,0.122173047639603,0.123238920213796,0.15561407970659,-0.3,38.1,35.25,414.55078,142.08984,893.06641,-0.0788728251610253,0.0516936853843436,-0.0618192130397887,47.55,14.7,94.65,-541.50391,135.74219,809.08203,0.0373046674321268,0.0512940049856369,-0.2234288477928296,50.7,26.7,36.3
-881.34766,381.83594,72.26563,0.1039203943222463,0.077540615342978,0.177330862523305,-0.3,38.1,35.25,401.36719,109.86328,883.78906,-0.1077840296873862,0.0351730968166661,-0.0426340303030914,47.25,15.0,94.65,-541.50391,123.53516,815.91797,0.0110582316077108,0.080871401687484,-0.2282251871102353,50.7,26.7,36.3
-892.08984,379.39453,71.28906,0.1033873707686873,0.2150352103541385,0.1666723113143009,-1.8,36.45,34.65,408.69141,82.51953,865.23437,-0.0698131700797731,-0.022382800459276,-0.0759418937481512,48.45,14.4,93.45,-547.36328,108.39844,837.89062,0.0655498543159266,0.0963261176809686,-0.1867901980032639,51.0,27.15,36.3
