IMU1_AccX,IMU1_AccY,IMU1_AccZ,IMU1_GyrX,IMU1_GyrY,IMU1_GyrZ,IMU1_MagX,IMU1_MagY,IMU1_MagZ,IMU2_AccX,IMU2_AccY,IMU2_AccZ,IMU2_GyrX,IMU2_GyrY,IMU2_GyrZ,IMU2_MagX,IMU2_MagY,IMU2_MagZ,IMU3_AccX,IMU3_AccY,IMU3_AccZ,IMU3_GyrX,IMU3_GyrY,IMU3_GyrZ,IMU3_MagX,IMU3_MagY,IMU3_MagZ
-937.98828,335.9375,98.14453,0.2693934899075019,0.2344869048676153,0.2027779375503076,-0.75,36.75,35.7,466.79687,191.40625,914.55078,-0.0739433172216925,-0.0118575924051242,-0.1524164619840112,46.35,14.85,93.45,-528.80859,215.33203,855.95703,0.1548147189091766,0.0760750623700784,-0.217033612347672,49.35,27.75,36.45
-947.26562,382.32422,86.42578,0.3629218447975237,0.1279019163763492,0.3198883086286507,0.0,35.55,35.55,458.00781,190.91797,920.89844,-0.0426340303030914,-0.0519601971611231,-0.1345634890653612,45.9,16.35,92.7,-528.80859,195.80078,854.49219,0.2011792159554807,0.0858009096268168,-0.1389601479840601,51.15,28.05,37.2
-974.12109,404.78516,82.03125,0.3493323621756454,0.145621720673072,0.3237519439937906,-0.6,35.85,36.3,468.75,185.54687,926.26953,-0.0600873228230347,-0.0255804181818548,-0.1205743260447762,46.2,13.5,94.35,-530.27344,210.44922,868.16406,0.1296339811260284,0.0675482563094601,-0.1412250617543731,51.15,28.05,37.2
-953.125,407.22656,71.28906,0.3264165381628103,0.1148452827751048,0.32908113233183,-1.05,36.6,35.25,491.21094,191.89453,920.41016,-0.0563568560798221,-0.0154548905264097,-0.068614128883653,47.55,14.7,94.05,-528.80859,203.61328,841.79687,0.1159111553492978,0.1071178375118999,-0.1496186991930643,50.1,28.05,37.5
-936.03516,386.23047,49.80469,0.3605237624052835,0.0321086477160144,0.4425942052888876,-1.05,36.6,35.25,468.75,170.89844,901.36719,-0.0699463387017003,0.0454317930940384,-0.0957932686603347,47.55,14.7,94.05,-551.26953,220.70312,828.125,-0.0235820161883213,0.1277687477544221,-0.1665389681594485,49.2,26.7,38.1
-877.44141,464.84375,-17.08984,0.1272358987337882,-0.1203078142679967,-0.0115910806283447,-1.5,36.75,33.3,403.80859,105.95703,931.15234,0.0213169278850831,0.0623522365933478,-0.1370949146124538,44.25,15.0,93.3,-591.30859,110.83984,849.60937,0.0666155523571943,0.0768744231674918,0.0390367321818059,48.9,24.6,39.45
-877.44141,468.75,-20.50781,0.0530260697353161,-0.0860674214035963,0.0029311059457992,-2.25,35.25,33.3,411.62109,105.95703,936.03516,-0.023448673033469,0.0179861415405771,-0.0603538345998143,45.9,14.85,93.15,-576.17187,111.81641,819.82422,0.0341072242424731,0.0294440535469947,0.0556906639043358,50.85,26.55,75.9
-875.0,450.19531,-22.46094,-0.0043966589186989,-0.1207074946667034,-0.0030642745677264,-2.25,35.25,33.3,416.99219,98.14453,942.87109,0.0478300500192038,0.0258469299586344,-0.1161776671260773,45.45,13.5,94.05,-580.07812,122.07031,854.49219,0.0812710820861907,0.0488959225933967,0.077540615342978,49.2,27.15,0.75
-880.85937,473.14453,-25.87891,0.0042633157638465,-0.1027213531261262,0.0019984019935335,-2.25,35.25,33.3,410.15625,104.98047,932.12891,0.0297105653237742,-0.0019984019935335,-0.1235054319905755,45.45,13.5,94.05,-590.33203,119.62891,823.73047,0.0454317930940384,0.0155880591483369,0.1045865864977326,49.2,27.15,39.15
-907.71484,466.30859,-32.22656,0.0037304667432126,-0.1393598283827668,-0.042900542079871,-2.1,36.15,32.4,394.04297,118.65234,927.24609,0.054091942309509,0.0153215473715574,-0.0968591412345277,46.8,13.95,94.65,-591.79687,106.93359,839.35547,0.0297105653237742,0.0755420388165193,0.0904640803222952,50.1,27.3,39.0
-915.52734,468.26172,-36.62109,-0.0666155523571943,-0.1292343007273217,-0.0790061683158777,-1.05,35.1,32.4,384.76562,107.91016,918.45703,0.0309096065198943,-0.0514271736075641,-0.0935283548900217,46.2,14.7,92.85,-601.5625,123.04688,819.82422,0.0848683802074762,0.0824701232823108,0.0563568560798221,50.85,24.0,38.55
-958.00781,452.63672,-29.78516,-0.0225161436141284,-0.1737335644020195,-0.0679479367081668,-1.35,35.55,33.75,383.30078,115.23438,915.03906,0.0454317930940384,-0.0155880591483369,-0.0941945470655079,44.85,14.4,93.75,-586.91406,88.86719,794.43359,0.0814042507081179,0.0627519169920545,0.0620857248165682,49.8,25.8,37.5
-925.78125,450.19531,-32.22656,-0.0390367321818059,-0.1354961930176269,-0.0904640803222952,-1.05,36.9,33.45,379.88281,99.12109,914.55078,0.0297105653237742,-0.0205175670876697,-0.1111148160318922,44.85,14.4,93.75,-595.21484,83.98438,815.42969,0.1011224569983742,0.0734104682010586,0.0780734643636119,49.65,26.4,38.4
-933.59375,460.44922,-27.34375,-0.0527595579585365,-0.0983246942074273,-0.0892648645932499,-1.05,36.9,33.45,382.32422,101.5625,913.57422,0.0543582795533633,-0.037970859607613,-0.1217733672408963,44.85,14.4,93.75,-598.14453,74.21875,781.25,0.0936615235119489,0.0664823837352672,0.0459648166475974,49.65,26.4,38.4
-908.69141,456.05469,-39.55078,-0.0436999028772844,-0.1237717692344298,-0.080871401687484,-1.05,35.55,33.15,369.14062,76.17188,919.43359,0.0294440535469947,-0.0154548905264097,-0.1676048407336414,45.9,14.85,94.5,-599.12109,51.26953,818.35937,0.1919862177193762,0.0391699008037331,0.0579555776746489,50.1,25.5,38.55
-922.36328,452.63672,-26.36719,-0.0214502710399355,-0.1287014517066878,-0.0242480338308824,-1.05,36.15,33.45,380.85937,82.51953,924.31641,0.0390367321818059,-0.0043966589186989,-0.1516171011865978,45.6,14.4,94.2,-586.91406,66.40625,826.66016,0.2015788963541875,0.0263797789792682,0.061419532641082,50.1,25.5,38.55
-901.85547,456.54297,-30.76172,-0.0487625794385443,-0.0988575432280612,-0.0975253334100139,-1.35,35.85,33.45,383.78906,61.03516,940.42969,0.0536922619108023,-0.0125237845806105,-0.1967825570367818,45.6,14.4,94.2,-580.56641,33.69141,791.99219,0.2240948654353907,0.0508943245869302,0.0309096065198943,49.65,27.15,38.1
-912.10937,457.51953,-10.74219,-0.0762082309920056,-0.098724374606134,-0.0431668793237253,-0.75,34.95,31.95,391.60156,58.10547,926.75781,0.0271791397766816,0.0037304667432126,-0.2488759228198322,46.8,15.0,94.05,-586.91406,29.78516,855.95703,0.2430137109282336,0.0266462907560478,0.0005328490206338,50.85,25.5,38.55
-909.66797,458.98437,-12.69531,-0.0085268060606182,-0.1520167815853045,-0.0135896571548034,-0.75,34.95,31.95,395.50781,47.36328,935.54687,0.0993905667816202,-0.0286446927495813,-0.2599341544275431,45.15,15.15,94.5,-597.16797,40.52734,808.10547,0.2712587232791083,0.0330413516682802,0.0543582795533633,50.1,25.8,38.55
-907.22656,448.24219,-4.39453,-0.0815375938629702,-0.1048529237415869,-0.0961929490590414,-1.35,34.8,32.7,394.53125,66.40625,937.5,0.082603291904238,-0.0851347174513306,-0.2771209351707068,45.75,14.25,92.55,-591.30859,44.43359,842.28516,0.2837825078597188,0.1099157748357721,-0.0331745202902074,49.95,27.45,38.4
-919.92187,461.42578,-1.46484,-0.0868667822010097,-0.1033873707686873,0.0030642745677264,-2.25,36.45,33.3,405.76172,78.61328,937.01172,0.1075176924435318,-0.0077274452632048,-0.2972388218596699,45.75,14.25,92.55,-593.75,63.47656,833.98437,0.297771845413229,0.0616860444178615,-0.0704793622552594,51.45,26.7,38.7
-916.99219,469.72656,-4.39453,-0.0003996803987067,-0.143356806902759,0.0041301471419193,-1.5,36.0,33.6,405.27344,75.19531,929.19922,0.0949939078629213,-0.0363721380127862,-0.3384072991898617,45.45,15.45,94.05,-583.00781,65.91797,805.17578,0.3284149401563438,0.0559571756811154,-0.0487625794385443,49.8,27.0,38.55
-922.85156,442.87109,-10.25391,0.0247810573844414,-0.1139127533557643,0.0421010067495324,-1.5,36.0,33.6,395.99609,83.00781,943.84766,0.1016554805519333,-0.0199847180670358,-0.3920995611006641,47.1,15.6,94.5,-601.07422,66.40625,849.12109,0.3505314033717656,0.0205175670876697,-0.0471638578437175,49.8,27.0,38.55
-908.20312,458.98437,1.46484,-0.0075941021083525,-0.0504946441882235,-0.0298437339457014,-1.05,35.85,33.15,409.66797,100.58594,941.89453,0.0520933657830503,-0.049162259837251,-0.3575926564594842,45.6,14.85,93.45,-596.67969,76.66016,820.3125,0.3642542291484961,0.0804717212887773,-0.0399694361340717,49.35,27.3,37.95
-931.64062,459.96094,15.625,0.0483628990398376,-0.0976585020319411,-0.0046631706954784,-1.5,35.25,33.3,406.25,85.9375,921.875,0.0538254305327295,0.0007993607974134,-0.4023582573780363,46.35,14.85,93.75,-588.86719,88.86719,830.56641,0.3601240820065768,0.0050628510941851,-0.093128674491315,49.35,27.3,37.95
-921.875,457.03125,7.32422,0.0790061683158777,-0.077540615342978,0.0030642745677264,-1.05,35.85,32.7,408.69141,97.65625,946.28906,0.0679479367081668,-0.050228132411444,-0.4127504713431862,45.6,14.4,93.15,-591.79687,101.07422,822.75391,0.3711823136142876,0.0584886012282079,-0.1189754299170242,48.9,25.35,38.1
-921.875,464.35547,27.34375,0.0057288687367461,-0.0482297304179105,-0.0398360929792193,-0.6,34.8,34.8,400.39062,85.9375,923.33984,0.032908183046353,-0.0294440535469947,-0.3959631964658039,46.65,12.9,93.45,-591.30859,114.74609,812.5,0.3481333209795254,0.0125237845806105,-0.1057856276938527,49.8,27.3,38.25
-922.36328,478.02734,19.04297,0.0672817445326806,-0.0687472975055802,0.0359724576140795,-0.6,34.8,34.8,395.01953,98.14453,897.94922,0.061419532641082,-0.0618192130397887,-0.4268729775186235,46.65,12.9,93.45,-580.07812,116.21094,814.94141,0.3133599045615659,0.0146553551960711,-0.1684043760639801,51.45,27.15,37.65
-923.33984,470.70312,35.64453,0.094860564708069,-0.0073277648644981,-0.0258469299586344,-0.6,35.55,35.25,385.25391,133.78906,889.64844,0.0887320155726161,-0.0246477142295891,-0.4421945248901809,45.9,15.15,93.45,-579.58984,153.80859,799.80469,0.3679846958917088,-0.0101255276554451,-0.104320074720953,49.95,26.4,38.4
-926.26953,466.30859,27.34375,0.0321086477160144,-0.0114579120064175,-0.0582220894514284,-1.5,34.95,33.9,401.36719,138.18359,875.48828,0.027312482931534,-0.0093261668580317,-0.3877029021819652,45.75,14.25,94.05,-568.35937,154.29687,813.96484,0.3422711090879268,0.0038636353651398,-0.1099157748357721,49.35,27.0,38.55
-932.12891,480.95703,35.15625,0.0858009096268168,-0.0086599746825454,0.0207840788644492,-0.75,35.7,33.0,425.29297,164.55078,877.92969,0.0338407124656936,-0.0154548905264097,-0.4272726579173302,46.5,15.0,94.05,-558.59375,167.48047,806.64062,0.3799754569187603,-0.0029311059457992,-0.0858009096268168,50.85,27.3,38.55
-949.21875,455.07812,27.34375,0.0908637607210019,-0.0487625794385443,-0.0487625794385443,-0.15,35.25,33.3,403.32031,133.30078,883.30078,0.055823832526263,-0.041301645952119,-0.3858376688103588,46.5,15.0,94.05,-534.66797,150.87891,790.03906,0.2991042297642014,0.0114579120064175,-0.0916631215184153,50.85,27.3,38.55
-955.56641,460.9375,43.45703,0.050761155965003,0.0010658725741929,-0.0794058487145844,-0.15,35.25,33.3,413.57422,137.69531,862.30469,0.041834669505678,-0.0439662401211387,-0.4148820419586469,46.2,13.95,94.05,-531.25,143.06641,802.73437,0.2737901488262009,0.0123904414257581,-0.0900643999235885,50.85,27.3,38.55
-937.01172,469.72656,53.22266,0.1080505414641657,0.0041301471419193,0.0171867807431637,-1.5,34.5,33.3,412.10937,120.11719,846.19141,0.0162542513238231,0.0259800985805615,-0.4008928789380619,46.35,15.15,94.5,-503.41797,144.53125,798.33984,0.282183786264892,-0.0321086477160144,-0.1450888716524382,49.95,26.1,37.65
-890.13672,464.35547,62.98828,0.0873996312216436,-0.068081105330094,-0.0515605167624164,-0.45,34.95,33.0,454.10156,104.00391,830.07812,0.0231821612566894,-0.013456313999951,-0.4244747205934581,46.35,14.1,94.2,-511.71875,137.69531,816.40625,0.2055758748741797,-0.0422343499043847,-0.1039203943222463,50.25,26.7,38.7
-855.95703,459.47266,71.77734,0.0488959225933967,-0.027312482931534,-0.0764747427687851,-0.45,35.25,33.3,455.07812,126.95313,808.59375,0.0265129476011954,0.0275788201753884,-0.3971624121948492,47.7,13.65,93.45,-507.32422,139.16016,840.33203,0.2912434413461441,-0.0237151848102485,-0.1211071750654101,50.85,26.55,37.2
-845.21484,443.35937,89.35547,0.1227058966602369,0.0186523337160634,-0.0333078634450597,-1.5,34.5,34.35,478.51562,128.90625,829.58984,0.0158545709251164,0.0831363154577971,-0.3866370296077722,46.65,14.4,94.5,-529.78516,154.78516,838.86719,0.2240948654353907,0.0190520141147701,-0.0892648645932499,49.2,27.15,38.4
-832.51953,433.10547,80.07813,0.1340306400447273,0.027312482931534,-0.0467641774450108,-1.5,34.5,34.35,468.75,154.78516,883.30078,-0.0381042027624654,0.0265129476011954,-0.3939647944722704,47.25,14.25,93.6,-538.57422,182.61719,854.49219,0.2300904204818416,0.0357059458372999,-0.1023216727274195,50.25,27.15,37.35
-832.51953,425.29297,96.67969,0.1441561677001724,0.0847350370526239,-0.0199847180670358,-2.25,35.7,33.3,454.10156,194.33594,901.36719,0.0059953805135257,0.013456313999951,-0.34187142868922,47.25,14.25,93.6,-535.15625,211.91406,853.02734,0.1736002212471671,0.0277121633302407,-0.0403691165327784,49.8,27.0,38.25
-835.44922,437.98828,75.68359,0.1285681085518354,0.1428239578821251,-0.0707458740320389,-1.65,35.85,33.45,452.14844,220.21484,916.01562,-0.0650168307623675,0.0082602942838387,-0.3213536870686251,47.4,14.85,95.25,-558.59375,228.02734,860.83984,0.1394931715376192,0.0178529729186499,-0.0758085505932989,49.8,27.0,38.25
-831.54297,437.01172,60.05859,0.1342971518215068,0.1903874961245494,-0.0255804181818548,-0.6,34.8,33.45,446.77734,272.46094,917.96875,-0.1097826062138449,-0.0114579120064175,-0.2466110090495192,47.4,14.85,94.5,-573.73047,224.12109,885.74219,0.1374945950111605,-0.0295773967018471,-0.1125803690047918,50.55,25.8,37.2
-853.51562,443.84766,43.94531,0.1708024584562202,0.1835925802806851,-0.054091942309509,-0.15,34.5,33.6,461.91406,253.90625,950.68359,-0.1378942754098671,-0.0086599746825454,-0.2014455531993351,47.1,14.4,94.2,-563.47656,245.11719,895.01953,0.1171101965454179,0.0095926786348112,-0.1420244225517865,50.55,25.8,37.2
-875.97656,451.66016,47.36328,0.1016554805519333,0.243147054083086,-0.1091164140383586,-0.15,34.5,33.6,484.86328,227.53906,944.33594,-0.1394931715376192,-0.0409019655534123,-0.1720014996523403,47.1,14.4,94.2,-530.27344,220.21484,878.90625,0.0804717212887773,0.016787100344457,-0.1488193383956508,50.7,27.45,39.15
-888.67187,452.63672,47.85156,0.0993905667816202,0.2174334672793039,-0.0455651362488907,-2.25,34.5,32.25,485.83984,199.21875,954.58984,-0.1426906147272728,-0.1044532433428802,-0.1758653095504054,46.35,14.85,94.2,-545.41016,199.70703,865.72266,0.1032542021467601,0.0011990411961201,-0.15561407970659,50.25,26.4,38.4
-880.37109,437.98828,41.99219,0.1077840296873862,0.1476202971995308,0.058088746296576,-0.75,34.5,32.25,482.42187,205.07812,913.57422,-0.1275022359776425,-0.1179097318757565,-0.1732005408484604,48.0,13.95,93.3,-521.48437,186.03516,866.69922,0.0852680606061829,-0.0046631706954784,-0.216367594705111,51.6,27.0,36.45
-905.27344,436.52344,28.32031,0.1007227765996675,0.1807948174897382,-0.0660827033365605,-2.4,34.8,32.7,472.16797,187.98828,892.57812,-0.2224961438405639,-0.1148452827751048,-0.1080505414641657,48.0,13.95,93.3,-517.08984,169.43359,857.91016,0.0952604196397009,0.0467641774450108,-0.1656064387401079,49.2,26.7,37.35
-914.0625,408.69141,16.60156,0.0267794593779749,0.1890551117735769,-0.0385038831611721,-2.55,34.5,31.95,460.44922,155.27344,906.25,-0.1553475679298105,-0.1502848913685505,-0.1229724084370164,46.2,14.25,93.3,-520.50781,147.46094,855.46875,0.1231057515918688,0.0414349891069713,-0.2262266105837766,51.45,27.15,38.4
-929.6875,403.80859,14.64844,0.1320322380511938,0.1201746456460695,-0.0351730968166661,-2.55,34.5,31.95,444.82422,140.625,858.39844,-0.1950504922871027,-0.1346968322202135,-0.1079173728422385,46.8,14.25,92.55,-519.53125,146.97266,847.16797,0.1168438593015635,0.0178529729186499,-0.2283583557321624,49.95,27.9,37.35
-912.10937,372.07031,12.20703,0.0933951862680945,0.1528161423827179,-0.0784731447623186,-2.55,34.5,31.95,449.70703,106.93359,875.48828,-0.2021117453748213,-0.002264913770313,-0.10205516095064,46.8,14.7,92.55,-539.55078,145.99609,840.82031,0.1606769308007752,0.0746095093971788,-0.230889781279255,49.95,27.9,37.35
-918.94531,352.05078,12.69531,0.1369617459905266,0.078606487917171,-0.1056524590719255,-1.35,35.1,33.45,430.66406,76.66016,877.92969,-0.1506845717672572,0.0206509102425221,-0.0743429976203992,47.55,13.95,92.85,-537.10937,146.48437,840.82031,0.1893216235503565,0.0698131700797731,-0.2109050632122192,51.15,26.55,38.25
-951.66016,354.00391,26.36719,0.2652633427655826,0.0871332939777893,-0.0618192130397887,-1.5,33.0,32.25,438.96484,86.91406,881.34766,-0.1528161423827179,0.0189188454928429,-0.071944915228159,47.55,13.95,92.85,-543.45703,162.59766,847.65625,0.1552143993078833,0.0606201718436686,-0.1919862177193762,51.15,26.55,38.25
-968.26172,374.02344,1.95312,0.242081181508893,0.1442895108550248,-0.0891316959713228,-2.1,35.85,31.35,453.61328,81.05469,914.55078,-0.1084502218628724,0.0122572728038309,-0.0863337586474507,47.55,12.75,94.65,-553.22266,183.10547,844.23828,0.1081837100860929,0.0862005900255235,-0.1891882803955041,51.45,26.1,37.35
-933.59375,352.05078,15.13672,0.2323553342521546,0.1056524590719255,-0.0812710820861907,-2.55,34.5,33.3,447.75391,115.72266,912.10937,-0.0440995832759911,-0.0427671989250186,-0.0889985273493956,46.8,12.75,93.6,-552.73437,207.51953,859.86328,0.1096492630589925,0.0121241041819038,-0.1004564393558132,50.7,26.1,38.1
-927.24609,360.83984,21.97266,0.305632459298361,0.0883323351739094,0.006128723668378,-2.55,34.5,33.3,443.84766,134.76562,878.90625,-0.0511608363637097,-0.0206509102425221,-0.0671485759107534,47.4,12.9,94.2,-556.15234,214.84375,835.9375,0.0866002704242302,-0.0187856768709157,-0.0712787230526728,51.0,25.65,38.7
-920.89844,387.69531,26.36719,0.3206876694260641,0.0720780838500862,-0.0118575924051242,-1.5,34.95,31.95,443.84766,163.08594,878.41797,-0.1155114749505911,-0.0471638578437175,-0.0263797789792682,47.25,13.95,94.05,-536.62109,208.00781,845.21484,0.0608866836204481,-0.0142556747973644,-0.1067181571131932,49.8,26.25,37.2
-909.66797,402.83203,21.48438,0.2519401973875587,0.1616094602201157,-0.0393032439585855,-1.2,35.25,31.5,443.35937,157.22656,874.51172,-0.0996569040254746,-0.0193185258915496,0.0131899767560967,48.3,13.95,93.3,-548.82812,211.91406,824.21875,0.0397029243572922,-0.0114579120064175,-0.0563568560798221,49.8,26.25,37.2
-901.36719,398.92578,4.88281,0.2066415729154474,0.0730107878023519,-0.0390367321818059,-3.0,34.95,33.0,437.01172,154.78516,892.08984,-0.0818039311068246,-0.0277121633302407,0.0299770771005538,47.1,13.65,94.8,-541.50391,194.82422,825.19531,0.0355727772153728,-0.0516936853843436,-0.0397029243572922,52.05,26.1,37.65
-893.06641,387.20703,13.18359,0.1421577657066389,0.0652833425391471,0.0806048899107045,0.75,34.2,32.25,446.77734,127.92969,891.11328,-0.0535589187559499,-0.0158545709251164,0.0582220894514284,47.1,13.65,94.8,-541.99219,202.14844,839.84375,0.0920628019171221,0.0001331686219271,-0.0718115720733066,51.9,26.25,37.5
-894.53125,394.53125,-10.74219,0.061419532641082,0.1540153581117632,0.0181194846954295,0.75,34.2,32.25,438.96484,120.11719,910.64453,-0.0195850376683291,-0.0462311538914518,0.013456313999951,46.5,13.95,94.05,-544.43359,200.68359,803.71094,0.0627519169920545,0.0570230482553083,-0.0528927265804637,51.9,26.25,37.5
-883.30078,375.48828,-16.60156,0.0575558972759422,0.0901975685455157,0.0166539317225298,-2.1,34.35,33.45,438.47656,161.13281,881.34766,0.0407687969314851,-0.0909969293429291,0.031309286918601,47.55,13.95,94.65,-539.55078,218.75,789.55078,0.0708790426539661,0.0127901218244648,0.0005328490206338,50.1,27.0,37.5
-886.71875,365.23437,-28.80859,0.0623522365933478,0.1184425808963904,0.0158545709251164,-2.7,33.6,31.35,431.15234,173.82812,868.65234,0.0225161436141284,-0.0726111074036452,0.1008561197545199,46.65,13.35,94.2,-555.17578,222.16797,812.5,-0.0603538345998143,0.0029311059457992,-0.0474303696204971,50.1,27.0,37.5
-914.0625,366.21094,-18.55469,0.0349065850398865,0.1708024584562202,0.0085268060606182,-2.1,33.3,32.1,424.80469,173.82812,884.76562,0.0086599746825454,-0.0386370517830992,0.1252373222073295,46.65,13.35,94.2,-581.05469,218.75,785.15625,-0.1029876903699806,-0.043566559722432,0.0263797789792682,51.75,26.4,38.4
-923.82812,360.35156,-33.69141,0.046897346066938,0.0802052095119978,0.0794058487145844,-1.05,34.35,33.45,409.17969,185.54687,899.41406,0.0342403928644003,-0.0071944217096458,0.2119709357864121,46.65,11.85,93.75,-570.3125,216.30859,807.61719,-0.1480199775982374,-0.0603538345998143,-0.0365053066347134,51.45,25.35,37.35
-931.64062,353.51562,-60.05859,0.0098591904115907,0.1362955538150403,0.0456983048708179,-1.05,34.35,33.45,410.15625,188.47656,939.45312,-0.0050628510941851,0.0073277648644981,0.2331546950495681,46.35,12.15,93.75,-605.46875,202.63672,806.64062,-0.2258269301850698,0.0001331686219271,-0.0519601971611231,50.1,26.25,37.5
-943.84766,380.85937,-68.84766,-0.0071944217096458,0.1445558480988791,0.014522186574144,-1.5,33.45,31.5,417.96875,164.0625,935.54687,-0.0067947413109391,0.0013323843509724,0.2684609604881613,46.35,12.15,93.75,-600.09766,171.875,819.82422,-0.2526063895630449,-0.0382373713843925,-0.0658161915597809,49.65,26.4,38.1
-916.99219,407.71484,-64.45313,-0.0186523337160634,0.1648070779426945,0.0443659205198454,-2.25,33.75,31.95,430.66406,160.15625,953.125,-0.0241148652089552,-0.0091929982361045,0.2828499784403782,45.45,13.95,94.65,-591.79687,161.13281,811.03516,-0.2945742276906501,-0.039569755735365,-0.0783399761403914,51.0,25.65,36.3
-917.96875,411.13281,-75.68359,-0.0543582795533633,0.0927289940926083,0.082603291904238,-3.15,34.35,31.35,410.15625,130.85937,946.77734,-0.0211837592631559,-0.002264913770313,0.2945742276906501,47.4,12.6,93.75,-596.67969,129.39453,820.3125,-0.2752557017991005,-0.0318423104721601,-0.0566231933236764,51.9,26.55,37.5
-915.52734,411.13281,-62.01172,-0.1398928519363259,0.0925956509377559,0.082603291904238,-3.15,34.35,31.35,415.52734,115.23438,929.19922,-0.0848683802074762,-0.0277121633302407,0.3090964142647942,47.25,13.2,94.35,-603.51562,112.30469,812.5,-0.3105619672376938,0.0105252080541518,-0.0691469779042869,51.9,26.55,37.5
-909.66797,407.71484,-63.96484,-0.1039203943222463,0.1051194355183664,0.0480965617959833,-3.15,34.35,31.35,408.20312,88.37891,930.66406,-0.0735436368229858,-0.0115910806283447,0.3017688239332212,47.25,13.2,94.35,-594.23828,90.33203,813.47656,-0.2747228527784666,-0.0067947413109391,-0.0648836621404404,50.7,26.1,37.65
-932.61719,392.57812,-56.64063,-0.1341638086666545,0.0282450123508746,0.1267028751802291,-1.35,34.35,32.4,420.89844,57.12891,899.90234,-0.1061853080925594,0.0253139064050753,0.3098959495951328,46.2,13.5,94.35,-605.46875,101.5625,814.45312,-0.2478100502456393,-0.0205175670876697,-0.0317089673173077,50.7,26.1,37.65
-956.05469,415.52734,-64.94141,-0.1398928519363259,0.0492956029921034,0.166805479936228,-2.55,33.45,30.9,404.29687,51.75781,923.82812,-0.1390934911389125,0.0659495347146333,0.3193552850750916,47.4,12.15,93.75,-610.83984,92.77344,806.15234,-0.2745895096236143,-0.059687642424328,-0.03064326927604,51.15,25.8,38.25
-965.82031,421.875,-69.82422,-0.1600107386252889,0.0129234649793172,0.1328315988486072,-2.1,34.8,33.15,385.74219,55.66406,953.125,-0.1003230962009608,0.1033873707686873,0.3336109598724561,46.35,12.9,94.2,-586.42578,96.19141,788.08594,-0.2587351132314229,-0.0443659205198454,-0.0367718184114929,51.6,25.5,38.25
-961.91406,412.59766,-75.68359,-0.2344869048676153,0.0747426780191059,0.0588882816269146,-2.1,34.8,33.15,376.46484,49.31641,926.26953,-0.0907304175661496,0.0995237354035474,0.2979050140351561,47.1,13.35,93.75,-613.76953,106.44531,815.91797,-0.3027013533525617,-0.0262466103573411,0.0161209081689708,49.2,24.9,38.4
-977.05078,405.27344,-70.3125,-0.1346968322202135,0.0353062654385932,0.113246561180278,-1.65,34.05,30.6,386.23047,63.47656,928.22266,-0.0642174699649541,0.1328315988486072,0.3209540066699184,46.35,12.9,92.7,-605.95703,104.49219,790.52734,-0.3176232203254124,-0.0101255276554451,-0.0213169278850831,50.1,25.8,39.3
-971.67969,395.50781,-65.42969,-0.1922527294961557,0.0738101485997654,0.080871401687484,-1.65,34.05,31.65,401.85547,75.19531,921.875,-0.0454317930940384,0.0691469779042869,0.3185559242776782,45.45,12.75,94.65,-608.88672,100.58594,796.875,-0.384238947215532,0.0137228257767306,0.0708790426539661,51.75,26.1,39.15
-957.51953,382.8125,-59.08203,-0.1738667330239467,0.045165455850184,0.0600873228230347,-2.55,36.0,32.55,405.76172,71.28906,894.04297,-0.0787396565390981,0.0640843013430269,0.3086967338660875,45.45,12.75,94.65,-604.49219,94.72656,808.59375,-0.3774440313716677,-0.0037304667432126,0.0189188454928429,51.45,25.65,38.4
-935.05859,395.50781,-62.98828,-0.1092495826602858,0.0241148652089552,0.0916631215184153,-1.8,35.25,32.55,410.64453,62.5,896.97266,-0.0674150876875329,0.0963261176809686,0.32401845577057,47.25,12.75,94.35,-584.47266,94.23828,804.19922,-0.3160244987305857,-0.0266462907560478,0.0302434143444081,51.45,25.65,38.4
-923.82812,401.85547,-48.33984,-0.1268362183350815,0.0539585991546566,0.0243813769857347,-1.8,35.25,32.55,412.10937,65.91797,908.69141,-0.1084502218628724,0.0731439564242791,0.338007618791155,47.55,13.2,94.65,-603.51562,86.91406,833.98437,-0.322419559642818,-0.0213169278850831,0.0984578628293545,51.6,25.8,39.3
-899.90234,418.45703,-48.82813,-0.1252373222073295,0.0652833425391471,0.0035972981212855,-1.35,35.1,31.65,402.34375,40.52734,943.84766,-0.0731439564242791,0.1247044731866956,0.3464012562298461,46.8,13.5,94.35,-581.54297,82.03125,843.26172,-0.3241516243924973,-0.0478300500192038,0.0503614755662963,51.15,25.8,39.0
-908.20312,405.76172,-34.66797,-0.1277687477544221,-0.0294440535469947,0.0684807857288007,-2.4,35.1,31.35,393.55469,20.99609,968.26172,-0.059154618870769,0.1159111553492978,0.3293476441086095,46.8,13.5,94.35,-576.66016,72.26563,812.98828,-0.3233522635950838,0.0430337107017981,0.095393588261628,51.15,25.8,39.0
-946.28906,395.50781,-57.61719,-0.1841256038342442,0.0411684773301918,0.0327748398915007,-3.45,34.8,31.65,400.87891,45.89844,954.10156,0.0095926786348112,0.036238969390859,0.338007618791155,46.35,12.9,94.5,-562.01172,74.21875,795.41016,-0.3705161214388014,0.0221164632154217,0.0935283548900217,50.1,26.25,38.55
-956.05469,385.74219,-63.47656,-0.1654732701181807,-0.011191400229638,0.0622190679714206,-1.5,33.75,32.55,404.29687,41.99219,931.64062,0.0472970264656447,0.0668820641339739,0.3140260967370522,45.45,13.95,92.85,-583.00781,73.24219,815.91797,-0.3065651632506267,0.0326416712695735,0.1117810082073784,50.85,24.3,38.55
-968.75,395.99609,-43.94531,-0.1001899275790336,-0.0731439564242791,0.0369049870334201,-1.5,33.75,32.55,422.85156,48.82813,886.71875,-0.0057288687367461,0.0406354537766327,0.3534625093175648,45.45,14.25,94.65,-548.82812,85.9375,809.57031,-0.3261500263860307,0.0005328490206338,0.1209740064434829,50.25,26.7,39.15
-938.96484,390.625,-31.25,-0.1161776671260773,-0.0109248884528585,-0.0690138092823597,-2.7,35.55,32.7,425.29297,36.62109,871.58203,0.0367718184114929,0.0334410320669869,0.3855711570335793,45.45,14.25,94.65,-545.41016,78.125,804.19922,-0.2555374955088442,0.0075941021083525,0.1080505414641657,50.7,24.9,38.7
-933.10547,390.13672,-26.36719,-0.0799386977352182,-0.0029311059457992,-0.0198513749121835,-3.0,34.5,33.3,436.52344,37.10938,857.91016,0.0354394340605204,0.0959264372822619,0.3623889957768898,45.45,13.2,94.35,-562.01172,94.72656,800.78125,-0.2892450393526107,-0.0003996803987067,0.1364287224369675,50.7,24.9,38.7
-910.64453,397.94922,-6.83594,-0.1012558001532266,-0.0394364125805126,0.0177198042967228,-3.3,36.0,33.3,435.05859,25.87891,883.30078,-0.0085268060606182,0.1087167336396519,0.371448650858142,47.1,13.65,94.5,-562.98828,89.35547,830.56641,-0.3437366620608264,0.0357059458372999,0.1115144964305989,50.25,26.4,37.65
-901.85547,399.90234,-11.23047,-0.1248376418086228,-0.0488959225933967,-0.0169204434993094,-3.6,36.0,31.95,427.73437,22.46094,916.01562,0.0237151848102485,0.1765313271929664,0.3609234428039902,45.6,13.35,94.8,-587.89062,90.82031,867.1875,-0.3011026317577349,0.0490290912153239,0.1348300008421407,50.25,26.4,37.65
-910.15625,420.41016,2.44141,-0.1211071750654101,0.0029311059457992,-0.0655498543159266,-3.6,34.95,31.2,398.92578,21.97266,952.14844,0.0066615726890119,0.1809279861116653,0.3901009845742054,45.6,13.35,94.8,-601.07422,56.64063,857.91016,-0.3320122382776293,0.0599539796681824,0.1494855305711371,49.35,23.25,38.55
-916.01562,435.05859,-20.50781,-0.0695466583029936,0.0089264864593249,-0.0095926786348112,-3.6,34.95,31.2,408.69141,41.99219,946.28906,0.046897346066938,0.0851347174513306,0.405422706478688,46.35,12.9,94.8,-603.02734,27.34375,895.01953,-0.3272158989602237,0.039569755735365,0.174000076178799,49.2,24.9,37.65
-914.0625,460.44922,-16.60156,-0.1092495826602858,0.0578224090527217,-0.0097258472567384,-1.2,34.5,31.5,421.38672,63.47656,996.09375,-0.0073277648644981,0.0634181091675407,0.3685175449123427,46.5,13.95,94.35,-588.37891,34.17969,864.74609,-0.2368851617927808,0.0532925815120956,0.1514839325646706,49.65,24.9,38.7
-902.34375,477.05078,-1.46484,-0.1345634890653612,0.042900542079871,-0.043566559722432,-3.15,34.35,33.45,436.52344,71.28906,978.51562,0.0142556747973644,-0.0207840788644492,0.3542618701149782,46.2,14.25,93.6,-589.84375,13.67187,861.32812,-0.2993705670080557,-0.0043966589186989,0.1340306400447273,50.85,25.8,39.0
-907.71484,482.91016,7.32422,-0.1605435876459228,0.0135896571548034,0.0943277156874351,-2.1,35.55,32.1,431.64062,52.73438,942.38281,-0.0285115241276541,-0.0210505906412288,0.3531959975407853,46.2,14.25,93.6,-580.07812,45.89844,910.64453,-0.2406156285359934,0.0215834396618626,0.1306998537002213,52.35,26.25,38.55
-899.41406,491.69922,-2.44141,-0.2853812294545456,0.039569755735365,-0.0279785005740951,-2.7,35.85,31.65,447.75391,32.22656,962.40234,0.0174532925199432,-0.031309286918601,0.3330781108518222,45.6,13.65,94.5,-563.47656,53.22266,841.30859,-0.2876463177577839,0.0415681577288985,0.1295008125041012,50.1,25.5,39.3
-885.25391,483.88672,-1.46484,-0.2655298545423621,-0.0098591904115907,-0.0446324322966249,-2.7,35.85,31.65,441.40625,24.41406,916.50391,-0.0411684773301918,-0.0510274932088574,0.2685941291100885,46.35,13.35,95.25,-548.33984,45.41016,881.34766,-0.2336875440702019,0.0185191650941362,0.1517504443414501,50.1,25.5,39.3
-870.11719,454.58984,-7.8125,-0.243147054083086,-0.0182526533173567,-0.0969923098564548,-2.4,36.15,32.1,452.63672,57.12891,886.23047,-0.0357059458372999,-0.0359724576140795,0.3260168577641036,46.35,13.35,95.25,-523.92578,57.61719,867.1875,-0.2527397327178972,0.0294440535469947,0.1283017713079811,51.0,25.65,38.7
-891.11328,437.98828,-20.50781,-0.3189556046763849,-0.0010658725741929,-0.196915725658709,-2.7,35.85,32.7,453.125,32.22656,886.71875,-0.0250473946282958,-0.0079939570399844,0.3462679130749938,45.75,14.25,94.35,-504.39453,40.03906,860.35156,-0.2719249154545945,0.0339738810876208,0.1374945950111605,51.0,25.65,38.7
-937.98828,390.13672,-15.625,-0.2948407394674296,0.0139893375535101,-0.2288912047527963,-1.65,34.8,31.35,469.23828,13.67187,869.62891,0.0101255276554451,-0.0289112045263608,0.308963245642867,45.75,13.5,94.65,-517.08984,71.77734,886.71875,-0.1842587724561713,0.0575558972759422,0.0534257501340228,50.25,24.6,39.15
-953.125,390.13672,-15.625,-0.2307564381244027,-0.0417013263508257,-0.2254272497863632,-2.1,36.15,30.6,483.39844,6.34766,871.58203,0.0447657754514773,-0.0065284040670847,0.3045665867241681,46.35,15.15,94.8,-500.48828,40.03906,833.00781,-0.1993139825838744,0.0415681577288985,0.1382939558085739,51.15,24.3,40.05
-963.86719,387.69531,5.37109,-0.1925190667400101,-0.0860674214035963,-0.1722680114291199,-2.1,36.15,30.6,486.81641,-4.39453,841.79687,0.0650168307623675,0.0119907610270514,0.2575358975023777,46.35,15.15,94.8,-506.83594,25.87891,884.76562,-0.1601439072472161,0.0768744231674918,0.1061853080925594,50.25,25.35,38.4
-922.36328,379.39453,37.59766,-0.1845252842329509,-0.1393598283827668,-0.1521501247401568,-2.7,35.55,30.3,491.69922,0.0,843.75,0.0779402957416847,0.0298437339457014,0.2358192892185878,45.6,13.65,93.75,-522.94922,16.60156,865.23437,-0.1417580853079322,0.0940612039106556,0.1023216727274195,51.15,25.5,39.6
-879.88281,359.375,39.0625,-0.1131133925583509,-0.1524164619840112,-0.059154618870769,-2.4,35.1,32.4,480.95703,4.88281,858.39844,0.0756753819713717,0.0572893854991626,0.1941179628677621,45.6,12.9,94.5,-515.13672,-1.46484,870.11719,-0.0782068075184643,0.0347734164179594,0.1496186991930643,50.25,26.1,38.7
-849.60937,378.90625,72.26563,-0.0353062654385932,-0.098724374606134,0.0166539317225298,-2.4,34.05,32.1,474.60937,30.76172,903.32031,0.0790061683158777,0.0624854052152749,0.1269693869570086,46.35,13.65,94.2,-542.48047,9.76562,872.55859,-0.0500949637895168,0.0708790426539661,0.1248376418086228,50.25,25.35,38.1
-849.60937,378.90625,66.40625,-0.0383705400063197,-0.0542251109314362,0.0002665117767795,-2.7,36.15,32.7,446.28906,18.06641,926.26953,0.074209828998472,0.0181194846954295,0.1452220402743654,44.85,13.35,94.5,-540.52734,46.38672,848.63281,-0.0411684773301918,0.1153783063286639,0.077540615342978,50.25,25.35,38.1
-838.86719,374.02344,62.01172,0.0053291883380394,0.0215834396618626,0.1095160944370653,-2.7,36.15,32.7,439.45312,21.48438,952.63672,0.0463644970463041,-0.0118575924051242,0.0774072721881257,45.6,12.9,95.25,-564.45312,41.99219,870.60547,-0.0483628990398376,0.0932618431132422,0.1013889687751538,50.25,25.35,38.1
-847.16797,396.48437,44.43359,0.0274456515534612,0.0496952833908101,0.1041869060990259,-3.3,37.2,33.3,436.52344,23.92578,939.94141,0.0838025076332833,-0.0390367321818059,0.1292343007273217,45.75,12.0,92.85,-571.77734,83.00781,854.00391,-0.0504946441882235,0.0263797789792682,0.0648836621404404,49.95,24.9,38.1
-889.16016,416.99219,36.13281,0.0279785005740951,0.1517504443414501,0.0981913510525749,-3.15,35.85,32.1,442.87109,43.45703,927.73437,0.0920628019171221,-0.0599539796681824,0.1478866344433851,45.75,12.0,92.85,-573.73047,93.26172,836.42578,-0.078606487917171,0.0026645941690197,0.0710122112758932,49.95,24.9,38.1
-890.13672,431.15234,30.76172,0.0583552580733556,0.1057856276938527,0.1853246450303643,-1.05,36.15,33.45,441.40625,62.5,930.66406,0.0562235129249697,-0.0326416712695735,0.1492190187943576,46.35,12.6,93.75,-560.05859,101.07422,884.76562,-0.1125803690047918,0.0050628510941851,0.08420218803199,49.95,25.35,39.15
-898.92578,454.58984,7.8125,0.0337075438437664,0.0720780838500862,0.1413584049092255,-2.55,34.5,32.25,454.58984,76.17188,916.50391,0.0873996312216436,-0.0241148652089552,0.1364287224369675,45.45,13.95,94.05,-561.52344,104.00391,829.58984,-0.1730673722265333,0.0074609334864253,0.0963261176809686,50.25,25.35,38.1
-887.69531,469.72656,0.0,-0.0295773967018471,0.1189754299170242,0.0672817445326806,-2.55,34.5,32.25,449.70703,80.07813,894.53125,0.0716784034513795,0.0398360929792193,0.1478866344433851,45.75,13.2,94.35,-546.38672,102.05078,867.1875,-0.1352296812408474,0.0427671989250186,0.0679479367081668,50.25,25.65,38.7
-896.48437,474.12109,-15.13672,-0.0314426300734534,0.0827366350590903,0.1396263401595463,-2.25,37.95,32.55,450.19531,104.00391,908.69141,0.0977916706538682,0.0317089673173077,0.1285681085518354,45.75,13.2,94.35,-535.64453,118.16406,873.04687,-0.1529494855375703,0.023448673033469,0.0908637607210019,50.25,25.35,39.15
-901.85547,479.98047,-21.48438,-0.0426340303030914,0.0355727772153728,0.1128468807815713,-3.3,35.7,31.2,456.05469,111.32813,901.85547,0.0803383781339249,0.0325085026476463,0.1973154060574157,45.45,13.2,94.35,-536.62109,101.5625,852.05078,-0.1486859952407985,0.0282450123508746,0.054091942309509,49.8,25.05,39.3
-904.29687,467.77344,-21.97266,-0.1458882324498516,0.0564900247017492,0.0615528757959344,-2.25,36.45,32.55,452.63672,112.30469,906.73828,0.0820704428836041,0.0417013263508257,0.2039769787464277,45.9,14.4,94.8,-535.15625,69.33594,883.78906,-0.1135130729570576,0.0210505906412288,0.0700796818565527,50.85,27.0,39.6
-893.06641,455.56641,-27.83203,-0.1040535629441735,0.0043966589186989,0.0666155523571943,-2.7,35.85,32.4,447.26562,94.23828,914.55078,0.0587549384720623,-0.0071944217096458,0.1596110582265822,45.9,14.4,94.8,-546.875,66.40625,873.04687,-0.054091942309509,0.0499617951675896,0.0983246942074273,50.85,27.0,39.6
-898.92578,437.01172,-22.46094,-0.1049862668964393,-0.0798055291132911,0.032375159492794,-2.7,35.85,32.4,455.07812,56.64063,904.78516,0.060753514998521,0.0181194846954295,0.1614762915981885,45.6,13.65,93.45,-555.17578,31.73828,863.76953,-0.054091942309509,0.0463644970463041,0.0771409349442713,51.0,25.65,39.15
-896.48437,424.80469,-35.64453,-0.1600107386252889,-0.0523598775598298,-0.031309286918601,-2.55,34.95,30.45,456.54297,20.01953,909.17969,0.0912634411197086,0.0198513749121835,0.0763415741468579,44.85,14.1,94.8,-557.61719,36.13281,865.72266,0.0415681577288985,0.0555574952824086,0.0620857248165682,51.0,25.65,39.15
-895.01953,415.03906,-8.30078,-0.0867336135790826,-0.1287014517066878,0.032375159492794,-2.7,35.55,32.7,461.42578,8.30078,918.45703,0.1061853080925594,0.0159877395470436,0.0587549384720623,45.75,12.75,94.35,-556.64062,31.25,886.23047,0.0185191650941362,0.0722112524720134,0.0746095093971788,50.1,25.05,39.6
-883.78906,416.99219,-5.85937,-0.0564900247017492,-0.1374945950111605,0.0082602942838387,-3.3,36.45,33.9,459.47266,1.46484,938.47656,0.1279019163763492,0.0337075438437664,0.039569755735365,45.75,12.75,94.35,-532.22656,30.27344,869.62891,0.0259800985805615,0.0374380105869791,0.0283781809728018,49.8,25.8,37.95
-871.09375,424.80469,0.97656,-0.0804717212887773,-0.1656064387401079,0.0178529729186499,-3.3,36.45,33.9,463.37891,20.01953,936.03516,0.1429571265040523,0.0470306892217904,-0.0002665117767795,44.55,14.4,93.75,-542.96875,38.08594,858.88672,-0.0131899767560967,0.0157212277702641,0.058088746296576,49.95,24.9,38.1
-870.60547,425.78125,13.67187,-0.0911300979648563,-0.086467101802303,0.0399694361340717,-2.1,36.6,31.35,439.45312,65.42969,921.38672,0.1564134405040034,0.0282450123508746,0.0142556747973644,44.7,14.25,95.4,-553.71094,63.96484,854.00391,0.0387702204050264,0.0097258472567384,0.0434333911005048,49.35,24.75,39.6
-860.35156,438.47656,-5.37109,-0.0516936853843436,-0.1320322380511938,0.1437564873014657,-2.25,35.25,33.6,436.52344,69.82422,911.62109,0.1330979360924615,0.0069280844657914,0.0046631706954784,43.8,12.15,93.45,-559.57031,51.75781,835.9375,0.0464976656682313,0.0520933657830503,0.0315757986953806,50.7,25.65,38.4
-866.21094,460.44922,-11.23047,-0.1001899275790336,-0.1041869060990259,0.0433002224785777,-2.7,37.65,33.15,417.48047,71.77734,901.85547,0.1133797298022052,-0.0037304667432126,0.0181194846954295,43.8,12.15,93.45,-575.19531,55.17578,831.54297,-0.0015987215948268,0.0692803210591393,0.0191853572696224,50.55,25.5,38.55
-897.94922,462.40234,-16.11328,-0.067015232755901,-0.093128674491315,0.1007227765996675,-1.8,35.7,30.9,410.15625,57.61719,892.08984,0.1059187963157798,0.0117244237831971,0.0299770771005538,44.7,14.25,94.65,-569.33594,78.125,817.87109,0.029044373148288,0.10205516095064,-0.041834669505678,50.55,25.5,38.55
-887.20703,474.60937,-10.25391,-0.1057856276938527,-0.1549478875311037,0.1765313271929664,-1.8,35.7,30.9,413.08594,56.15234,881.83594,0.0839356762552105,0.0634181091675407,0.0175864611418704,45.45,14.7,94.05,-554.6875,80.56641,810.54687,0.0716784034513795,0.0993905667816202,0.0415681577288985,49.8,25.5,38.25
-893.55469,468.26172,-15.625,-0.1251041535854023,-0.0684807857288007,0.1534823345582041,-2.25,35.7,30.9,387.69531,51.75781,879.39453,0.0702128504784798,0.1440229990782452,-0.0122572728038309,45.15,15.6,94.5,-578.125,119.62891,806.64062,0.0174532925199432,0.1212403436873373,0.0302434143444081,49.8,25.5,38.25
-921.875,470.70312,-16.60156,-0.1185757495183175,-0.0407687969314851,0.1480199775982374,-2.25,35.25,31.95,398.92578,77.63672,907.71484,0.0839356762552105,0.1067181571131932,0.0101255276554451,45.15,15.6,94.5,-583.98437,127.92969,807.61719,0.0433002224785777,0.1121806886060851,0.0731439564242791,50.55,25.05,39.0
-910.64453,483.39844,-16.11328,-0.0800720408900706,-0.0182526533173567,0.1468207618691921,-2.55,37.2,32.25,403.32031,100.09766,918.45703,0.1007227765996675,0.0907304175661496,-0.0298437339457014,44.7,14.7,93.6,-587.89062,158.20312,812.01172,0.0314426300734534,0.1195084534705833,0.060753514998521,50.1,25.5,39.0
-906.73828,489.74609,-25.87891,-0.0866002704242302,0.0067947413109391,0.0455651362488907,-3.15,37.35,32.7,389.16016,101.07422,926.26953,0.0928621627145355,0.0238483534321757,0.0122572728038309,45.75,15.0,94.35,-611.32812,130.37109,795.89844,0.0118575924051242,0.1060521394706322,0.1317657262744143,49.35,25.8,38.55
-895.50781,476.5625,-13.67187,-0.1064518198693389,-0.0018652333716063,0.0488959225933967,-2.1,36.15,33.45,393.55469,102.05078,931.64062,0.1095160944370653,0.0309096065198943,-0.0438330714992115,46.35,13.65,94.5,-621.58203,130.37109,835.9375,0.015055210127703,0.1027213531261262,0.0832694840797242,49.95,26.4,75.75
-873.04687,458.49609,-27.34375,-0.0546247913301429,-0.0107917198309313,0.0151883787496302,-2.1,36.15,33.45,399.41406,91.79688,933.10547,0.0983246942074273,0.0406354537766327,0.0241148652089552,46.35,13.65,94.5,-635.74219,96.19141,822.26562,-0.0059953805135257,0.0844685252758443,0.1052526041402936,49.95,26.4,37.35
-867.67578,457.51953,-29.78516,-0.0496952833908101,0.0899310567687362,-0.0117244237831971,-2.7,36.9,33.45,377.92969,84.96094,940.42969,0.0836691644784309,0.0684807857288007,-0.0210505906412288,44.7,14.25,94.65,-636.71875,87.89063,835.44922,0.0616860444178615,0.1096492630589925,0.1175098769441246,50.7,26.1,38.1
-875.97656,465.82031,-52.73438,-0.0121241041819038,0.1176432200989769,-0.0369049870334201,-2.7,36.6,32.1,373.04687,64.45313,971.19141,0.0863337586474507,0.0932618431132422,-0.0462311538914518,44.85,15.9,94.5,-648.4375,69.82422,784.17969,0.0471638578437175,0.0739433172216925,0.1269693869570086,50.1,26.25,37.2
-873.04687,473.14453,-33.20313,0.074209828998472,0.0937948666668012,0.0321086477160144,-2.55,37.95,33.9,354.49219,62.5,939.45312,0.1112481591867445,0.0301102457224809,-0.0335742006889141,45.15,15.15,93.45,-644.53125,32.22656,799.31641,0.1481531462201646,0.0366386497895657,0.1396263401595463,50.1,26.25,37.2
-906.25,456.05469,-43.94531,0.0299770771005538,0.1191087730718766,-0.042900542079871,-2.25,37.5,32.25,352.53906,63.47656,942.87109,0.1552143993078833,0.0009327039522657,-0.104320074720953,45.0,14.25,94.65,-629.39453,36.62109,812.98828,0.2115712553877054,-0.0138559943986577,0.1380276185647195,49.8,25.05,39.0
-938.47656,485.83984,-66.40625,0.1390934911389125,0.098724374606134,0.0365053066347134,-2.25,37.5,32.25,352.53906,66.89453,924.80469,0.1954501726858094,0.0103920394322246,-0.1040535629441735,45.9,14.4,92.7,-610.83984,7.8125,791.50391,0.1512174207878911,0.0339738810876208,0.1348300008421407,49.8,26.25,39.6
-949.21875,480.95703,-67.87109,0.0923293136939016,0.068614128883653,-0.0397029243572922,-2.55,36.0,33.3,345.70312,58.59375,904.29687,0.1284349399299083,0.0093261668580317,-0.1722680114291199,44.1,13.65,93.75,-617.1875,20.50781,816.89453,0.2003798551580673,0.0166539317225298,0.0560903443030425,51.45,26.4,38.7
-966.30859,501.95312,-77.14844,0.0700796818565527,0.0708790426539661,-0.0095926786348112,-3.15,35.55,32.4,347.65625,34.17969,914.0625,0.1145789455312505,0.0546247913301429,-0.1775971997671594,44.1,13.65,93.75,-610.83984,19.04297,797.36328,0.1997136629825811,0.0165205885676775,0.0519601971611231,49.65,26.4,38.4
-916.01562,493.65234,-64.94141,0.0462311538914518,0.1261700261595952,0.0031976177225788,-3.75,35.85,32.4,364.25781,41.99219,924.80469,0.1325650870718277,0.0246477142295891,-0.1955835158406617,45.9,14.4,94.2,-598.63281,-8.30078,807.12891,0.2539387739140173,-0.0070612530877186,0.0530260697353161,50.55,25.8,38.25
-896.48437,506.34766,-57.12891,0.0819372742616769,0.0238483534321757,0.059687642424328,-4.2,37.35,32.1,400.39062,33.69141,925.29297,0.1087167336396519,0.0229158240128351,-0.261000027001736,46.2,14.25,94.05,-605.95703,8.30078,849.12109,0.3318790696557022,-0.0147886983509235,0.0415681577288985,50.55,27.3,38.55
-862.30469,520.50781,-50.29297,0.0075941021083525,0.1164441789028568,0.0153215473715574,-4.2,37.35,32.1,385.74219,24.90234,955.07812,0.1272358987337882,0.080871401687484,-0.3065651632506267,46.5,15.0,93.6,-605.46875,-13.67187,814.45312,0.3197549654737983,-0.0543582795533633,-0.0640843013430269,50.55,27.3,38.55
-846.19141,506.34766,-35.64453,-0.0194516945134768,0.1045865864977326,0.0834028272345766,-2.25,36.75,31.5,404.29687,44.43359,935.54687,0.1248376418086228,-0.0063950609122324,-0.3358758736427691,46.5,15.0,93.6,-592.28516,-0.48828,833.98437,0.4280720187147436,-0.0616860444178615,-0.1257703457608885,50.25,26.4,38.7
-840.82031,497.07031,-34.66797,0.0247810573844414,-0.0054625314928918,0.1201746456460695,-2.4,35.55,31.65,401.36719,56.15234,937.98828,0.1300336615247351,-0.0109248884528585,-0.4179464910592985,44.7,16.2,94.05,-595.21484,20.50781,842.77344,0.4545849663159391,-0.079272505559732,-0.0827366350590903,50.25,26.4,38.7
-846.67969,490.23437,-19.04297,-0.0648836621404404,0.0482297304179105,0.0363721380127862,-2.7,36.9,32.1,385.74219,49.80469,942.38281,0.1153783063286639,-0.0242480338308824,-0.4024916005328887,47.4,14.4,92.4,-578.61328,21.97266,842.77344,0.4396630993430884,-0.0349065850398865,-0.1044532433428802,49.95,26.1,39.15
-839.35547,481.93359,-23.92578,-0.0382373713843925,0.060753514998521,0.005595700114819,-3.45,36.6,32.7,403.80859,38.08594,932.12891,0.1195084534705833,-0.0740764858436197,-0.4282051873366708,47.4,14.4,92.4,-575.19531,51.26953,864.25781,0.5239984559970056,-0.0291777163031404,-0.1145789455312505,50.25,26.4,37.35
-864.25781,482.91016,-10.74219,-0.0047963393174056,0.0041301471419193,0.0634181091675407,-3.45,36.6,32.7,418.94531,66.89453,924.80469,0.0952604196397009,-0.067015232755901,-0.4242082088166786,46.5,14.25,93.3,-571.77734,64.94141,848.63281,0.4944212338280837,-0.0366386497895657,-0.1437564873014657,49.35,26.25,39.0
-872.55859,465.33203,-10.25391,0.0161209081689708,-0.0305099261211876,0.0399694361340717,-1.8,37.2,32.55,417.96875,74.21875,912.59766,0.1131133925583509,-0.0823369546603836,-0.4677749430720358,46.2,14.25,93.6,-583.49609,79.10156,843.75,0.4954869318693514,-0.0315757986953806,-0.1697365858820273,50.1,28.05,38.25
-877.44141,463.86719,-31.25,-0.0470306892217904,-0.0125237845806105,-0.005595700114819,-3.0,36.75,33.0,413.08594,87.40234,914.0625,0.0812710820861907,-0.0904640803222952,-0.4937550416525974,45.6,14.85,94.2,-561.52344,105.46875,820.3125,0.5984747967722572,-0.0925956509377559,-0.1039203943222463,49.35,25.8,38.55
-908.20312,476.5625,-20.99609,0.0009327039522657,-0.0748760211739583,0.0459648166475974,-2.1,36.15,33.15,408.20312,107.42188,896.97266,0.1303001733015146,-0.0956601000384076,-0.5133399047880014,45.6,14.85,94.2,-571.28906,121.09375,813.47656,0.5682312078949239,-0.0940612039106556,-0.1211071750654101,49.8,27.0,37.95
-925.78125,481.93359,-28.80859,0.0218499514386422,-0.0903307371674429,0.0198513749121835,-3.0,37.5,33.0,416.99219,121.09375,891.11328,0.1434899755246862,-0.1172435397002702,-0.518136244105407,46.5,15.45,93.6,-554.6875,140.625,821.77734,0.5928790966574382,-0.0999234158022541,-0.0592879620256213,49.8,27.0,37.95
-902.83203,461.42578,-5.37109,-0.0049295079393327,-0.0436999028772844,-0.0303767574992605,-3.0,37.5,33.0,420.89844,117.1875,878.90625,0.0983246942074273,-0.1577458248549758,-0.498551380970003,44.7,15.45,93.3,-555.66406,148.92578,816.40625,0.5928790966574382,-0.0627519169920545,-0.0640843013430269,50.85,26.55,39.0
-915.52734,449.21875,5.37109,0.045165455850184,-0.1209740064434829,-0.0535589187559499,-1.65,35.1,31.35,447.26562,106.44531,872.07031,0.1332312792473139,-0.1486859952407985,-0.5377212817737361,47.25,15.75,92.55,-538.08594,148.4375,824.21875,0.5555742546923862,-0.079272505559732,-0.0726111074036452,50.85,26.55,39.0
