IMU1_AccX,IMU1_AccY,IMU1_AccZ,IMU1_GyrX,IMU1_GyrY,IMU1_GyrZ,IMU1_MagX,IMU1_MagY,IMU1_MagZ,IMU2_AccX,IMU2_AccY,IMU2_AccZ,IMU2_GyrX,IMU2_GyrY,IMU2_GyrZ,IMU2_MagX,IMU2_MagY,IMU2_MagZ,IMU3_AccX,IMU3_AccY,IMU3_AccZ,IMU3_GyrX,IMU3_GyrY,IMU3_GyrZ,IMU3_MagX,IMU3_MagY,IMU3_MagZ
-872.07031,422.36328,58.59375,-0.0023980823922402,0.0684807857288007,-0.0587549384720623,-1.2,34.95,34.35,431.64062,154.29687,863.76953,-0.0650168307623675,0.0311761182966739,-0.2208974222457371,47.4,14.85,94.2,-545.89844,176.26953,848.14453,0.1594777150717298,-0.0159877395470436,-0.1108484787880378,51.9,26.55,37.2
-889.64844,433.10547,52.73438,0.0728774446474996,-0.0137228257767306,-0.1091164140383586,-0.6,35.55,33.15,408.20312,142.57812,879.88281,-0.0862005900255235,-0.0354394340605204,-0.2066415729154474,46.8,15.45,94.05,-565.42969,194.33594,838.86719,0.0900643999235885,0.0211837592631559,-0.0743429976203992,49.8,26.55,37.5
-897.46094,452.14844,50.29297,0.0207840788644492,0.032375159492794,-0.113246561180278,-1.65,33.3,34.2,425.29297,164.0625,908.20312,-0.0932618431132422,-0.0153215473715574,-0.2019785767528942,46.8,15.45,94.05,-565.91797,191.89453,853.02734,0.0881991665519822,0.0058622118915985,-0.0763415741468579,50.55,28.05,37.2
-904.29687,447.75391,68.35938,-0.0307764378979672,0.0094593354799588,-0.1342971518215068,-1.65,33.3,34.2,426.26953,166.50391,916.99219,-0.1113813278086717,-0.0462311538914518,-0.1237717692344298,46.35,12.9,94.2,-570.80078,193.35937,863.28125,0.0026645941690197,-0.0014655529728996,-0.1133797298022052,50.85,27.3,37.95
-893.06641,437.01172,60.05859,-0.0245145456076619,-0.0002665117767795,-0.1237717692344298,-1.8,34.95,33.6,430.17578,177.24609,916.01562,-0.0904640803222952,-0.1021883295725672,-0.1029876903699806,46.65,13.35,94.5,-562.01172,200.68359,875.97656,0.0311761182966739,-0.055823832526263,-0.0975253334100139,50.55,28.05,37.2
-883.30078,447.26562,62.01172,-0.0419678381276052,-0.0219831200605693,-0.0831363154577971,-1.35,33.6,33.45,470.21484,181.15234,910.15625,-0.0936615235119489,-0.1426906147272728,-0.0838025076332833,47.7,14.1,93.45,-549.31641,186.52344,861.32812,0.0421010067495324,-0.0516936853843436,-0.1095160944370653,50.25,28.65,38.1
-889.64844,422.36328,65.42969,-0.052493046181757,0.0390367321818059,-0.1480199775982374,-2.4,34.35,33.75,462.40234,176.26953,935.54687,-0.1397595087814735,-0.0827366350590903,-0.0626187483701273,47.7,14.1,93.45,-561.03516,185.54687,900.39062,0.067015232755901,-0.0711455544307456,-0.0758085505932989,50.85,27.75,37.2
-879.39453,426.26953,81.54297,-0.0550244717288496,-0.0031976177225788,-0.1320322380511938,-1.35,35.55,33.15,491.69922,150.87891,940.42969,-0.0885988469506889,-0.1121806886060851,-0.040235773377926,47.1,12.9,94.5,-546.38672,172.36328,927.24609,0.1101822866125516,0.0051960197161123,-0.1036538825454668,50.85,27.75,37.2
-884.27734,408.20312,72.75391,-0.0514271736075641,-0.0157212277702641,-0.1004564393558132,-1.35,35.55,33.15,506.83594,143.55469,945.3125,-0.0984578628293545,-0.0877993116203503,-0.0676814249313873,47.7,14.4,94.5,-530.27344,167.48047,898.4375,0.1205743260447762,-0.0130566336012443,-0.1135130729570576,51.0,27.45,37.35
-892.08984,428.22266,60.54688,-0.0913966097416358,-0.0074609334864253,-0.1148452827751048,-0.45,34.95,33.6,503.41797,140.625,956.54297,-0.0526263893366094,-0.1345634890653612,-0.0604870032217414,46.8,14.25,94.05,-517.08984,164.55078,870.60547,0.1662726309155942,0.0161209081689708,-0.1506845717672572,50.55,27.3,38.55
-915.03906,446.28906,67.38281,-0.0911300979648563,-0.0610198522423753,0.0066615726890119,-0.45,34.95,32.25,493.16406,134.76562,922.36328,-0.0241148652089552,-0.1048529237415869,-0.0973919902551615,46.8,14.25,94.05,-520.01953,147.46094,848.63281,0.1381607871866467,0.0226493122360556,-0.1357627047944065,50.7,26.7,37.35
-947.75391,460.44922,69.33594,-0.1200413024912172,-0.0235820161883213,-0.0522267089379027,-0.3,36.15,33.75,471.19141,108.88672,901.85547,-0.0282450123508746,-0.0632847660126884,-0.0748760211739583,47.55,13.2,93.3,-524.90234,146.48437,855.95703,0.2162342515502586,-0.0133231453780239,-0.1660061191388146,51.75,26.1,37.65
-945.3125,474.12109,56.15234,-0.1893216235503565,-0.03064326927604,-0.031309286918601,-1.35,35.85,33.15,452.14844,116.69922,886.23047,-0.0455651362488907,-0.002264913770313,-0.0981913510525749,47.4,14.4,92.7,-526.85547,160.64453,848.14453,0.2014455531993351,0.0106585512090041,-0.1548147189091766,50.85,27.0,38.55
-926.26953,477.53906,65.42969,-0.2356861205966606,-0.0345069046411798,0.0458314734927451,-1.35,35.85,33.15,437.98828,111.81641,904.29687,-0.0750091897958855,0.0409019655534123,-0.1516171011865978,47.4,14.4,92.7,-541.01562,175.29297,801.75781,0.1814610096652244,0.0298437339457014,-0.1372282577673061,50.55,26.25,37.95
-929.19922,478.51562,62.5,-0.2893782079745378,-0.0415681577288985,0.0314426300734534,-0.15,35.25,33.6,412.10937,126.46484,892.57812,-0.0426340303030914,0.0265129476011954,-0.0984578628293545,47.55,14.7,94.35,-559.08203,167.48047,805.66406,0.1378942754098671,0.0213169278850831,-0.1718683310304132,50.55,26.25,37.95
-901.36719,463.37891,59.08203,-0.2953735884880635,0.0190520141147701,-0.0460979852695246,-1.2,36.45,33.3,418.94531,132.8125,892.57812,-0.0810045703094112,0.020117886688963,-0.032908183046353,46.2,13.95,92.85,-561.52344,202.63672,829.58984,0.0919296332951949,0.0884655037958365,-0.2050428513206206,49.65,26.1,37.05
-900.87891,442.87109,47.36328,-0.2811179136906991,0.0370383301882724,0.0075941021083525,-2.4,34.35,34.2,403.80859,153.32031,902.83203,-0.0816707624848974,-0.0102588708102974,-0.0383705400063197,48.9,14.4,93.45,-577.63672,223.14453,791.50391,0.0242480338308824,0.0771409349442713,-0.1755987977736259,49.65,26.1,37.05
-893.55469,439.45312,55.66406,-0.2819172744881125,0.0414349891069713,-0.0026645941690197,-1.5,35.25,34.95,403.32031,174.80469,909.17969,-0.0728774446474996,0.0058622118915985,-0.0341072242424731,48.9,14.4,93.45,-582.51953,245.11719,831.54297,-0.0202512298438154,0.0694134896810664,-0.1457548892949992,50.25,26.1,38.4
-886.23047,431.15234,47.36328,-0.3557274230878778,0.0698131700797731,-0.0867336135790826,-1.5,35.25,34.95,433.10547,167.48047,914.55078,-0.0947273960861418,-0.0255804181818548,0.0554241521275563,46.5,13.95,93.3,-583.49609,245.11719,842.77344,-0.0675482563094601,0.0559571756811154,-0.1083170532409452,51.6,26.55,36.9
-864.74609,427.73437,64.45313,-0.332944942229895,0.105385947295146,-0.1095160944370653,-1.8,35.25,34.35,433.59375,170.89844,918.45703,-0.1227058966602369,-0.041301645952119,0.0522267089379027,47.1,13.35,93.15,-576.17187,256.83594,809.57031,-0.1280352595312016,-0.0271791397766816,-0.0552909835056291,50.7,27.15,37.05
-841.30859,429.19922,62.98828,-0.2683277918662342,0.0034639549664331,-0.1001899275790336,-1.5,34.5,34.35,445.80078,166.01562,886.23047,-0.1261700261595952,-0.0722112524720134,0.0995237354035474,47.1,13.35,92.7,-568.84766,244.62891,811.52344,-0.1330979360924615,0.0295773967018471,-0.0631515973907612,51.45,26.1,37.05
-837.40234,379.39453,45.89844,-0.2684609604881613,0.1357627047944065,-0.0846018684306967,-1.2,34.2,34.65,423.82812,160.64453,872.07031,-0.1544150385104699,-0.0928621627145355,0.2019785767528942,46.65,12.9,93.75,-557.61719,207.51953,810.05859,-0.1938514510909826,-0.0139893375535101,-0.0326416712695735,51.45,26.1,37.05
-905.76172,400.39062,36.62109,-0.2472772012250054,0.1277687477544221,-0.1729342036046061,-1.2,34.2,34.65,446.77734,139.16016,898.92578,-0.1314992144976347,-0.0846018684306967,0.2138361691580184,46.8,14.25,93.6,-539.0625,175.29297,834.47266,-0.1818606900639311,0.0337075438437664,-0.0261132672024887,50.25,26.7,38.7
-928.22266,410.15625,33.20313,-0.2271593145360423,0.0620857248165682,-0.0959264372822619,-1.2,34.2,34.65,439.94141,98.14453,917.48047,-0.0884655037958365,-0.0294440535469947,0.1743997565775057,48.15,14.1,93.45,-552.24609,142.08984,868.16406,-0.1104486238564059,0.0321086477160144,-0.0331745202902074,51.45,27.45,37.65
-906.25,395.01953,4.39453,-0.2769877665487796,0.0684807857288007,-0.1785299037194251,-1.5,34.2,33.9,409.17969,54.19922,941.40625,-0.1117810082073784,-0.0117244237831971,0.1899878157258427,48.15,14.1,93.45,-575.19531,122.07031,822.75391,-0.0383705400063197,0.0486294108166172,-0.0516936853843436,51.45,27.45,37.65
-906.25,388.18359,21.97266,-0.2402159481372867,0.0218499514386422,-0.193584939314203,-1.35,36.6,34.2,417.96875,56.64063,954.10156,-0.0552909835056291,-0.049162259837251,0.1276355791324949,45.9,12.15,92.7,-578.125,126.95313,808.59375,-0.0389035635598788,0.125503833984109,0.0293108849250675,49.8,27.0,36.9
-917.48047,379.88281,-1.46484,-0.2118375926315597,0.0051960197161123,-0.1957166844625889,-1.65,36.6,35.25,407.22656,56.15234,936.03516,0.0482297304179105,-0.015055210127703,0.0873996312216436,46.8,12.45,94.05,-586.91406,130.37109,799.80469,0.0017320647496791,0.0804717212887773,0.0608866836204481,49.8,27.0,36.9
-935.05859,382.8125,2.92969,-0.2551378151101375,0.0325085026476463,-0.1807948174897382,-1.65,36.6,35.25,399.90234,79.58984,920.41016,0.1048529237415869,-0.0169204434993094,0.0939280352887284,46.65,12.9,93.45,-586.91406,141.11328,791.01562,-0.0780734643636119,0.0903307371674429,-0.0178529729186499,51.45,27.45,38.4
-949.70703,395.99609,-13.18359,-0.2284915243540896,0.0170536121212365,-0.143356806902759,1.05,36.6,33.45,404.78516,116.69922,899.90234,0.0447657754514773,-0.0133231453780239,0.1248376418086228,46.65,12.9,93.45,-603.51562,148.92578,804.6875,-0.1092495826602858,0.0514271736075641,-0.002264913770313,49.95,26.7,38.7
-958.98437,375.0,0.97656,-0.1669388230910804,-0.0335742006889141,-0.1119141768293056,0.3,36.9,35.25,394.53125,141.11328,905.76172,0.0038636353651398,0.0251807377831481,0.1995803198277287,46.5,13.5,93.3,-604.98047,141.60156,772.46094,-0.1898544725709904,0.0989908863829135,-0.0103920394322246,50.25,27.15,37.35
-949.70703,372.55859,6.34766,-0.2139693377799456,-0.0403691165327784,-0.0779402957416847,37.95,36.9,35.25,395.01953,159.66797,919.43359,-0.0378376909856858,0.0444992636746978,0.1759984781723326,48.3,13.2,94.65,-617.1875,153.32031,771.97266,-0.1893216235503565,0.0815375938629702,-0.0249142260063686,51.75,26.7,37.65
-948.73047,362.79297,-0.48828,-0.2355527774418083,0.0349065850398865,-0.1097826062138449,-0.45,34.95,35.4,374.02344,125.0,902.83203,-0.0386370517830992,0.0075941021083525,0.2017120649761146,47.7,13.65,94.2,-616.21094,124.51172,785.64453,-0.2310229499011822,0.0230489926347623,0.0005328490206338,50.1,25.8,37.5
-950.19531,363.76953,9.27734,-0.1646737347878422,-0.0215834396618626,-0.0133231453780239,-0.75,35.7,35.7,354.98047,92.77344,895.99609,-0.0562235129249697,-0.0171867807431637,0.2502083071708046,46.5,14.7,94.35,-607.42187,106.93359,797.36328,-0.2192987006509103,0.0050628510941851,-0.0692803210591393,50.55,26.25,37.95
-925.29297,371.09375,21.97266,-0.1881225823542364,0.0575558972759422,-0.029044373148288,-0.75,35.7,35.7,359.375,88.86719,893.55469,-0.0868667822010097,-0.036238969390859,0.250474644414659,46.35,12.6,93.15,-619.62891,65.42969,781.73828,-0.1830597312600512,-0.0357059458372999,-0.0901975685455157,50.55,26.25,37.95
-906.25,375.0,29.29688,-0.18625734898263,0.0209172474863764,0.020117886688963,-0.15,34.2,35.4,372.55859,52.24609,916.01562,-0.1381607871866467,0.0302434143444081,0.1894547921722836,47.1,14.1,93.75,-617.1875,76.66016,818.84766,-0.189588135327136,-0.0498284520127373,-0.0472970264656447,50.7,26.4,38.1
-896.97266,379.39453,23.92578,-0.1376279381660128,0.0496952833908101,0.0634181091675407,-0.15,36.45,34.35,388.67187,47.36328,936.52344,-0.1300336615247351,-0.0245145456076619,0.1981147668548291,47.1,14.1,93.75,-627.44141,52.24609,823.24219,-0.1047197551196597,-0.0431668793237253,-0.0371714988101996,50.7,26.4,38.1
-914.0625,381.34766,16.11328,-0.0968591412345277,0.0378376909856858,0.0830031468358699,-0.15,36.45,34.35,385.74219,28.80859,937.5,-0.0908637607210019,-0.0023980823922402,0.1925190667400101,47.1,12.6,94.2,-630.37109,45.41016,811.03516,-0.080871401687484,-0.0366386497895657,-0.0606201718436686,50.7,26.7,39.45
-924.31641,372.07031,19.53125,-0.0943277156874351,0.0917962901403425,-0.0149218669728507,-1.05,35.1,33.75,387.69531,1.46484,942.87109,-0.0715452348294523,-0.0046631706954784,0.1007227765996675,45.9,11.85,93.45,-625.48828,49.80469,823.73047,-0.0722112524720134,-0.0812710820861907,-0.0069280844657914,51.15,24.75,37.5
-907.71484,376.95312,20.50781,-0.0584886012282079,0.0107917198309313,0.0940612039106556,-1.05,35.1,33.75,383.30078,6.34766,918.94531,-0.0718115720733066,-0.0066615726890119,0.116577347524784,46.2,13.95,94.65,-615.72266,72.75391,843.26172,-0.0245145456076619,-0.1123138572280122,0.005595700114819,50.55,25.8,36.9
-922.85156,400.87891,31.73828,-0.0747426780191059,0.0883323351739094,0.0411684773301918,-1.05,36.15,34.5,404.29687,3.90625,939.45312,-0.0190520141147701,-0.0483628990398376,0.1011224569983742,46.2,13.95,94.65,-602.53906,70.3125,817.87109,-0.059687642424328,-0.0937948666668012,0.025713586803782,50.55,27.0,37.95
-942.87109,406.25,33.20313,-0.0868667822010097,0.0619525561946411,0.0417013263508257,-0.6,35.1,34.5,416.99219,20.50781,939.45312,0.0193185258915496,-0.0881991665519822,0.0891316959713228,46.8,13.2,94.35,-589.84375,92.28516,775.39062,-0.0097258472567384,-0.1273690673557154,0.0747426780191059,49.95,26.1,37.65
-954.10156,421.875,33.20313,-0.0309096065198943,0.0242480338308824,0.0349065850398865,-0.15,36.0,34.65,421.875,44.92188,923.82812,0.0283781809728018,-0.0466310088230837,0.0538254305327295,46.2,12.75,95.1,-589.35547,105.46875,807.61719,-0.0702128504784798,-0.1252373222073295,0.0695466583029936,49.95,26.4,38.4
-946.28906,409.66797,35.64453,-0.0406354537766327,0.0213169278850831,0.063018428768834,0.3,35.55,35.55,415.52734,73.73047,925.78125,0.0027979373238721,0.016787100344457,0.1104486238564059,44.85,13.35,94.2,-576.66016,123.04688,815.91797,-0.0798055291132911,-0.1083170532409452,0.0684807857288007,49.95,26.4,38.4
-968.26172,404.78516,7.8125,-0.1116478395854512,0.0542251109314362,-0.0075941021083525,0.3,35.55,35.55,404.78516,85.9375,915.03906,-0.0315757986953806,-0.0214502710399355,0.1577458248549758,44.85,13.35,94.2,-578.61328,137.69531,790.03906,-0.1021883295725672,-0.0634181091675407,-0.0098591904115907,51.0,26.1,37.65
-988.76953,416.50391,14.16016,-0.0425006871482391,0.0030642745677264,-0.0206509102425221,-0.15,37.2,36.0,407.22656,101.07422,896.97266,-0.0115910806283447,0.0030642745677264,0.1838590920574646,46.8,12.0,94.05,-550.29297,153.80859,779.29687,-0.1056524590719255,-0.0274456515534612,0.0363721380127862,51.0,26.1,37.65
-1000.97656,413.57422,20.50781,-0.0784731447623186,-0.0627519169920545,0.0031976177225788,-1.35,35.85,33.45,422.36328,106.93359,885.74219,-0.0115910806283447,0.0090596550812521,0.1995803198277287,46.65,12.15,93.45,-549.80469,158.20312,811.03516,-0.1333644478692411,0.0029311059457992,0.0828698036810175,51.0,26.1,37.65
-973.14453,410.15625,32.22656,-0.1113813278086717,0.031309286918601,-0.0043966589186989,-1.35,35.85,35.85,426.26953,108.88672,889.16016,-0.0199847180670358,0.0227824808579827,0.1845252842329509,45.75,13.2,94.35,-548.82812,183.10547,830.07812,-0.1850581332535847,-0.0085268060606182,0.0498284520127373,49.8,26.25,36.9
-949.70703,395.99609,47.36328,-0.0863337586474507,-0.0446324322966249,-0.0194516945134768,-2.25,37.5,34.95,445.3125,92.77344,885.25391,-0.0009327039522657,0.0519601971611231,0.2380842029889009,45.75,13.2,94.35,-536.13281,160.64453,819.82422,-0.140026020558253,0.0035972981212855,0.0764747427687851,51.45,26.7,38.4
-938.96484,393.06641,69.82422,-0.0750091897958855,-0.0576890658978693,0.0070612530877186,-2.25,37.5,34.95,454.58984,92.77344,888.67187,-0.0330413516682802,0.0892648645932499,0.2340872244689086,44.7,12.75,94.05,-557.12891,149.41406,812.01172,-0.145621720673072,0.0242480338308824,0.0884655037958365,50.1,25.5,37.95
-934.08203,378.90625,66.89453,-0.128834620328615,0.0137228257767306,-0.0642174699649541,-1.8,37.2,35.4,443.84766,90.82031,890.625,0.0079939570399844,0.0908637607210019,0.2395497559618005,45.6,12.6,94.5,-571.28906,115.23438,813.96484,-0.165073589719474,0.0213169278850831,0.0996569040254746,51.45,26.7,38.4
-929.6875,368.16406,60.05859,-0.067015232755901,-0.0133231453780239,-0.039569755735365,-1.05,37.35,34.5,434.08203,75.19531,901.36719,-0.0089264864593249,0.0943277156874351,0.2829831470623054,45.6,12.9,93.75,-569.82422,128.41797,848.63281,-0.2001133433812878,0.0157212277702641,0.0836691644784309,51.45,26.4,38.1
-936.03516,368.65234,64.45313,-0.0341072242424731,-0.0476967068643514,-0.0682144484849463,-1.65,36.6,35.55,425.29297,53.71094,908.69141,0.0439662401211387,0.0940612039106556,0.2680612800894547,47.1,12.9,93.75,-598.14453,111.32813,862.30469,-0.2228958242392706,-0.0295773967018471,0.0984578628293545,50.7,25.35,37.35
-912.10937,369.62891,66.40625,-0.0474303696204971,0.0417013263508257,-0.1156446435725182,-0.6,35.55,35.55,423.33984,37.59766,961.42578,-0.0031976177225788,0.1128468807815713,0.2812510823126262,46.5,11.55,93.6,-583.98437,108.88672,858.39844,-0.2656630231642893,-0.0033307863445059,0.1212403436873373,50.7,25.35,37.35
-908.20312,370.60547,71.77734,-0.0013323843509724,0.0181194846954295,-0.0548913031069224,-0.6,35.55,35.55,417.48047,33.69141,965.82031,0.0063950609122324,0.1040535629441735,0.2823169548868192,46.65,11.4,94.5,-601.07422,118.65234,846.19141,-0.2908437609474374,0.0058622118915985,0.1101822866125516,50.1,24.75,38.25
-921.875,372.55859,62.5,0.0271791397766816,0.0927289940926083,-0.0001331686219271,-1.35,36.9,35.55,425.78125,59.57031,959.96094,0.0731439564242791,0.0588882816269146,0.2833828274610121,46.65,11.4,94.5,-578.125,112.30469,839.84375,-0.2784533195216793,-0.0417013263508257,0.146687593247265,51.15,25.8,39.0
-939.94141,402.34375,64.45313,-0.0433002224785777,0.1520167815853045,-0.032375159492794,-1.35,35.55,35.55,406.25,46.875,947.75391,0.0361056262360067,0.0971256530113072,0.2511408365901452,45.75,12.75,93.3,-574.21875,135.74219,860.35156,-0.2647304937449487,-0.0867336135790826,0.1067181571131932,50.7,26.1,37.35
-945.80078,401.36719,59.08203,-0.0067947413109391,0.0571562168772355,-0.0225161436141284,-1.05,36.15,34.2,417.96875,88.37891,929.19922,0.0390367321818059,0.0535589187559499,0.2843155314132778,44.85,13.35,94.5,-534.66797,127.92969,865.23437,-0.3048330985009476,-0.0960597804371143,0.1120475199841579,50.1,27.0,38.55
-947.26562,398.92578,66.40625,0.0003996803987067,0.0307764378979672,0.0702128504784798,-0.6,36.6,34.8,453.61328,73.73047,926.26953,0.0165205885676775,0.0389035635598788,0.3302801735279502,46.35,13.35,93.75,-541.01562,129.39453,865.72266,-0.3595910584530177,-0.0556906639043358,0.1019218177957876,50.1,26.25,38.25
-932.12891,400.39062,84.96094,-0.0586217698501351,0.0949939078629213,-0.0087933178373978,-0.6,36.6,34.8,458.00781,92.28516,882.32422,0.0619525561946411,0.0187856768709157,0.3274824107370032,46.35,13.35,93.75,-531.25,119.62891,858.39844,-0.3598575702297972,-0.1000565844241813,0.1297671497479555,50.1,26.55,39.0
-930.66406,398.4375,87.40234,-0.0366386497895657,0.0732771250462063,0.0209172474863764,-0.75,35.7,34.35,457.51953,97.65625,868.65234,0.0722112524720134,0.0458314734927451,0.3400061953176138,46.65,12.6,93.45,-516.60156,125.97656,850.58594,-0.3810413294929532,-0.059687642424328,0.1233720888357231,50.1,26.55,39.0
-902.83203,410.15625,81.05469,0.006128723668378,0.0251807377831481,0.1032542021467601,-0.6,35.85,35.25,448.24219,93.75,859.375,0.0528927265804637,0.0305099261211876,0.3497320425743521,45.75,13.5,93.6,-513.67187,131.83594,869.62891,-0.3422711090879268,-0.0291777163031404,0.1328315988486072,50.7,28.2,38.7
-913.08594,407.71484,88.86719,-0.031309286918601,0.0579555776746489,0.0281118437289474,-1.5,35.7,35.7,468.75,108.39844,845.21484,0.0458314734927451,0.1033873707686873,0.3622558271549626,45.75,13.5,93.6,-502.92969,128.41797,858.39844,-0.3835727550400458,-0.0245145456076619,0.1084502218628724,50.7,28.2,38.7
-911.13281,396.97266,102.53906,-0.0456983048708179,0.0646171503636608,0.0423675185263119,-1.5,36.45,34.65,499.51172,80.07813,893.55469,0.0908637607210019,0.1107151356331855,0.3735803960065278,44.7,13.2,92.55,-494.62891,136.71875,878.41797,-0.4059555554993219,-0.0363721380127862,0.2017120649761146,50.1,25.8,37.5
-898.92578,421.38672,105.46875,0.0231821612566894,0.013456313999951,0.0767412545455646,-1.5,36.45,34.65,499.51172,81.05469,876.46484,0.0834028272345766,0.1425574461053456,0.4174134675057394,46.2,13.95,92.85,-480.46875,146.48437,877.92969,-0.523065926577665,0.0089264864593249,0.114312433754471,50.7,25.65,39.45
-891.11328,432.12891,106.93359,-0.0427671989250186,0.0638177895662474,0.0030642745677264,-1.8,35.7,36.0,521.97266,77.63672,929.6875,0.0371714988101996,0.1640077171452811,0.4639111331739707,45.6,13.35,94.5,-497.55859,147.46094,880.85937,-0.6107320695760882,0.0190520141147701,0.0439662401211387,49.95,24.15,39.15
-853.02734,434.57031,104.00391,-0.0459648166475974,0.0678147680862396,0.0691469779042869,-1.5,37.2,33.0,520.01953,115.72266,898.92578,-0.0161209081689708,0.1454885520511449,0.460180666430758,45.6,13.35,94.5,-472.65625,167.96875,865.72266,-0.6171271304883207,0.0834028272345766,0.0698131700797731,50.7,26.4,40.2
-876.46484,431.15234,119.62891,0.0099923590335179,0.0243813769857347,0.0695466583029936,-2.1,36.6,34.8,508.78906,116.21094,916.01562,-0.032908183046353,0.0731439564242791,0.5618361469826915,45.6,12.15,93.75,-492.67578,165.03906,812.98828,-0.612330791170915,0.0592879620256213,0.0779402957416847,49.8,25.05,39.0
-905.76172,432.61719,94.23828,-0.0708790426539661,0.0325085026476463,0.0905972489442224,-2.1,36.15,35.55,466.30859,101.07422,870.60547,-0.0241148652089552,0.0494287716140306,0.5715619942394298,45.45,13.95,93.6,-513.18359,175.29297,862.79297,-0.6327151896366576,0.0454317930940384,0.1536156777130565,50.7,25.35,40.2
-897.94922,420.89844,76.17188,-0.082603291904238,0.0390367321818059,0.0570230482553083,-2.1,36.15,35.55,443.84766,73.73047,858.88672,-0.0213169278850831,-0.0279785005740951,0.591147031907759,46.35,14.85,92.7,-536.13281,149.90234,875.48828,-0.5895483103129322,0.1073843492886795,0.2133031456044594,50.7,25.35,40.2
-893.55469,403.32031,72.75391,0.0119907610270514,0.0163874199457503,0.0123904414257581,-2.1,36.15,35.55,461.91406,70.3125,876.46484,0.0218499514386422,0.0275788201753884,0.558771872414965,45.9,12.9,93.15,-554.19922,158.20312,859.375,-0.671485410041684,0.0929953313364626,0.2736569802042737,50.7,25.35,40.2
-880.85937,382.8125,73.73047,0.0762082309920056,0.0177198042967228,-0.0018652333716063,-1.2,37.2,34.65,486.81641,77.63672,920.41016,0.0582220894514284,0.0791393369378048,0.5786232473271485,45.45,13.95,93.3,-561.52344,127.92969,907.71484,-0.654698309697227,0.148952507017578,0.2368851617927808,50.1,26.55,38.55
-876.95312,380.85937,84.47266,0.0623522365933478,0.0850015488294034,-0.0704793622552594,-1.8,36.75,34.35,493.65234,81.54297,973.14453,0.1261700261595952,0.2188988457192784,0.5610367861852781,46.2,13.5,94.35,-555.17578,79.10156,913.57422,-0.6782801513526231,0.0572893854991626,0.2372848421914875,50.1,26.55,38.55
-900.87891,391.11328,59.08203,0.105385947295146,0.0209172474863764,-0.0423675185263119,-1.5,36.45,33.6,467.28516,69.82422,988.28125,0.1791960958949114,0.1413584049092255,0.5066783320989894,46.2,13.5,94.35,-579.58984,48.82813,884.27734,-0.6432403976908093,0.0884655037958365,0.2655298545423621,49.35,25.5,40.05
-904.29687,423.82812,46.875,0.1402925323350325,0.032908183046353,-0.0472970264656447,-1.5,36.45,33.6,418.45703,69.33594,986.32812,0.1845252842329509,0.1299004929028079,0.4772342785519947,45.6,13.65,94.2,-565.91797,11.23047,851.5625,-0.6018055831167631,0.0695466583029936,0.2590014504752773,49.2,26.7,39.45
-936.52344,445.3125,33.20313,0.0784731447623186,0.1248376418086228,-0.054091942309509,-1.5,34.5,34.35,410.64453,52.24609,968.26172,0.1119141768293056,0.0568897051004559,0.5257305207466848,45.6,11.85,94.2,-552.24609,-5.85937,909.17969,-0.6075344518535093,0.0083936374386911,0.2617993877991494,51.75,26.4,40.2
-941.89453,476.5625,16.60156,0.0791393369378048,0.0138559943986577,-0.0231821612566894,-0.6,34.8,34.5,416.50391,30.76172,933.10547,0.1271025555789358,0.0262466103573411,0.479099511923601,45.15,13.65,93.75,-564.94141,7.32422,898.4375,-0.5165375225105803,-0.0154548905264097,0.229290885151503,49.95,26.1,40.5
-942.38281,483.39844,19.04297,0.0417013263508257,-0.0253139064050753,0.0317089673173077,-0.6,35.55,34.8,445.80078,50.29297,945.80078,0.0834028272345766,0.0034639549664331,0.4320689972347358,45.15,13.65,93.45,-549.80469,-51.26953,865.72266,-0.5682312078949239,0.0,0.1653399269633284,49.05,25.8,40.05
-937.5,486.81641,31.73828,-0.0476967068643514,0.0654165111610742,0.0015987215948268,-2.4,36.15,33.75,436.03516,39.55078,924.80469,0.0520933657830503,0.0422343499043847,0.4055558751006152,45.15,13.65,93.45,-559.57031,-88.86719,867.67578,-0.5245313050176394,0.025713586803782,0.1550812306859561,49.2,25.35,40.2
-906.73828,487.30469,29.78516,-0.0247810573844414,-0.0210505906412288,0.0660827033365605,-2.4,36.15,33.75,421.875,18.06641,906.25,0.0023980823922402,0.0909969293429291,0.4455253112346869,45.9,15.15,93.75,-549.31641,-95.21484,874.02344,-0.4527197329443327,0.0470306892217904,0.0824701232823108,49.2,25.35,40.2
-906.25,494.62891,31.25,-0.0763415741468579,-0.0671485759107534,0.0594211306475485,-0.6,36.15,34.5,397.94922,-0.97656,866.21094,0.0373046674321268,0.1309663654770009,0.377044350972961,45.45,14.7,94.35,-526.36719,-104.98047,847.65625,-0.3723813548104077,-0.0213169278850831,0.0572893854991626,49.8,26.25,41.4
-889.64844,489.74609,38.08594,-0.145621720673072,-0.0343737360192527,0.0343737360192527,-0.75,37.5,34.35,378.90625,-4.39453,861.81641,-0.0390367321818059,0.1289677889505422,0.3706492900607286,45.45,14.7,94.35,-532.71484,-122.07031,856.93359,-0.2760550625965139,0.039569755735365,-0.0106585512090041,49.8,26.25,41.4
-872.55859,489.25781,53.22266,-0.1287014517066878,-0.069680001457846,0.0692803210591393,-1.5,35.7,33.9,404.29687,-29.29688,860.83984,-0.0903307371674429,0.058088746296576,0.2853812294545456,47.25,13.2,94.35,-516.60156,-138.18359,865.72266,-0.1602772504020684,0.042900542079871,-0.0542251109314362,50.1,23.7,40.35
-862.79297,483.39844,51.26953,-0.1779968801658661,-0.0417013263508257,-0.0165205885676775,-1.8,36.0,35.4,438.96484,-84.96094,879.39453,-0.0319754790940873,0.0532925815120956,0.1490856756395052,45.75,14.25,94.35,-512.69531,-143.06641,862.79297,-0.0215834396618626,-0.0531592383572432,-0.0623522365933478,49.2,26.1,39.15
-833.98437,457.51953,56.15234,-0.2142358495567251,0.0237151848102485,0.0415681577288985,-1.8,36.0,35.4,450.68359,-113.28125,874.51172,0.0057288687367461,0.0872664625997164,0.0131899767560967,45.15,13.35,93.15,-520.01953,-134.27734,862.79297,0.05475795995207,-0.0615528757959344,-0.0154548905264097,50.25,25.65,39.15
-832.51953,455.07812,67.38281,-0.1617428033749681,-0.016787100344457,0.0750091897958855,-1.5,36.45,34.95,446.77734,-109.375,922.85156,0.0447657754514773,0.0728774446474996,-0.0985910314512816,45.15,13.35,93.15,-547.85156,-113.28125,859.86328,0.1870567097800435,-0.0293108849250675,-0.060753514998521,50.7,24.9,40.95
-846.67969,437.01172,58.59375,-0.1401591891801802,-0.0229158240128351,0.0688804661275074,-1.05,36.15,34.8,447.26562,-115.72266,916.99219,0.1104486238564059,0.0812710820861907,-0.1670719917130076,45.0,13.95,94.05,-558.59375,-103.51563,834.96094,0.1967825570367818,0.0047963393174056,-0.0822036115055313,49.05,23.7,40.35
-852.05078,445.80078,36.62109,-0.1530826541594974,0.0406354537766327,-0.0019984019935335,-2.55,36.45,36.0,406.25,-91.30859,910.15625,0.1208406632886305,0.0169204434993094,-0.1672051603349347,45.0,13.95,94.65,-576.66016,-61.03516,833.00781,0.2438132462585722,0.0532925815120956,-0.041834669505678,50.25,24.9,39.9
-873.04687,428.22266,26.85547,-0.0723445956268657,0.0,0.0115910806283447,-1.65,36.9,35.25,373.53516,-72.75391,916.01562,0.148952507017578,0.0564900247017492,-0.2919096335216304,45.45,14.7,94.65,-611.81641,-27.34375,830.07812,0.32401845577057,0.0250473946282958,-0.057422728654015,50.25,24.9,39.9
-889.64844,414.55078,18.55469,-0.068614128883653,0.0321086477160144,0.0341072242424731,-1.65,36.9,35.25,357.42187,-22.94922,933.59375,0.1666723113143009,0.0151883787496302,-0.2683277918662342,44.7,13.95,95.1,-608.39844,10.74219,814.45312,0.3464012562298461,0.0043966589186989,0.0279785005740951,49.35,24.75,39.3
-897.46094,416.50391,18.06641,-0.0347734164179594,0.0824701232823108,-0.0334410320669869,-1.5,36.0,34.35,352.53906,-6.83594,931.64062,0.1660061191388146,0.0492956029921034,-0.3011026317577349,45.15,14.1,94.5,-604.49219,24.41406,826.66016,0.3473337856491867,0.0118575924051242,0.0049295079393327,49.35,24.75,39.3
-900.87891,404.78516,16.11328,0.0059953805135257,0.0811377389313384,-0.0726111074036452,-0.45,36.0,34.95,350.58594,25.39063,968.75,0.1409587245105188,0.0672817445326806,-0.3214870302234775,45.45,14.7,93.6,-604.00391,56.64063,803.22266,0.3114946711899595,-0.029044373148288,0.0255804181818548,50.85,24.75,40.05
-888.67187,404.29687,11.71875,0.0957932686603347,0.1063184767144865,0.0053291883380394,-0.6,36.9,33.15,348.14453,69.33594,946.77734,0.1676048407336414,0.0600873228230347,-0.3052327788996543,45.45,14.7,93.6,-607.42187,84.47266,842.77344,0.3723813548104077,0.0197182062902563,0.0153215473715574,49.05,25.8,39.6
-899.41406,425.78125,-17.08984,0.0819372742616769,0.1681378642872005,-0.0381042027624654,-1.2,37.2,34.95,362.30469,79.58984,975.09766,0.1345634890653612,0.0161209081689708,-0.3048330985009476,47.1,14.4,93.45,-611.81641,75.19531,825.19531,0.2737901488262009,0.0367718184114929,0.0819372742616769,50.1,25.05,41.1
-896.48437,439.45312,-20.99609,0.0834028272345766,0.1893216235503565,-0.0527595579585365,-1.2,37.2,34.95,376.95312,63.47656,958.98437,0.0642174699649541,-0.0401026047559989,-0.2841821882584255,44.7,14.25,95.1,-607.91016,79.10156,870.11719,0.3001699278054692,0.0606201718436686,0.1105819670112583,50.25,26.4,41.1
-911.62109,431.15234,-7.8125,0.1338974714228001,0.1372282577673061,-0.0149218669728507,-1.2,37.5,34.95,410.64453,38.08594,952.14844,0.1004564393558132,-0.029044373148288,-0.3216201988454046,47.25,14.7,93.6,-600.09766,78.61328,852.05078,0.2771209351707068,-0.0099923590335179,0.1107151356331855,50.25,26.4,39.45
-938.47656,430.66406,-14.64844,0.1041869060990259,0.1352296812408474,-0.0098591904115907,-1.05,35.55,33.15,401.36719,44.43359,937.01172,0.1008561197545199,-0.0887320155726161,-0.273257299805567,47.25,14.7,93.6,-574.70703,87.89063,834.47266,0.3136264163383455,0.0398360929792193,0.1322985752950481,49.65,25.65,40.2
-973.14453,422.36328,-14.64844,0.1306998537002213,0.1123138572280122,-0.0731439564242791,-1.05,36.15,33.75,413.08594,35.15625,922.85156,0.0951270764848485,-0.0578224090527217,-0.3345436638247219,45.6,14.4,95.25,-565.42969,91.30859,844.72656,0.3080307162235264,0.0584886012282079,0.1889219431516497,51.45,25.35,39.9
-1002.92969,434.57031,-22.94922,0.2174334672793039,0.0277121633302407,-0.023448673033469,-3.3,36.75,33.6,424.31641,70.80078,916.01562,0.1605435876459228,-0.0455651362488907,-0.287779486379711,45.9,14.85,93.45,-568.84766,98.14453,846.19141,0.211437912232853,0.0227824808579827,0.1481531462201646,51.45,25.35,39.9
-983.39844,421.38672,-16.11328,0.1834594116587579,0.018385996472209,-0.0880658233971298,-3.3,36.75,33.6,424.31641,93.75,912.10937,0.1630750131930153,-0.0327748398915007,-0.3013691435345145,45.9,14.85,93.45,-555.66406,109.86328,830.07812,0.2410153089347001,0.0478300500192038,0.1770643507465255,49.35,27.0,40.35
-981.93359,422.85156,-8.78906,0.1513507639427435,-0.0527595579585365,-0.0483628990398376,-0.6,36.9,33.45,417.48047,94.23828,931.15234,0.1276355791324949,-0.0500949637895168,-0.2228958242392706,45.15,14.4,93.15,-568.84766,106.93359,827.14844,0.1597442268485094,0.0353062654385932,0.1858576685839233,49.35,27.0,40.35
-948.73047,436.03516,-16.60156,0.2202312300702509,-0.0992572236267679,0.0265129476011954,-1.05,35.55,35.55,409.66797,102.53906,925.29297,0.150018379591771,-0.0333078634450597,-0.2496752836172456,46.2,13.95,92.25,-570.3125,89.35547,804.6875,0.1494855305711371,0.0676814249313873,0.1538820149569108,50.85,25.5,38.55
-928.22266,446.77734,-18.55469,0.1614762915981885,-0.034640073263107,0.0289112045263608,-1.5,35.7,33.6,401.36719,122.55859,919.92187,0.1192419416938038,0.0013323843509724,-0.1998468316045083,46.35,14.1,92.4,-586.91406,92.28516,818.35937,0.1779968801658661,0.110981647409965,0.0803383781339249,49.35,25.5,39.3
-913.08594,438.96484,-1.95312,0.1177763887209041,-0.0546247913301429,-0.0039969785199922,-1.8,35.25,35.4,382.32422,111.81641,930.66406,0.1529494855375703,0.0286446927495813,-0.2467441776714463,46.35,14.1,92.4,-589.84375,94.23828,838.86719,0.2327550146508613,0.1115144964305989,0.1212403436873373,49.05,27.3,39.6
-910.15625,429.19922,-2.44141,0.1842587724561713,-0.0714118916745999,0.1084502218628724,-1.8,35.25,35.4,373.04687,99.12109,938.96484,0.1553475679298105,0.0635512777894679,-0.2427473736843793,45.75,15.0,92.85,-615.23437,108.39844,881.34766,0.3129602241628592,0.0602204914449619,0.1108484787880378,48.75,25.8,39.0
-869.62891,437.98828,8.30078,0.1285681085518354,-0.0718115720733066,0.0643506385868813,-1.8,36.45,33.3,375.97656,110.83984,962.89062,0.1564134405040034,0.0754088701945922,-0.3028345219744889,46.8,14.7,93.3,-612.79297,87.89063,868.65234,0.3325450872982631,0.0411684773301918,0.0988575432280612,49.05,27.3,39.6
-852.53906,452.14844,-5.85937,0.1015221373970809,0.0385038831611721,-0.0118575924051242,-1.65,36.15,34.5,385.74219,111.81641,997.07031,0.184658452854878,0.0095926786348112,-0.2707258742584744,47.25,13.5,92.25,-598.14453,68.35938,867.67578,0.3950306670464634,0.0174532925199432,0.0556906639043358,49.65,25.35,39.9
-877.44141,479.49219,-15.13672,0.0917962901403425,0.0103920394322246,0.105385947295146,-1.65,35.85,35.25,397.46094,92.28516,994.14062,0.2324885028740818,0.0077274452632048,-0.3449357032569465,44.85,14.85,94.2,-603.51562,47.85156,875.97656,0.4910904474835776,0.0464976656682313,0.0206509102425221,49.65,25.35,39.9
-905.76172,481.44531,-18.55469,0.0732771250462063,0.0237151848102485,0.0822036115055313,-1.8,37.2,33.3,401.36719,81.54297,973.63281,0.2532725817385311,-0.0551578148837019,-0.4090198300670483,46.5,14.25,93.6,-595.21484,35.64453,842.28516,0.446724352430807,0.0762082309920056,-0.0303767574992605,49.95,26.4,39.15
-918.94531,506.34766,-19.53125,-0.0226493122360556,0.032908183046353,0.0455651362488907,-1.8,37.2,33.3,387.20703,77.14844,939.45312,0.2680612800894547,-0.0443659205198454,-0.4318024854579563,47.1,15.6,93.75,-580.07812,43.94531,861.81641,0.5764915021787625,0.0526263893366094,-0.0423675185263119,48.15,28.2,39.45
-928.71094,528.80859,-27.34375,-0.0796723604913639,-0.0206509102425221,0.0747426780191059,-1.8,37.2,33.3,378.90625,103.51563,925.29297,0.2017120649761146,-0.0512940049856369,-0.4817641060926207,47.1,15.6,93.75,-602.05078,35.15625,827.14844,0.5633016999555911,0.1045865864977326,-0.0182526533173567,50.85,27.75,37.95
-911.62109,515.13672,-25.87891,-0.1121806886060851,-0.0099923590335179,0.0846018684306967,-1.8,36.0,33.9,387.20703,102.05078,892.08984,0.2150352103541385,-0.0279785005740951,-0.5025481849570701,47.1,15.6,93.75,-577.14844,37.59766,825.19531,0.5819540336716545,0.0798055291132911,-0.0462311538914518,48.75,26.55,37.95
-889.64844,485.35156,3.41797,-0.2446126070559856,-0.0203843984657425,0.0122572728038309,-0.75,35.25,33.9,403.32031,77.14844,891.11328,0.1700030976588069,0.0074609334864253,-0.5218667108486197,46.65,14.1,93.15,-582.51953,56.64063,833.98437,0.6309831248869784,-0.011191400229638,-0.0803383781339249,50.55,28.5,37.5
-866.69922,480.46875,10.74219,-0.2204977418470304,-0.049162259837251,0.1041869060990259,-1.35,36.15,33.75,405.76172,87.40234,896.97266,0.1409587245105188,-0.0209172474863764,-0.5529096605233664,46.8,14.25,92.85,-560.05859,83.00781,831.05469,0.5410520681182421,-0.0203843984657425,-0.0937948666668012,48.9,27.15,39.15
-860.35156,482.91016,21.48438,-0.2575358975023777,-0.0398360929792193,0.0583552580733556,-2.4,35.85,34.5,392.08984,112.79297,913.08594,0.1413584049092255,-0.0699463387017003,-0.4822971296461799,46.5,15.75,93.3,-552.24609,116.21094,838.86719,0.567165335320731,-0.0121241041819038,-0.1630750131930153,48.9,27.15,39.15
-846.19141,492.67578,30.27344,-0.2997702474067625,-0.0302434143444081,0.0001331686219271,-2.4,35.85,34.5,415.03906,146.48437,913.57422,0.0972588216332344,-0.1044532433428802,-0.5290613070911907,46.5,15.75,93.3,-556.15234,139.16016,819.33594,0.5126738871454404,0.0326416712695735,-0.1273690673557154,49.95,28.65,38.1
-855.95703,489.74609,26.36719,-0.3015023121564416,-0.0523598775598298,0.0599539796681824,-2.55,36.0,34.95,404.29687,173.82812,902.83203,0.1075176924435318,-0.1613431229762614,-0.523065926577665,46.8,15.45,93.6,-541.99219,143.06641,840.33203,0.4934885298758178,0.0531592383572432,-0.1648070779426945,49.95,28.65,38.1
-860.83984,486.32812,36.62109,-0.3105619672376938,-0.0635512777894679,0.0303767574992605,-2.1,36.15,34.8,414.0625,179.6875,893.55469,0.0995237354035474,-0.1374945950111605,-0.533724303253744,47.55,15.45,93.3,-545.41016,165.03906,835.9375,0.5201348206318657,0.0307764378979672,-0.1497518678149914,49.65,28.2,39.15
-857.91016,475.09766,41.50391,-0.3705161214388014,-0.0113245688515652,-0.0205175670876697,-2.55,36.45,34.65,412.10937,176.26953,904.29687,0.0873996312216436,-0.1108484787880378,-0.5267963933208777,46.65,15.15,94.2,-545.41016,164.0625,829.58984,0.4956202750242037,0.0038636353651398,-0.1624088210175291,50.55,28.05,38.55
-861.81641,477.53906,52.73438,-0.3202878144944322,-0.0339738810876208,-0.0219831200605693,-1.05,36.9,34.2,421.38672,177.24609,908.69141,0.105385947295146,-0.1586783542743164,-0.5198683088550862,47.55,15.45,92.25,-547.36328,168.45703,822.26562,0.5110749910176884,0.0083936374386911,-0.1425574461053456,50.55,28.05,38.55
-871.58203,479.49219,46.38672,-0.3197549654737983,-0.0648836621404404,0.070346019100407,-1.05,36.9,34.2,420.89844,173.82812,904.29687,0.0620857248165682,-0.225294081164436,-0.5486461702265947,47.4,15.6,93.75,-523.4375,163.57422,810.54687,0.5193354598344523,-0.0452986244721112,-0.1279019163763492,49.95,28.2,38.4
-883.78906,478.02734,48.33984,-0.3637212055949371,-0.004529827540626,-0.0350397536618137,-1.35,37.35,33.75,438.47656,166.99219,860.35156,0.0714118916745999,-0.225294081164436,-0.5258636893686119,47.1,15.15,93.15,-532.22656,172.36328,842.28516,0.5044134183286764,-0.0310429496747467,-0.17346705262524,49.95,27.45,38.7
-895.99609,454.58984,78.61328,-0.2856477412313251,-0.0582220894514284,0.015055210127703,-2.1,37.65,34.5,443.35937,146.48437,854.49219,0.0211837592631559,-0.1652067583414012,-0.5180030754834799,47.1,15.15,93.15,-521.97266,192.38281,832.03125,0.438863738545675,-0.0142556747973644,-0.1408253813556664,48.45,28.65,38.1
-909.17969,479.49219,78.61328,-0.2729907880287874,-0.1015221373970809,0.0374380105869791,-1.5,36.45,34.65,445.80078,153.32031,835.44922,-0.0174532925199432,-0.1366952342137471,-0.5094762694228616,47.25,14.7,93.3,-513.18359,187.5,846.19141,0.3449357032569465,-0.0650168307623675,-0.1779968801658661,49.8,27.75,38.25
-908.69141,463.86719,98.14453,-0.2925758256971166,-0.0818039311068246,-0.0054625314928918,-1.35,37.65,34.8,455.07812,157.71484,858.88672,0.0131899767560967,-0.0889985273493956,-0.4632449409984845,47.25,14.25,91.8,-509.76562,195.3125,847.65625,0.322419559642818,-0.0113245688515652,-0.1248376418086228,49.8,27.75,38.25
-895.50781,464.35547,97.65625,-0.3166906909060719,-0.0707458740320389,-0.0702128504784798,-1.35,37.65,34.8,461.91406,172.36328,853.02734,-0.0014655529728996,-0.0812710820861907,-0.4496554583766062,46.2,15.0,93.6,-514.64844,221.67969,871.58203,0.2836493392377916,-0.0303767574992605,-0.1733338840033128,49.65,28.65,38.1
-880.37109,445.3125,98.63281,-0.2191653574960579,-0.0909969293429291,-0.0165205885676775,-2.25,37.2,33.9,492.67578,204.10156,867.67578,0.0185191650941362,-0.0446324322966249,-0.3494655307975726,46.2,15.0,93.6,-510.74219,242.67578,869.14062,0.2715252350558878,0.0087933178373978,-0.141091893132446,49.65,28.65,38.1
-852.53906,463.86719,103.51563,-0.2314226302998889,-0.0854012292281101,-0.1211071750654101,-2.25,36.75,35.7,493.65234,217.28516,894.04297,-0.0486294108166172,-0.0846018684306967,-0.3125605437641525,47.55,15.0,92.85,-509.76562,259.76562,869.62891,0.2404824599140662,-0.0311761182966739,-0.1329647674705344,50.1,29.25,36.9
-850.09766,456.54297,103.02734,-0.2590014504752773,-0.0795390173365115,-0.1930520902935692,-1.65,37.35,35.55,501.95312,244.62891,893.06641,-0.0787396565390981,-0.0831363154577971,-0.2835159960829392,47.7,14.85,92.7,-519.04297,280.27344,881.34766,0.1728008604497538,-0.0207840788644492,-0.1851914764084371,49.8,28.8,38.55
-826.66016,434.08203,113.28125,-0.1906538333684037,-0.13776110678794,-0.1870567097800435,-1.65,37.35,35.55,497.07031,246.09375,915.03906,-0.067015232755901,-0.0936615235119489,-0.2785864881436065,47.7,14.85,92.7,-491.69922,253.41797,878.90625,0.1485528266188713,0.0054625314928918,-0.179062752740059,50.55,28.5,37.95
-850.09766,432.61719,117.67578,-0.2455451364753262,-0.0667488955120467,-0.200246512003215,-3.0,39.3,36.0,492.1875,238.76953,903.80859,-0.078606487917171,-0.0935283548900217,-0.200779535556774,46.65,14.4,93.45,-509.27734,247.07031,855.95703,0.1602772504020684,-0.0047963393174056,-0.1697365858820273,49.35,28.05,37.95
-866.21094,416.99219,104.98047,-0.2216967830431505,-0.0367718184114929,-0.2050428513206206,0.0,37.65,36.6,485.83984,223.63281,900.87891,-0.1096492630589925,-0.1416247421530798,-0.1874563901787501,46.5,16.2,93.3,-508.78906,217.77344,841.30859,0.1966493884148547,0.0254472495599277,-0.1586783542743164,50.25,27.45,37.35
-874.02344,423.82812,113.28125,-0.1549478875311037,-0.1692037368613934,-0.1818606900639311,-1.2,36.45,36.45,470.21484,195.80078,891.60156,-0.1079173728422385,-0.1633415249697949,-0.1573461444562691,48.15,15.6,92.4,-523.4375,210.9375,846.67969,0.1919862177193762,0.0383705400063197,-0.1545482071323971,48.75,29.25,37.5
-873.04687,410.15625,91.79688,-0.1953170040638822,-0.0682144484849463,-0.2719249154545945,-0.45,37.5,36.0,445.3125,173.33984,884.76562,-0.1217733672408963,-0.1520167815853045,-0.1485528266188713,48.15,15.6,92.4,-528.32031,195.3125,857.91016,0.2267596341373356,0.0218499514386422,-0.1793292645168386,48.75,29.25,37.5
-892.08984,384.27734,90.82031,-0.1736002212471671,-0.1103154552344788,-0.2697933448391338,-0.45,37.5,36.0,441.40625,150.39062,878.41797,-0.1225727280383097,-0.1115144964305989,-0.1075176924435318,47.25,14.25,92.85,-541.99219,180.17578,858.39844,0.2695268330623543,0.0171867807431637,-0.1338974714228001,49.2,28.2,37.35
-915.52734,376.46484,100.09766,-0.0794058487145844,-0.0631515973907612,-0.1901209843477699,-0.45,36.75,34.65,447.26562,116.69922,899.90234,-0.1325650870718277,-0.082603291904238,-0.1448223598756587,47.1,13.65,93.45,-556.15234,179.6875,847.65625,0.2434133913269403,0.0534257501340228,-0.1420244225517865,49.2,28.2,37.35
-903.80859,371.09375,93.75,-0.1261700261595952,-0.0691469779042869,-0.246477840427592,-1.8,37.95,36.45,452.63672,112.79297,919.43359,-0.1308330223221485,-0.06634921511334,-0.1317657262744143,46.2,16.2,92.85,-546.38672,162.10937,863.28125,0.2240948654353907,0.0734104682010586,-0.1228392398150893,49.35,28.8,36.9
-895.01953,369.62891,88.86719,-0.1063184767144865,-0.0679479367081668,-0.2432802227050131,-2.25,37.95,35.7,432.61719,116.21094,916.99219,-0.0406354537766327,-0.031309286918601,-0.1529494855375703,46.8,14.7,94.05,-564.45312,186.52344,860.83984,0.1697365858820273,0.0369049870334201,-0.164540566165915,50.7,28.65,36.6
-919.92187,366.21094,96.19141,-0.0298437339457014,-0.037970859607613,-0.1382939558085739,-1.65,36.15,35.55,425.78125,149.90234,909.66797,-0.0165205885676775,-0.0250473946282958,-0.1689372250846139,47.1,14.1,93.75,-565.42969,211.91406,827.14844,0.131099534098928,0.0037304667432126,-0.1473537854227512,49.95,27.15,36.3
-925.78125,370.60547,98.63281,-0.0105252080541518,-0.0913966097416358,-0.118842261295097,-1.65,36.15,35.55,413.57422,179.19922,899.41406,-0.0246477142295891,-0.0560903443030425,-0.0935283548900217,46.35,15.6,92.7,-560.05859,237.79297,835.44922,0.0901975685455157,-0.0202512298438154,-0.1092495826602858,49.95,27.45,36.6
-915.03906,375.97656,97.65625,-0.0929953313364626,0.0389035635598788,-0.0959264372822619,0.0,36.15,35.55,430.66406,214.84375,900.39062,-0.0819372742616769,-0.0779402957416847,-0.0219831200605693,46.35,15.6,92.7,-568.35937,257.8125,815.42969,0.0600873228230347,-0.0873996312216436,-0.0712787230526728,50.55,27.0,37.5
-934.08203,363.28125,92.28516,-0.0141225061754373,-0.0535589187559499,-0.1101822866125516,0.3,35.85,37.65,456.54297,224.60937,892.08984,-0.1085833904847996,0.0013323843509724,0.0057288687367461,46.8,14.25,92.55,-547.36328,271.48437,829.10156,0.0438330714992115,-0.0342403928644003,-0.0919296332951949,51.45,27.15,37.65
-920.41016,385.74219,102.05078,-0.0229158240128351,-0.0125237845806105,-0.0235820161883213,-0.15,36.0,37.05,454.10156,211.91406,915.52734,-0.1272358987337882,-0.0397029243572922,0.060753514998521,48.0,13.95,93.6,-560.54687,275.39062,814.94141,-0.0046631706954784,-0.0263797789792682,-0.0819372742616769,51.45,27.15,37.65
-931.64062,361.32812,84.96094,-0.0592879620256213,0.0762082309920056,-0.0391699008037331,0.0,37.65,35.85,439.94141,214.35547,900.87891,-0.1092495826602858,-0.058088746296576,0.0618192130397887,46.2,14.25,93.3,-531.25,250.48828,777.83203,-0.0698131700797731,0.0209172474863764,-0.0532925815120956,51.45,27.15,37.65
-929.6875,370.11719,97.65625,-0.006128723668378,0.0555574952824086,-0.0452986244721112,0.0,37.65,35.85,404.78516,198.73047,871.09375,-0.1045865864977326,-0.0310429496747467,0.1012558001532266,46.2,14.25,93.3,-553.71094,222.65625,819.33594,-0.0945942274642146,0.0291777163031404,-0.0855343978500373,50.1,27.75,37.2
-943.84766,366.69922,73.24219,-0.0169204434993094,0.0411684773301918,-0.0023980823922402,-0.6,37.65,35.55,404.29687,181.64062,873.04687,-0.1168438593015635,-0.0054625314928918,0.1540153581117632,46.2,14.25,91.8,-546.875,209.96094,811.03516,-0.1309663654770009,0.0414349891069713,-0.0071944217096458,50.1,27.75,37.2
-964.84375,378.90625,71.28906,-0.0365053066347134,0.0532925815120956,-0.0831363154577971,0.45,36.0,35.7,395.01953,176.26953,901.36719,-0.094860564708069,-0.0249142260063686,0.1608100994227023,46.5,14.7,92.25,-579.10156,189.94141,806.15234,-0.1318988948963414,0.0155880591483369,-0.0747426780191059,51.75,27.45,37.35
-975.58594,376.46484,56.15234,-0.0181194846954295,0.0351730968166661,-0.0471638578437175,0.0,35.85,35.85,425.78125,172.36328,917.48047,-0.0788728251610253,-0.0382373713843925,0.1965160452600023,46.5,14.7,92.25,-595.21484,188.47656,811.52344,-0.1441561677001724,0.0074609334864253,-0.122173047639603,50.55,27.0,37.5
-979.00391,386.71875,34.17969,-0.0043966589186989,0.0595542992694757,-0.0409019655534123,-0.45,37.2,35.7,403.32031,140.625,929.19922,-0.0947273960861418,0.0302434143444081,0.1362955538150403,46.5,14.7,92.25,-594.23828,171.38672,799.80469,-0.1113813278086717,0.0246477142295891,-0.0812710820861907,49.95,26.7,37.05
-983.88672,372.55859,41.01563,-0.0289112045263608,0.0710122112758932,-0.086467101802303,-0.45,37.2,35.7,389.64844,130.37109,937.98828,-0.0598208110462552,0.0233155044115418,0.1670719917130076,46.35,14.1,94.5,-622.55859,163.08594,799.80469,-0.0997902471803269,0.0038636353651398,-0.0735436368229858,51.0,28.2,37.65
-971.67969,369.62891,31.73828,-0.0018652333716063,-0.022382800459276,-0.0692803210591393,-0.45,37.2,35.7,400.87891,115.23438,936.52344,-0.059154618870769,0.0474303696204971,0.1349631694640679,45.75,13.95,94.35,-616.69922,137.69531,789.55078,-0.0992572236267679,0.0246477142295891,-0.0175864611418704,50.85,27.75,38.25
