IMU1_AccX,IMU1_AccY,IMU1_AccZ,IMU1_GyrX,IMU1_GyrY,IMU1_GyrZ,IMU1_MagX,IMU1_MagY,IMU1_MagZ,IMU2_AccX,IMU2_AccY,IMU2_AccZ,IMU2_GyrX,IMU2_GyrY,IMU2_GyrZ,IMU2_MagX,IMU2_MagY,IMU2_MagZ,IMU3_AccX,IMU3_AccY,IMU3_AccZ,IMU3_GyrX,IMU3_GyrY,IMU3_GyrZ,IMU3_MagX,IMU3_MagY,IMU3_MagZ
-985.35156,397.94922,52.73438,-0.015055210127703,0.0277121633302407,0.10205516095064,2.25,32.7,37.5,279.78516,67.87109,982.42187,-0.0634181091675407,0.0604870032217414,0.2462113286508125,49.2,13.35,93.45,-704.10156,104.98047,784.17969,-0.2717917468326674,-0.0035972981212855,-0.018385996472209,51.6,27.0,35.4
-976.5625,395.01953,59.57031,-0.089797888146809,0.0656830229378538,0.0900643999235885,2.25,32.7,37.5,271.97266,61.52344,1003.90625,-0.063684446411395,0.0623522365933478,0.2111715749889987,49.05,13.2,93.6,-709.96094,108.88672,772.46094,-0.2466110090495192,0.0198513749121835,0.0282450123508746,51.45,24.9,36.0
-970.70312,380.85937,64.45313,-0.1117810082073784,0.0838025076332833,0.0321086477160144,1.65,32.1,37.35,281.25,60.54688,1003.41797,-0.0586217698501351,-0.0053291883380394,0.2291577165295759,49.5,12.9,92.7,-691.89453,101.07422,771.48437,-0.3188224360544577,-0.0337075438437664,-0.0210505906412288,51.75,25.35,36.3
-982.42187,386.71875,63.96484,-0.1304333419234418,0.0321086477160144,0.0118575924051242,2.25,34.2,37.05,297.85156,55.66406,1002.92969,-0.0643506385868813,-0.0339738810876208,0.2238285281915364,49.5,12.9,92.7,-677.24609,107.91016,782.22656,-0.3133599045615659,-0.0672817445326806,0.0019984019935335,51.45,24.9,36.0
-980.46875,377.92969,67.87109,-0.1997136629825811,0.1000565844241813,-0.0784731447623186,1.8,31.65,37.05,290.52734,59.08203,982.42187,-0.0563568560798221,-0.0137228257767306,0.1826600508613445,50.1,15.0,93.6,-675.78125,112.79297,786.13281,-0.2937748668932367,-0.0510274932088574,-0.0478300500192038,50.55,25.8,36.15
-1006.34766,380.37109,61.03516,-0.2155680593747724,-0.0034639549664331,-0.1227058966602369,1.35,31.8,37.65,322.26562,57.12891,979.49219,-0.0171867807431637,-0.0102588708102974,0.2399494363605072,51.0,13.65,91.95,-642.57812,111.32813,803.71094,-0.2875129746029314,-0.0317089673173077,0.0187856768709157,50.85,25.8,36.45
-995.11719,362.30469,61.52344,-0.2251607380095836,-0.075275701572665,-0.0738101485997654,1.35,31.8,37.65,332.03125,47.36328,965.33203,0.002264913770313,-0.0159877395470436,0.211437912232853,49.05,13.2,93.6,-642.08984,117.67578,780.27344,-0.227558994934749,-0.0567565364785288,0.0246477142295891,50.85,25.8,36.45
-1010.74219,343.75,67.87109,-0.3028345219744889,-0.0933951862680945,-0.0688804661275074,3.45,33.3,36.3,326.66016,63.47656,944.33594,0.0090596550812521,0.0430337107017981,0.1771975193684527,49.05,13.2,93.6,-621.09375,120.60547,763.18359,-0.2376845225901941,-0.0229158240128351,0.0999234158022541,51.75,26.4,36.3
-1006.83594,338.37891,64.94141,-0.3186890928996054,-0.1111148160318922,-0.093128674491315,2.55,32.7,37.5,350.09766,86.91406,943.84766,-0.0057288687367461,-0.0001331686219271,0.2017120649761146,49.5,12.9,91.95,-592.28516,112.30469,774.41406,-0.2880459981564905,-0.0341072242424731,0.0345069046411798,50.85,26.55,36.15
-1013.18359,316.89453,89.84375,-0.2793858489410198,-0.1546815502872494,-0.0960597804371143,1.8,32.4,37.8,347.65625,96.67969,916.50391,0.0205175670876697,-0.0499617951675896,0.2276921635566762,48.15,13.35,93.15,-610.35156,142.57812,780.76172,-0.2991042297642014,-0.0271791397766816,0.0800720408900706,52.05,26.7,35.55
-985.35156,318.35937,99.60938,-0.3057656279202881,-0.0993905667816202,-0.1458882324498516,3.0,33.75,37.5,354.98047,91.30859,896.48437,-0.0309096065198943,0.0787396565390981,0.2346202480224677,49.8,13.95,92.25,-590.82031,104.98047,769.04297,-0.3489326817769387,-0.0370383301882724,0.0170536121212365,51.75,27.15,36.3
-967.28516,298.82812,111.81641,-0.2495421149953184,-0.1193751103157309,-0.209706022016099,3.0,33.75,37.5,356.93359,57.61719,920.89844,-0.0011990411961201,0.0827366350590903,0.2760550625965139,49.8,13.95,92.25,-609.375,76.17188,794.92187,-0.278852999920386,0.0219831200605693,0.0125237845806105,51.9,26.55,36.9
-954.58984,282.71484,121.09375,-0.1717349878755608,-0.1083170532409452,-0.0960597804371143,1.65,32.55,37.95,333.00781,36.13281,918.45703,0.0123904414257581,0.0866002704242302,0.2755222135758801,50.25,12.9,93.15,-604.00391,81.54297,758.78906,-0.3094960946635008,0.0079939570399844,0.036238969390859,51.15,25.8,37.2
-953.125,275.39062,129.88281,-0.2021117453748213,-0.1200413024912172,-0.1065849884912661,3.45,32.55,36.6,333.98437,41.50391,912.59766,0.0075941021083525,0.0885988469506889,0.2057090434961068,49.5,13.35,93.45,-622.55859,62.01172,794.43359,-0.2903109119268036,-0.0519601971611231,0.0498284520127373,51.15,25.8,37.2
-934.08203,240.72266,127.44141,-0.1775971997671594,-0.0341072242424731,-0.0536922619108023,3.45,33.3,37.95,329.58984,40.52734,942.38281,0.0114579120064175,0.0762082309920056,0.2616662191772222,49.5,13.35,93.45,-615.23437,81.05469,824.21875,-0.2362189696172945,-0.0147886983509235,0.1044532433428802,50.85,26.55,36.9
-951.17187,236.32812,128.90625,-0.0293108849250675,0.002264913770313,0.0385038831611721,3.75,32.85,39.45,345.21484,50.29297,955.56641,-0.0157212277702641,0.1200413024912172,0.2057090434961068,48.6,15.0,93.3,-608.39844,68.84766,814.94141,-0.2574027288804505,-0.074209828998472,0.0532925815120956,50.85,26.55,36.9
-952.14844,232.42187,126.46484,-0.0018652333716063,-0.0021317451483858,0.0751423584178126,3.75,32.85,39.45,348.63281,57.61719,958.49609,0.0147886983509235,0.0700796818565527,0.1797289449155452,50.1,13.2,93.6,-622.55859,92.77344,838.86719,-0.2145023613335047,-0.0254472495599277,0.0740764858436197,50.85,26.55,36.9
-937.5,236.81641,124.51172,0.0758085505932989,0.0563568560798221,0.1152449631738115,2.1,32.55,37.35,358.88672,71.77734,956.54297,0.0115910806283447,0.0715452348294523,0.174000076178799,49.5,14.1,94.2,-607.91016,78.61328,834.47266,-0.2383507147656804,-0.041834669505678,0.0748760211739583,52.35,25.5,38.55
-961.91406,222.16797,129.88281,0.2017120649761146,0.0654165111610742,0.2439464148804994,1.65,32.85,36.6,395.99609,62.5,978.51562,-0.0059953805135257,0.016787100344457,0.1863905176045572,49.5,14.1,94.2,-584.96094,72.26563,903.80859,-0.1882557509761635,-0.0543582795533633,0.055823832526263,52.5,25.65,36.3
-1047.36328,265.13672,137.69531,0.3017688239332212,0.1155114749505911,0.2964394610622565,2.4,32.85,39.0,402.34375,51.26953,985.35156,0.0131899767560967,0.0177198042967228,0.1954501726858094,49.8,14.25,93.3,-570.3125,75.68359,878.41797,-0.1957166844625889,0.0235820161883213,0.0127901218244648,51.6,25.8,37.95
-1081.05469,252.44141,163.08594,0.2648636623668758,0.0626187483701273,0.3986277906348237,3.0,33.75,38.55,425.78125,74.70703,978.51562,0.040235773377926,0.0109248884528585,0.20917299846254,48.45,13.35,93.15,-572.26562,76.17188,884.76562,-0.1847917960097304,-0.0377045223637587,-0.0030642745677264,51.15,25.8,36.15
-945.3125,237.30469,163.08594,0.3677181841149293,-0.0139893375535101,0.4032909613303021,3.0,33.75,38.55,427.24609,73.73047,973.14453,0.006128723668378,0.0227824808579827,0.228624867508942,48.9,14.4,93.75,-560.05859,82.03125,894.04297,-0.1586783542743164,-0.0250473946282958,0.0572893854991626,51.6,25.8,36.45
-827.14844,235.35156,156.25,0.4516538603701397,-0.0603538345998143,0.4307366128837634,3.0,33.75,38.55,452.14844,71.77734,964.84375,0.0343737360192527,0.0578224090527217,0.2050428513206206,50.1,13.95,94.05,-550.29297,76.17188,840.82031,-0.0972588216332344,-0.0023980823922402,0.0051960197161123,50.55,27.0,37.95
-829.58984,313.47656,177.73437,0.4974855083958101,0.0302434143444081,0.4239418715728242,1.05,34.35,37.65,436.03516,57.61719,948.73047,0.0556906639043358,0.0178529729186499,0.2179663162999378,49.5,14.4,94.2,-530.76172,60.54688,869.62891,-0.0989908863829135,0.0039969785199922,0.0142556747973644,50.55,27.0,37.95
-861.81641,374.02344,182.12891,0.5419845975375827,-0.0010658725741929,0.5461149192124273,2.55,33.0,37.8,430.66406,50.78125,945.3125,0.0720780838500862,-0.0042633157638465,0.1682710329091277,49.5,15.15,92.7,-540.52734,59.08203,876.95312,-0.0233155044115418,0.059154618870769,-0.0123904414257581,49.95,26.1,35.25
-895.50781,408.20312,171.875,0.5327917738344035,0.0241148652089552,0.5477136408072542,2.4,33.6,37.35,428.71094,38.57422,942.38281,0.0830031468358699,0.0448989440734045,0.0985910314512816,49.5,15.15,92.7,-539.55078,50.29297,880.37109,-0.0506278128101507,0.0568897051004559,0.0141225061754373,49.95,26.1,35.25
-901.85547,430.66406,162.10937,0.4512541799714331,0.0029311059457992,0.5361225601789094,3.45,32.55,37.65,433.59375,21.48438,955.07812,0.1032542021467601,0.0900643999235885,0.1197749652473628,50.1,13.95,91.8,-537.10937,60.05859,895.01953,-0.0107917198309313,0.0724777642487929,-0.0730107878023519,52.35,24.75,37.2
-880.85937,407.22656,169.43359,0.4359326325998757,-0.1911868569219628,0.500283271186757,3.45,32.55,37.65,395.01953,42.96875,952.63672,0.1272358987337882,0.0231821612566894,0.1148452827751048,49.35,13.95,93.3,-568.35937,31.25,818.84766,-0.0371714988101996,-0.0349065850398865,-0.0459648166475974,50.55,27.0,36.45
-851.07422,412.59766,154.29687,0.4280720187147436,-0.1708024584562202,0.3798422882968331,1.8,33.0,37.5,404.78516,33.20313,922.85156,0.1401591891801802,0.0081271256619115,0.0988575432280612,48.15,13.35,93.45,-546.38672,47.85156,876.95312,-0.0010658725741929,-0.0181194846954295,0.006128723668378,50.25,26.4,36.0
-866.69922,417.96875,127.92969,0.3393400031421275,-0.1794624331387657,0.3114946711899595,2.7,34.05,37.65,380.85937,18.55469,904.78516,0.1059187963157798,-0.0350397536618137,0.1332312792473139,48.15,13.35,93.45,-557.12891,78.125,847.16797,-0.079272505559732,-0.0143890179522168,-0.0054625314928918,51.15,25.5,36.45
-887.20703,428.22266,133.30078,0.353595677939492,-0.2486095855759778,0.2371516735695603,1.2,32.7,37.05,380.37109,29.78516,894.04297,0.1260366830047429,-0.0550244717288496,0.1354961930176269,49.2,14.4,93.45,-563.47656,87.40234,821.28906,-0.1624088210175291,-0.0317089673173077,0.0199847180670358,50.7,25.35,36.6
-898.92578,449.70703,137.69531,0.2949739080893568,-0.2651301741436554,0.0947273960861418,1.65,34.35,37.95,397.46094,35.64453,886.23047,0.0929953313364626,0.0203843984657425,0.1528161423827179,49.8,14.25,93.6,-573.73047,103.51563,827.63672,-0.1597442268485094,0.0218499514386422,0.0676814249313873,52.05,26.1,38.1
-944.82422,500.97656,130.37109,0.1714686506317065,-0.240882140312773,-0.0241148652089552,1.65,34.35,37.95,400.87891,55.66406,904.78516,0.0724777642487929,0.0267794593779749,0.1998468316045083,49.8,13.95,93.3,-574.70703,94.72656,836.42578,-0.1933186020703487,0.0191853572696224,0.0389035635598788,52.05,26.1,38.1
-925.78125,535.64453,140.13672,0.1148452827751048,-0.3098959495951328,-0.0655498543159266,1.35,32.1,36.6,400.87891,33.20313,919.43359,0.0366386497895657,0.0305099261211876,0.200246512003215,48.6,13.5,92.25,-590.33203,93.75,834.96094,-0.1626753327943086,-0.0102588708102974,0.0560903443030425,51.45,26.1,37.05
-888.67187,549.31641,151.85547,-0.0592879620256213,-0.3497320425743521,-0.1397595087814735,2.4,32.1,38.4,401.85547,17.08984,890.13672,0.0539585991546566,0.0173201238980161,0.1755987977736259,51.3,14.1,92.4,-576.17187,107.42188,815.42969,-0.1243047927879889,0.0263797789792682,0.1457548892949992,51.45,26.1,37.05
-848.14453,566.40625,157.22656,-0.2411484775566273,-0.2949739080893568,-0.2362189696172945,2.1,32.1,37.35,375.0,27.83203,919.92187,0.0754088701945922,-0.0075941021083525,0.1422909343285661,48.9,13.65,91.65,-568.35937,98.63281,804.19922,-0.1318988948963414,0.0131899767560967,0.1128468807815713,52.05,26.4,37.35
-842.77344,556.15234,168.45703,-0.3499983798182065,-0.3851714766348726,-0.2887120157990516,1.05,32.55,37.35,372.55859,34.66797,898.4375,0.0941945470655079,-0.0011990411961201,0.1441561677001724,48.9,13.65,91.65,-575.68359,107.42188,856.44531,-0.148952507017578,-0.0121241041819038,0.1783965605645728,51.15,25.05,37.2
-877.92969,510.74219,178.22266,-0.5126738871454404,-0.4383307149921159,-0.3722481861884806,1.05,32.55,37.35,358.39844,65.42969,898.92578,0.1494855305711371,-0.0171867807431637,0.0967257980796753,48.45,14.4,93.45,-576.66016,83.49609,808.59375,-0.1481531462201646,-0.0077274452632048,0.1139127533557643,51.6,24.3,37.5
-910.64453,504.39453,160.64453,-0.7147856325202617,-0.4725712823894414,-0.5314593894834309,3.75,32.85,37.65,381.34766,86.91406,914.55078,0.1125803690047918,0.0266462907560478,0.1079173728422385,49.2,13.65,93.15,-583.49609,92.28516,838.37891,-0.098724374606134,0.0063950609122324,0.1325650870718277,50.1,26.25,36.9
-948.73047,460.44922,166.01562,-0.8029846245393187,-0.5618361469826915,-0.5258636893686119,3.0,33.0,36.75,380.37109,102.05078,946.77734,0.1179097318757565,0.0782068075184643,0.1337641282679478,49.5,13.35,93.15,-590.82031,86.42578,857.42187,-0.1137794102009119,0.0206509102425221,0.1277687477544221,51.9,25.8,36.9
-965.33203,421.875,166.99219,-0.8380245527340577,-0.6208575972315332,-0.6646906687307449,2.25,33.75,37.8,371.09375,91.30859,994.14062,0.0891316959713228,0.0419678381276052,0.1123138572280122,49.5,13.35,93.15,-585.44922,38.08594,819.82422,-0.1228392398150893,-0.0237151848102485,0.1374945950111605,51.75,25.35,36.3
-941.89453,387.69531,157.22656,-0.9203615073944414,-0.6275191699205452,-0.6601608411901188,3.45,32.85,39.0,372.07031,80.07813,991.69922,0.0854012292281101,-0.0193185258915496,0.148952507017578,49.5,14.1,93.75,-587.40234,41.99219,846.19141,-0.022382800459276,0.0334410320669869,0.1436233186795386,51.75,25.35,36.3
-908.69141,353.02734,173.33984,-0.911834526800898,-0.5406523877195355,-0.7682113826542846,3.45,32.85,39.0,364.25781,83.00781,970.70312,0.0683476171068735,-0.1033873707686873,0.0963261176809686,49.2,14.1,92.7,-593.26172,23.4375,845.21484,-0.0531592383572432,-0.0261132672024887,0.0682144484849463,51.75,25.35,36.3
-934.57031,363.76953,190.42969,-0.8566768864501211,-0.4964196358216172,-0.7670121669252392,4.2,32.85,39.45,383.78906,61.03516,943.35937,0.0271791397766816,-0.125503833984109,0.0835359958565038,49.8,14.7,94.35,-577.63672,19.53125,857.91016,0.0109248884528585,-0.050228132411444,0.094860564708069,49.8,24.0,37.5
-949.21875,355.95703,188.47656,-0.9010428069699666,-0.5285282835376317,-0.8051163696877046,3.3,33.75,40.2,381.83594,49.80469,931.15234,0.0419678381276052,-0.0863337586474507,0.0612863640191548,49.8,14.7,94.35,-577.14844,13.18359,853.02734,0.027312482931534,0.0611531953972277,0.034640073263107,50.85,27.0,37.95
-931.15234,329.58984,180.66406,-0.9593982395762474,-0.540918899496315,-0.6729509630145837,3.75,32.55,40.5,383.30078,36.13281,941.89453,0.1075176924435318,-0.0369049870334201,0.0019984019935335,49.35,12.75,93.3,-566.89453,27.83203,842.28516,0.0798055291132911,0.0464976656682313,-0.0058622118915985,50.7,26.4,36.6
-924.31641,282.22656,201.17187,-0.863871308159767,-0.6713522414197568,-0.632448677859878,5.25,32.55,41.1,379.39453,47.85156,941.89453,0.1216401986189692,-0.0667488955120467,-0.0337075438437664,49.5,14.85,93.15,-583.00781,38.57422,813.96484,0.1259035143828157,0.0407687969314851,-0.0225161436141284,51.45,26.4,36.6
-939.45312,254.88281,213.86719,-0.8895850694964742,-0.5150719695376805,-0.6512343547307938,5.25,32.55,41.1,370.11719,86.91406,941.40625,0.1192419416938038,-0.0548913031069224,-0.0603538345998143,49.35,13.95,94.35,-568.35937,58.59375,835.9375,0.1448223598756587,0.0265129476011954,-0.015055210127703,50.85,25.8,37.2
-944.82422,221.19141,228.51562,-0.7889954615187339,-0.4821637864913274,-0.6400429545011558,4.5,32.85,42.15,391.60156,103.51563,942.38281,0.1172435397002702,-0.0095926786348112,-0.0694134896810664,49.35,13.95,94.35,-555.66406,79.58984,819.33594,0.1634746935917221,0.0158545709251164,0.014522186574144,50.7,27.45,36.0
-926.26953,187.5,213.86719,-0.6441731016430752,-0.4385972267688954,-0.4592481370114175,4.65,33.0,42.3,371.09375,122.07031,927.73437,0.1193751103157309,-0.0504946441882235,-0.041301645952119,50.1,14.25,93.3,-577.14844,104.00391,787.10937,0.1649402465646217,0.0818039311068246,-0.0511608363637097,50.7,27.45,36.0
-949.21875,180.17578,217.28516,-0.6349801034069706,-0.2752557017991005,-0.3938316258503432,4.95,33.3,41.55,356.44531,127.92969,922.36328,0.1148452827751048,-0.0185191650941362,-0.1096492630589925,48.0,14.7,93.6,-595.70312,122.07031,815.42969,0.1865236862264844,0.0105252080541518,-0.0129234649793172,51.9,26.55,35.1
-992.67578,156.73828,213.86719,-0.4697733450655693,-0.1248376418086228,-0.2807182332919923,4.95,33.3,41.55,337.40234,114.74609,921.38672,0.073676805444913,-0.0118575924051242,-0.1015221373970809,48.6,13.5,92.85,-604.98047,133.78906,785.15625,0.0924624823158288,0.0568897051004559,-0.014522186574144,51.9,26.55,35.1
-963.86719,135.74219,227.05078,-0.3060321396970677,-0.1574793130781963,-0.1849249646316576,6.15,32.4,41.7,335.44922,132.8125,911.13281,0.0771409349442713,0.0115910806283447,-0.1112481591867445,48.45,14.4,92.7,-612.30469,139.64844,809.57031,0.1272358987337882,0.064750318985588,-0.05475795995207,51.45,26.7,36.6
-929.19922,85.9375,236.81641,-0.2039769787464277,-0.0554241521275563,-0.0674150876875329,5.7,32.7,42.3,343.26172,105.46875,926.26953,0.0839356762552105,0.0568897051004559,-0.0444992636746978,49.35,14.7,93.3,-621.58203,145.50781,798.82812,0.1059187963157798,0.041834669505678,-0.0315757986953806,51.0,26.7,36.3
-945.80078,96.19141,231.93359,-0.0113245688515652,0.0763415741468579,0.0335742006889141,5.25,32.85,42.9,347.65625,111.32813,956.54297,0.0672817445326806,0.0421010067495324,-0.0840688448771376,48.15,14.4,93.15,-623.53516,142.57812,786.13281,0.15561407970659,0.1120475199841579,-0.0222496318373489,49.8,26.25,36.45
-940.91797,144.53125,216.30859,0.1521501247401568,0.1360290420382608,0.1345634890653612,5.4,31.95,42.3,342.28516,112.30469,961.42578,0.0807380585326316,-0.0159877395470436,-0.0872664625997164,48.15,14.4,93.15,-639.64844,160.64453,784.17969,0.1637412053685016,0.0836691644784309,0.014522186574144,50.1,28.5,36.9
-965.33203,184.57031,206.05469,0.3057656279202881,0.2741898292249076,0.2617993877991494,5.4,31.95,42.3,344.72656,105.95703,952.63672,0.0796723604913639,-0.0247810573844414,-0.0907304175661496,48.15,15.9,92.7,-640.625,135.74219,782.71484,0.1133797298022052,-0.0019984019935335,0.061419532641082,50.85,26.55,36.45
-960.44922,249.02344,183.59375,0.3678515272697816,0.4150153851134992,0.2997702474067625,5.7,33.0,42.0,323.24219,137.20703,946.77734,0.0945942274642146,-0.0238483534321757,-0.1103154552344788,49.2,15.9,93.45,-642.08984,178.22266,787.10937,0.1358958734163337,0.0354394340605204,0.116577347524784,51.75,27.45,36.6
-984.86328,277.83203,201.66016,0.4573829036398111,0.4465911838088798,0.4328683580321492,5.7,33.45,41.7,309.57031,132.32422,924.31641,0.0444992636746978,-0.0470306892217904,-0.0575558972759422,48.3,13.5,92.55,-631.83594,182.12891,771.48437,0.0831363154577971,0.051827028539196,0.0423675185263119,51.75,27.45,36.6
-972.65625,299.31641,190.42969,0.4481899054037067,0.4352664404243894,0.5298606678886041,6.15,33.75,42.3,328.125,140.625,923.33984,0.0783399761403914,-0.0584886012282079,-0.0389035635598788,48.3,13.5,92.55,-632.32422,171.875,779.78516,0.0815375938629702,0.0165205885676775,0.0716784034513795,49.2,26.7,37.05
-929.6875,291.50391,183.59375,0.4300704207082771,0.3433368071291945,0.4729709627881482,5.7,33.75,43.05,329.58984,141.60156,943.84766,0.0694134896810664,-0.0005328490206338,-0.0225161436141284,49.2,15.15,94.5,-625.97656,150.87891,746.58203,0.0287778613715085,0.0492956029921034,0.0566231933236764,49.2,26.7,37.05
-931.15234,320.3125,167.96875,0.4796325354771601,0.4515206917482126,0.4897580631326052,5.7,33.75,43.05,325.68359,115.23438,943.35937,0.0103920394322246,0.0149218669728507,-0.0476967068643514,49.35,14.25,92.25,-625.0,132.32422,763.18359,0.0655498543159266,0.0698131700797731,0.0310429496747467,51.0,27.9,37.05
-958.98437,367.1875,172.85156,0.4537856055185257,0.4571163918630317,0.4728376196332958,5.7,33.75,43.05,311.52344,104.49219,945.80078,0.0500949637895168,0.0177198042967228,-0.0249142260063686,49.35,14.25,92.25,-625.0,125.0,779.78516,0.069680001457846,0.0247810573844414,0.0876661429984231,50.85,26.25,36.45
-937.98828,390.13672,144.04297,0.3866370296077722,0.3907671767496916,0.3432036385072674,4.5,32.85,40.5,298.33984,100.58594,958.98437,0.0293108849250675,0.0275788201753884,-0.0185191650941362,48.3,15.0,92.25,-645.99609,102.53906,759.27734,0.0495619402359577,0.0202512298438154,0.0490290912153239,51.15,26.55,36.15
-911.62109,449.21875,131.83594,0.3542618701149782,0.29337518649453,0.3412052365137338,5.4,33.45,40.95,281.73828,99.12109,972.16797,0.0177198042967228,0.0810045703094112,-0.0215834396618626,49.5,15.6,93.75,-666.50391,88.37891,793.94531,0.0961929490590414,0.0639509581881746,0.0730107878023519,49.95,26.7,37.65
-924.31641,473.14453,143.06641,0.2920428021435576,0.3182894125008987,0.3254840087434697,3.0,33.0,41.7,272.94922,82.51953,986.32812,-0.0187856768709157,0.0138559943986577,-0.0929953313364626,49.5,15.15,93.45,-681.64062,75.68359,761.71875,0.0655498543159266,0.0945942274642146,0.0466310088230837,49.95,26.7,37.65
-962.40234,485.83984,131.83594,0.104320074720953,0.3264165381628103,0.1789295841181318,4.35,34.2,39.9,290.03906,107.42188,996.58203,-0.0123904414257581,0.0803383781339249,-0.1424242774834185,49.5,15.15,93.45,-682.61719,49.31641,783.20312,0.0924624823158288,0.0687472975055802,0.0097258472567384,50.7,27.45,36.3
-957.51953,478.02734,121.58203,0.1245711300318432,0.2262266105837766,0.2592679622520568,4.35,34.2,39.9,310.54687,82.03125,985.83984,-0.0069280844657914,0.089797888146809,-0.1272358987337882,50.85,15.45,92.25,-666.99219,52.73438,824.70703,0.13776110678794,0.0692803210591393,-0.0351730968166661,50.85,25.5,37.5
-921.38672,444.82422,133.30078,0.0025314255470925,0.1457548892949992,0.1653399269633284,3.75,33.3,39.75,313.96484,100.58594,966.30859,-0.0033307863445059,0.055823832526263,-0.1693369054833206,48.0,13.5,91.2,-660.64453,56.15234,750.48828,0.1055191159170731,0.0199847180670358,-0.0185191650941362,50.85,25.5,37.5
-877.44141,400.87891,141.11328,-0.0904640803222952,0.1866570293813367,0.054091942309509,3.75,32.1,40.5,341.79687,106.93359,956.54297,0.0367718184114929,0.0619525561946411,-0.1685375446859072,49.8,13.95,93.6,-629.39453,75.19531,808.10547,0.240882140312773,0.0202512298438154,-0.0355727772153728,51.15,26.25,37.2
-902.83203,378.41797,138.67187,-0.0105252080541518,0.1342971518215068,0.0065284040670847,3.75,32.55,40.5,350.09766,98.63281,941.89453,-0.0075941021083525,0.0143890179522168,-0.1453552088962925,49.35,15.75,94.35,-631.83594,81.05469,786.13281,0.2194318692728375,0.0425006871482391,-0.098724374606134,51.75,26.7,37.35
-959.96094,380.85937,169.92187,-0.0141225061754373,0.114312433754471,0.0086599746825454,4.5,33.6,40.8,327.63672,100.58594,927.24609,0.0009327039522657,-0.0059953805135257,-0.1817273469090787,51.0,14.4,93.15,-612.79297,67.87109,798.33984,0.2460781600288853,0.0238483534321757,-0.0804717212887773,51.45,26.4,36.6
-939.94141,360.35156,165.52734,-0.0758085505932989,0.0510274932088574,-0.1093829258151382,4.5,33.6,40.8,331.05469,84.47266,942.87109,0.0126569532025376,0.0187856768709157,-0.1915865373206695,49.5,14.4,92.4,-620.60547,73.73047,837.89062,0.3204211576492846,0.0331745202902074,-0.0444992636746978,50.85,25.5,36.9
-928.22266,374.02344,160.15625,-0.0178529729186499,0.1080505414641657,-0.1304333419234418,1.8,34.5,39.9,322.75391,68.84766,964.84375,0.0211837592631559,0.0440995832759911,-0.2098391906380262,49.5,14.4,92.4,-625.0,43.94531,797.85156,0.2871132942042247,0.0476967068643514,-0.1326982556937548,52.05,26.7,37.05
-953.125,370.60547,153.32031,-0.0051960197161123,0.058088746296576,-0.0891316959713228,3.45,34.8,40.05,323.24219,52.24609,978.51562,0.0410353087082646,-0.0103920394322246,-0.2684609604881613,49.05,15.0,93.3,-628.41797,52.73438,818.35937,0.3350765128453558,0.0039969785199922,-0.0720780838500862,50.7,25.65,37.35
-935.54687,358.88672,150.87891,-0.0688804661275074,0.0317089673173077,-0.1253706653621819,2.4,33.3,40.05,305.17578,34.66797,975.58594,0.0130566336012443,-0.1187090926731699,-0.332411918676336,49.5,15.15,93.15,-620.11719,73.24219,839.35547,0.3810413294929532,0.0350397536618137,-0.0884655037958365,50.7,25.65,37.35
-912.59766,333.00781,144.04297,-0.0726111074036452,0.0799386977352182,-0.1386936362072806,3.0,34.2,40.65,321.28906,33.20313,985.35156,0.0270459711547545,-0.1581455052536826,-0.2805850646700651,49.5,14.1,93.45,-636.71875,76.17188,782.22656,0.3426707894866335,-0.0155880591483369,-0.0662158719584876,50.85,27.0,36.15
-902.34375,310.05859,130.37109,0.0018652333716063,0.007860613885132,-0.0319754790940873,3.0,34.2,40.65,356.44531,52.73438,932.61719,0.0456983048708179,-0.187989239199384,-0.3988943024116032,49.5,14.1,93.45,-617.67578,120.11719,821.28906,0.3944976434929043,-0.1251041535854023,-0.0854012292281101,50.85,27.0,36.15
-915.03906,281.73828,139.16016,-0.0191853572696224,0.0391699008037331,-0.0783399761403914,2.7,32.85,39.75,369.62891,82.51953,910.15625,0.0880658233971298,-0.0901975685455157,-0.3881025825806719,49.5,14.1,93.45,-595.21484,140.13672,825.19531,0.3161576673525128,-0.0905972489442224,-0.0840688448771376,52.65,27.0,36.45
-943.84766,257.32422,147.46094,0.0366386497895657,0.1039203943222463,-0.0648836621404404,3.6,33.0,40.65,378.41797,115.72266,919.92187,0.0820704428836041,-0.1159111553492978,-0.3742465881820141,49.95,14.85,93.75,-595.70312,149.90234,805.66406,0.3614562918246241,-0.0595542992694757,-0.0532925815120956,51.0,26.4,35.55
-980.46875,257.8125,172.85156,0.1618759719968953,0.0971256530113072,-0.0067947413109391,2.7,34.05,39.75,391.60156,160.64453,896.48437,0.068614128883653,-0.069680001457846,-0.3389403227434208,49.05,15.45,91.8,-564.45312,183.59375,809.57031,0.3571929760607775,-0.0433002224785777,-0.0851347174513306,51.75,27.9,37.05
-1004.39453,299.31641,165.52734,0.1381607871866467,0.1200413024912172,-0.0746095093971788,3.6,33.0,39.15,418.94531,173.82812,895.50781,0.0341072242424731,-0.0566231933236764,-0.3822403706890733,49.05,15.45,91.8,-571.77734,201.17187,814.94141,0.2701930252378405,-0.0249142260063686,-0.023448673033469,51.0,27.15,36.6
-979.49219,310.05859,165.03906,0.1149786259299572,0.0571562168772355,-0.0780734643636119,3.6,33.0,39.15,420.89844,172.85156,908.69141,0.0459648166475974,-0.0436999028772844,-0.3393400031421275,49.5,14.85,92.4,-537.59766,221.19141,826.17187,0.2458116482521058,-0.0359724576140795,-0.0728774446474996,49.35,28.8,35.4
-974.12109,328.61328,176.75781,0.1814610096652244,0.0318423104721601,0.004529827540626,3.45,34.05,38.7,402.34375,181.64062,898.92578,0.0269126279999021,-0.1045865864977326,-0.2716585782107402,48.9,15.15,93.75,-514.16016,203.61328,816.40625,0.245411967853399,-0.0447657754514773,-0.0739433172216925,51.0,27.15,36.0
-982.42187,313.47656,171.38672,0.091529778363563,0.0715452348294523,-0.0189188454928429,2.4,33.3,38.4,424.80469,164.0625,889.16016,-0.0339738810876208,-0.1160443239712249,-0.2534057503604583,49.05,16.2,92.55,-534.17969,192.87109,801.26953,0.1914533686987423,-0.0287778613715085,-0.050228132411444,51.0,27.15,36.0
-950.68359,307.12891,197.26562,0.1353630243956998,0.0496952833908101,0.0037304667432126,3.45,32.55,39.45,411.62109,145.99609,874.51172,-0.0342403928644003,-0.0611531953972277,-0.2467441776714463,49.05,16.2,92.55,-545.41016,213.86719,796.875,0.1552143993078833,-0.0365053066347134,-0.0342403928644003,51.45,29.4,34.95
-916.99219,305.66406,202.63672,0.1863905176045572,0.025713586803782,0.1200413024912172,4.5,33.3,40.5,394.04297,124.51172,880.37109,-0.0093261668580317,-0.0722112524720134,-0.2360858009953673,49.8,15.0,92.85,-568.35937,192.87109,798.82812,0.0790061683158777,-0.0371714988101996,-0.0510274932088574,51.45,29.4,34.95
-884.76562,306.15234,201.66016,0.2013123845774079,0.0981913510525749,0.1642740543891354,4.5,33.3,40.5,384.27734,117.1875,889.16016,0.0074609334864253,-0.0366386497895657,-0.1613431229762614,50.4,15.0,92.55,-571.28906,172.85156,815.91797,0.1249709849634751,-0.0182526533173567,-0.0427671989250186,50.85,27.3,36.45
-917.96875,302.73437,221.19141,0.1706692898342931,0.196249708016148,0.1525498051388636,3.3,31.65,39.6,391.60156,132.32422,900.39062,-0.016787100344457,-0.0285115241276541,-0.1492190187943576,49.95,15.6,92.4,-571.28906,174.31641,815.42969,0.1169770279234907,-0.0194516945134768,-0.0027979373238721,51.75,26.7,37.05
-935.54687,313.96484,229.00391,0.2498086267720979,0.210771894590292,0.2166339319489653,3.45,33.3,38.4,395.99609,141.60156,916.50391,-0.0960597804371143,-0.0162542513238231,-0.1833262430368307,50.4,15.0,92.85,-563.47656,168.45703,805.66406,0.1137794102009119,0.0071944217096458,0.0158545709251164,51.75,26.7,37.05
-921.875,285.15625,211.42578,0.2498086267720979,0.191853049097449,0.230889781279255,3.0,32.7,38.1,383.30078,136.23047,933.10547,-0.032375159492794,-0.0091929982361045,-0.1782633919426456,49.05,13.95,93.6,-555.17578,170.89844,804.6875,0.1961163648612956,-0.0247810573844414,-0.0085268060606182,50.85,27.3,35.1
-915.52734,293.45703,181.64062,0.2852480608326184,0.2627320917514152,0.1814610096652244,3.6,33.45,38.85,395.01953,149.90234,906.25,-0.0326416712695735,-0.0370383301882724,-0.1906538333684037,49.05,15.45,92.85,-580.56641,165.52734,827.63672,0.1981147668548291,-0.0263797789792682,-0.0330413516682802,51.75,28.2,36.3
-954.58984,287.10937,197.75391,0.384238947215532,0.2623322368197833,0.241548157955334,3.6,33.45,38.85,387.20703,142.08984,919.92187,-0.0286446927495813,-0.0018652333716063,-0.1051194355183664,49.05,15.45,92.85,-569.33594,149.41406,828.125,0.1865236862264844,-0.0311761182966739,-0.0708790426539661,51.75,28.2,36.3
-975.09766,289.0625,185.05859,0.3655866134994686,0.196915725658709,0.1725345232058994,3.45,33.3,38.7,383.78906,127.92969,918.45703,-0.0371714988101996,0.0151883787496302,-0.1425574461053456,50.1,14.25,92.55,-585.9375,134.76562,838.37891,0.2227626556173434,-0.0414349891069713,-0.0654165111610742,51.6,28.05,36.45
-998.04687,285.15625,155.76172,0.3462679130749938,0.2607335152249564,0.2283583557321624,2.4,32.55,39.0,377.92969,104.98047,930.17578,-0.0690138092823597,0.0059953805135257,-0.1878560705774568,49.05,14.25,92.85,-599.60937,122.55859,847.65625,0.1887885999967974,-0.0237151848102485,-0.0907304175661496,51.6,28.05,36.45
-1004.39453,296.875,164.55078,0.4200780616747592,0.1706692898342931,0.29337518649453,3.75,33.6,39.75,386.23047,92.28516,955.56641,-0.0251807377831481,-0.0527595579585365,-0.201845408130967,49.8,13.95,95.1,-602.53906,118.16406,840.33203,0.212503784807046,-0.0231821612566894,-0.0827366350590903,51.0,26.7,36.3
-968.75,294.92187,144.04297,0.4621792429572168,0.0612863640191548,0.3012358003796621,2.7,32.85,37.65,375.97656,61.52344,968.75,-0.0086599746825454,-0.0854012292281101,-0.2524732209411177,49.8,13.95,95.1,-614.25781,132.8125,854.00391,0.2427473736843793,-0.002264913770313,-0.0839356762552105,49.65,26.4,34.5
-944.82422,293.94531,151.36719,0.3829065628645595,0.1032542021467601,0.2668622388933346,2.7,32.85,37.65,368.16406,72.75391,961.91406,0.0660827033365605,-0.1566799522807829,-0.2440795835024266,50.1,15.0,91.8,-620.11719,156.25,880.37109,0.2299570773269893,-0.1000565844241813,-0.113246561180278,50.85,27.3,36.45
-952.63672,312.5,134.27734,0.4471240328295137,0.0281118437289474,0.3338774716492356,3.75,33.3,38.7,390.13672,86.91406,954.58984,0.0556906639043358,-0.170136266280734,-0.2645973251230215,50.1,13.5,93.3,-579.10156,180.17578,858.88672,0.2145023613335047,-0.0851347174513306,-0.1164441789028568,50.55,28.5,36.15
-931.64062,300.29297,132.32422,0.435532952201169,-0.020117886688963,0.4256737617895781,2.1,32.55,38.4,399.90234,113.76953,956.05469,0.0335742006889141,-0.1993139825838744,-0.2380842029889009,49.35,13.2,92.55,-562.98828,216.30859,860.83984,0.2384838833876076,-0.0818039311068246,-0.0556906639043358,51.6,27.3,36.15
-890.625,282.22656,115.72266,0.3861041805871384,0.0684807857288007,0.4411286523159879,2.4,32.55,38.4,402.34375,161.62109,948.24219,0.0221164632154217,-0.2003798551580673,-0.1789295841181318,49.5,15.9,92.7,-565.42969,266.60156,840.33203,0.1875895588006773,-0.0959264372822619,-0.0851347174513306,51.6,27.0,36.45
-916.01562,282.71484,115.23438,0.4627120919778507,-0.0925956509377559,0.569430249091044,2.55,33.0,38.85,399.41406,224.60937,917.96875,-0.0247810573844414,-0.1665389681594485,-0.1793292645168386,50.25,15.15,92.7,-544.92187,267.08984,818.84766,0.1008561197545199,-0.0723445956268657,-0.0700796818565527,51.6,27.0,36.45
-833.49609,285.15625,115.23438,0.4572495604849588,-0.181327666510372,0.5583721920162583,2.55,33.0,38.85,445.80078,241.69922,914.55078,-0.0262466103573411,-0.1753322859968463,-0.1267028751802291,50.1,14.25,94.35,-547.36328,287.10937,839.84375,0.057422728654015,-0.0707458740320389,-0.0762082309920056,50.85,27.3,36.45
-860.35156,326.17187,134.76562,0.4247412323702376,-0.1858576685839233,0.5641010607530045,2.55,33.0,38.85,442.87109,250.0,914.55078,-0.0848683802074762,-0.086467101802303,-0.0901975685455157,50.1,14.25,94.35,-544.92187,277.83203,835.44922,-0.032375159492794,-0.0977916706538682,-0.0750091897958855,50.85,27.3,36.45
-816.40625,336.91406,129.39453,0.5192021166795999,-0.1839922606793918,0.5712956569955755,2.4,33.3,37.95,425.29297,203.61328,934.57031,-0.1092495826602858,-0.1662726309155942,0.0282450123508746,49.5,14.85,92.7,-549.80469,257.32422,822.26562,-0.032908183046353,-0.1127137121596442,-0.0514271736075641,51.45,27.45,35.55
-829.58984,367.1875,130.85937,0.4992173986125641,-0.1478866344433851,0.5836860984213336,2.4,33.3,37.95,420.89844,187.5,931.15234,-0.1155114749505911,-0.177330862523305,0.0546247913301429,48.6,14.25,93.3,-555.17578,248.53516,808.10547,-0.0763415741468579,-0.0560903443030425,-0.0534257501340228,51.6,28.05,36.15
-792.96875,404.78516,125.0,0.4290045481340842,-0.1763981585710393,0.4611133703830238,1.2,33.45,38.55,401.85547,175.78125,911.13281,-0.1087167336396519,-0.1682710329091277,0.05475795995207,49.35,13.5,93.6,-538.57422,228.51562,796.38672,-0.0365053066347134,-0.0827366350590903,-0.0325085026476463,49.2,26.7,36.3
-794.43359,465.82031,116.21094,0.3533291661627125,-0.0764747427687851,0.3858376688103588,3.45,32.1,36.6,380.85937,186.03516,882.32422,-0.0838025076332833,-0.1430902951259795,0.086467101802303,49.35,13.5,93.6,-542.48047,208.49609,793.94531,-0.0691469779042869,-0.0911300979648563,-0.0510274932088574,51.15,27.3,36.45
-831.54297,528.32031,119.14063,0.2961731238184021,-0.0985910314512816,0.3248178165679835,3.45,32.1,36.6,399.90234,158.69141,881.34766,-0.1011224569983742,-0.068614128883653,0.0824701232823108,48.3,12.75,93.6,-551.26953,192.87109,814.94141,-0.077007591789419,-0.0235820161883213,-0.0608866836204481,50.55,27.3,35.4
-848.14453,542.96875,135.74219,0.1805283057129587,0.0678147680862396,0.1851914764084371,0.75,35.7,37.5,407.71484,142.57812,916.01562,-0.1207074946667034,-0.0385038831611721,0.1075176924435318,49.2,14.4,92.4,-566.40625,175.78125,817.87109,-0.1104486238564059,-0.0050628510941851,-0.0564900247017492,49.8,28.05,35.85
-860.35156,540.52734,145.50781,0.0411684773301918,0.037970859607613,0.1350965126189202,1.8,32.7,37.05,426.26953,103.02734,938.96484,-0.0804717212887773,-0.0722112524720134,0.104320074720953,49.2,14.4,92.4,-577.14844,182.61719,815.42969,-0.1382939558085739,0.005595700114819,-0.0660827033365605,49.8,28.05,35.85
-853.02734,556.15234,139.16016,-0.0423675185263119,-0.0632847660126884,0.0929953313364626,1.5,34.5,38.85,424.31641,109.86328,958.98437,-0.0375711792089063,-0.0650168307623675,0.113246561180278,49.2,14.4,92.4,-583.98437,175.78125,815.91797,-0.2093063416173923,-0.0366386497895657,-0.0106585512090041,51.9,26.25,36.15
-874.02344,577.14844,146.48437,-0.2085068062870538,-0.015055210127703,-0.0707458740320389,1.5,34.5,38.85,394.53125,115.72266,951.66016,-0.0508943245869302,-0.0654165111610742,0.1674716721117143,47.55,13.5,93.6,-606.44531,170.89844,831.54297,-0.2412818207114797,-0.020117886688963,-0.043566559722432,51.9,26.25,36.15
-874.02344,561.03516,151.36719,-0.4010260475599891,-0.0133231453780239,-0.2059755552728863,0.15,34.95,38.1,409.17969,132.32422,951.66016,-0.0351730968166661,-0.0500949637895168,0.1549478875311037,49.8,14.7,93.3,-607.42187,166.01562,793.45703,-0.3043000749473886,0.0191853572696224,-0.0406354537766327,51.9,26.25,36.15
-881.83594,546.875,129.88281,-0.4829631472887409,-0.0137228257767306,-0.2339540558469814,1.2,33.75,37.8,406.73828,138.18359,972.65625,-0.1291011321053945,-0.0017320647496791,0.2315559734547413,49.05,13.5,93.3,-598.63281,166.01562,804.19922,-0.2500749640159523,0.0460979852695246,-0.0612863640191548,51.15,26.55,36.15
-905.76172,535.15625,127.44141,-0.5830199062458474,0.0818039311068246,-0.2652633427655826,1.5,34.2,37.05,384.76562,148.92578,967.77344,-0.1341638086666545,0.0282450123508746,0.2555374955088442,49.05,13.5,93.3,-614.74609,184.08203,790.03906,-0.3687840566891222,0.0807380585326316,-0.0345069046411798,51.0,26.1,36.0
-937.98828,531.25,106.44531,-0.7171837149125019,0.0646171503636608,-0.3878360708038924,1.65,34.05,37.95,370.11719,149.41406,968.26172,-0.1368284028356742,0.0094593354799588,0.2657963663191416,49.35,14.25,93.6,-616.69922,152.83203,784.66797,-0.2908437609474374,0.0955267568835552,-0.0816707624848974,51.75,26.7,36.0
-959.47266,536.62109,78.61328,-0.7447627096208155,0.1249709849634751,-0.4130168085870405,1.65,34.05,37.95,332.51953,107.42188,936.52344,-0.1641408857672083,0.0195850376683291,0.3001699278054692,48.6,12.45,93.6,-617.1875,155.76172,807.61719,-0.2743231723797599,0.0579555776746489,-0.0620857248165682,51.75,27.9,36.3
-1000.0,535.15625,103.51563,-0.930220523273107,-0.0869999508229369,-0.5992741575696706,2.55,34.5,37.8,328.125,79.10156,946.28906,-0.2017120649761146,0.0369049870334201,0.2496752836172456,48.0,13.95,94.05,-614.25781,116.21094,778.80859,-0.1593445464498027,0.0836691644784309,-0.0007993607974134,51.75,25.65,37.35
-880.85937,500.0,68.35938,-1.0142893681502447,-0.0415681577288985,-0.6653568609062311,2.7,34.05,39.45,314.94141,35.15625,944.33594,-0.1268362183350815,0.0676814249313873,0.208107125888347,48.3,13.2,94.05,-629.88281,122.07031,785.64453,-0.1324319184499005,0.1039203943222463,-0.0682144484849463,51.75,26.4,37.05
-923.82812,468.26172,69.33594,-0.964860596536214,0.2126371279618983,-0.6913369594867926,3.0,34.5,38.1,313.47656,12.69531,983.39844,-0.0430337107017981,0.0531592383572432,0.1437564873014657,47.7,12.9,94.2,-644.53125,99.60938,780.27344,-0.1601439072472161,0.0620857248165682,-0.0046631706954784,51.75,26.4,37.05
-988.28125,445.3125,103.02734,-1.1090167642363866,0.2258269301850698,-0.7622160021407588,2.55,33.45,38.55,324.21875,27.34375,954.10156,0.0067947413109391,0.0715452348294523,0.1394931715376192,48.3,13.2,92.55,-657.22656,87.89063,773.4375,-0.0980581824306478,0.0515605167624164,0.0099923590335179,51.0,26.7,37.35
-987.79297,408.20312,97.65625,-1.187356740376778,-0.0600873228230347,-0.8224364935857208,2.55,33.45,38.55,311.03516,26.85547,956.05469,0.0131899767560967,0.0631515973907612,0.1225727280383097,48.3,13.2,92.55,-670.89844,111.81641,770.01953,-0.0712787230526728,0.0790061683158777,-0.0333078634450597,50.25,26.4,37.05
-953.61328,380.37109,121.58203,-1.2750230579081263,-0.4445926072824211,-0.9170305465170104,2.55,33.75,37.8,298.82812,48.82813,942.38281,0.0202512298438154,0.0070612530877186,0.1248376418086228,48.9,11.85,93.45,-677.73437,99.60938,759.76562,-0.1425574461053456,0.0279785005740951,0.0198513749121835,51.0,26.4,36.3
-1062.01172,282.71484,149.41406,-1.2840827129893784,-0.8664027337068595,-1.0392035941566131,3.15,32.55,39.0,299.31641,61.03516,932.61719,0.0325085026476463,0.0631515973907612,0.1104486238564059,49.8,12.45,93.6,-647.94922,128.90625,763.18359,-0.1473537854227512,0.0195850376683291,-0.0106585512090041,51.0,25.65,36.0
-1013.18359,285.64453,134.76562,-1.3725482167852152,-0.952470155110456,-1.1684378948839351,5.1,34.5,39.15,308.59375,86.91406,927.73437,-0.0027979373238721,0.0206509102425221,0.1728008604497538,47.7,13.35,93.15,-663.08594,122.07031,771.48437,-0.1749326055981396,0.0385038831611721,-0.0001331686219271,51.0,27.45,38.1
-957.51953,210.9375,135.25391,-1.2489096161727122,-0.978183741914238,-1.1435236688775663,3.15,33.3,40.8,317.87109,74.70703,950.68359,0.0389035635598788,0.0322419908708668,0.1424242774834185,47.7,13.35,93.15,-652.83203,135.74219,768.06641,-0.1565467836588557,0.0409019655534123,0.0651499993842947,50.85,27.0,36.9
-968.75,180.66406,149.90234,-1.106885193620926,-0.7876630771677613,-1.133131803978267,3.15,33.3,40.8,310.05859,94.23828,935.54687,-0.0021317451483858,0.0700796818565527,0.1533491659362769,49.5,13.35,92.7,-628.90625,141.60156,760.25391,-0.143356806902759,0.0305099261211876,0.0207840788644492,50.85,27.0,36.9
-988.28125,145.99609,173.33984,-1.0687809908584605,-0.641908187872762,-1.071845265426187,4.95,33.6,41.55,322.26562,82.51953,936.52344,-0.0023980823922402,0.0433002224785777,0.1866570293813367,49.35,13.5,93.3,-625.0,149.90234,763.67187,-0.1845252842329509,-0.03064326927604,0.0522267089379027,51.15,26.55,36.15
-949.21875,129.88281,196.28906,-0.9435436686511308,-0.6359128073592363,-0.914099615104136,5.7,34.5,40.95,339.35547,95.70313,919.92187,0.0121241041819038,0.0197182062902563,0.1967825570367818,49.35,13.5,93.3,-606.93359,151.85547,779.78516,-0.2155680593747724,0.0366386497895657,0.0039969785199922,51.15,26.55,36.15
-957.51953,105.95703,209.96094,-0.8938483852603207,-0.4772342785519947,-0.7591515530401072,4.65,32.4,42.3,337.40234,111.32813,903.32031,0.0177198042967228,0.0414349891069713,0.1706692898342931,48.6,12.45,93.6,-602.05078,114.25781,737.79297,-0.2173001241244516,-0.0411684773301918,0.0293108849250675,50.1,26.25,37.2
-1001.95312,83.00781,240.23437,-0.731173052466012,-0.3121608633654458,-0.708257228453177,3.6,33.0,43.8,323.24219,110.35156,905.27344,0.0170536121212365,0.0639509581881746,0.2105053828135125,48.0,13.95,92.25,-600.58594,113.76953,782.71484,-0.2324885028740818,0.0243813769857347,0.0342403928644003,51.45,26.7,36.6
-1000.0,90.33203,211.91406,-0.6636247961565519,-0.2460781600288853,-0.5198683088550862,3.6,33.0,43.8,354.98047,77.63672,894.04297,-0.007860613885132,0.0504946441882235,0.1930520902935692,48.9,13.65,92.7,-589.35547,135.25391,804.6875,-0.2574027288804505,0.036238969390859,0.0142556747973644,51.6,26.55,35.1
-1020.99609,96.19141,215.82031,-0.5294609874898974,-0.1899878157258427,-0.4719050902139552,6.15,32.4,42.75,357.42187,60.05859,910.15625,-0.0102588708102974,0.0873996312216436,0.2304901008805483,48.9,13.65,92.7,-598.63281,116.69922,752.92969,-0.2260934419618494,0.0031976177225788,0.0407687969314851,50.7,26.4,36.0
-974.12109,51.26953,224.12109,-0.463511452775264,-0.1133797298022052,-0.3911668571483984,5.1,33.45,42.3,360.83984,41.01563,918.45703,0.0131899767560967,0.0885988469506889,0.1807948174897382,48.9,14.85,92.7,-594.23828,108.39844,822.26562,-0.1957166844625889,-0.0085268060606182,0.0695466583029936,50.85,25.8,37.5
-975.58594,13.18359,205.56641,-0.2801852097384332,-0.040235773377926,-0.2390169069411666,6.0,31.8,41.85,386.23047,24.90234,918.94531,0.0382373713843925,0.0548913031069224,0.1891882803955041,48.45,12.9,92.4,-606.44531,123.04688,817.38281,-0.2146355299554318,0.0127901218244648,0.0219831200605693,51.45,26.1,37.05
-973.14453,-22.94922,216.30859,-0.1336309596460206,0.0270459711547545,-0.0419678381276052,6.45,33.0,43.35,383.78906,57.61719,943.35937,0.0835359958565038,0.0375711792089063,0.1657396073620351,49.05,14.25,93.6,-610.35156,151.36719,804.6875,-0.2518070287656315,0.0050628510941851,0.0634181091675407,51.45,26.1,37.05
-975.09766,-23.4375,223.63281,0.0199847180670358,0.1898544725709904,0.0153215473715574,6.45,33.0,43.35,403.80859,89.35547,956.05469,0.051827028539196,0.0638177895662474,0.2204977418470304,49.8,14.25,92.85,-640.13672,157.71484,875.48828,-0.2899112315280969,0.013456313999951,0.0983246942074273,51.45,26.1,37.05
-1019.53125,-40.03906,235.35156,0.2410153089347001,0.2411484775566273,0.1847917960097304,4.65,34.2,43.8,419.43359,121.09375,978.51562,0.0712787230526728,0.0575558972759422,0.1544150385104699,48.45,12.9,93.15,-620.60547,152.83203,852.53906,-0.2965728042171088,-0.0057288687367461,0.0467641774450108,49.8,27.3,37.5
-1020.50781,-7.32422,239.25781,0.4929555063222588,0.2781868077448998,0.3679846958917088,6.0,32.55,43.8,388.18359,133.78906,994.14062,0.0830031468358699,0.0887320155726161,0.2145023613335047,48.6,13.5,92.85,-597.65625,135.74219,858.88672,-0.2785864881436065,-0.0001331686219271,0.0778071271197576,49.8,27.3,37.5
-986.32812,11.23047,226.5625,0.614062681387669,0.4440597582617873,0.4042236652825678,6.45,32.55,41.55,381.34766,110.83984,968.75,0.0382373713843925,0.0658161915597809,0.2546049660895036,48.6,13.5,92.85,-590.82031,125.48828,860.83984,-0.2475437130017849,-0.0241148652089552,0.107650861065459,52.05,26.1,37.05
-1011.23047,68.84766,222.65625,0.7759388279174894,0.6255205933940865,0.5633016999555911,6.45,33.45,42.75,395.50781,112.30469,970.21484,-0.0010658725741929,0.0163874199457503,0.2691271526636476,48.45,14.1,92.4,-583.49609,106.44531,865.72266,-0.2769877665487796,-0.0848683802074762,0.0695466583029936,50.7,26.7,37.35
-1030.27344,132.32422,211.91406,0.9572664944278616,0.6105987264212358,0.7306400289124529,5.7,31.95,41.7,401.85547,82.03125,943.84766,0.060753514998521,0.0093261668580317,0.2631317721501219,49.35,13.95,93.3,-552.24609,105.46875,864.74609,-0.2655298545423621,-0.1201746456460695,0.078606487917171,52.35,26.55,36.9
-991.69922,176.26953,211.42578,0.9439433490498376,0.6697535198249299,0.8401562978824436,5.7,31.95,41.7,444.33594,61.03516,938.47656,0.0005328490206338,0.0331745202902074,0.2655298545423621,48.3,13.5,92.85,-548.33984,100.58594,849.12109,-0.3173568830815581,-0.1077840296873862,0.0720780838500862,52.05,26.4,37.35
-1005.37109,212.89062,197.75391,0.993238952041941,0.6749495395410423,0.95033840996207,5.25,34.05,40.5,425.78125,51.75781,913.57422,0.0447657754514773,0.0319754790940873,0.2653966859204349,48.3,13.5,92.85,-543.45703,72.26563,861.81641,-0.3342771520479423,-0.0839356762552105,0.075275701572665,50.25,26.7,37.65
-990.72266,247.55859,202.14844,1.0270796645076348,0.6657565413049378,1.059587992622356,4.35,32.4,40.65,446.77734,39.55078,887.20703,-0.0082602942838387,0.0619525561946411,0.2536722621372378,48.45,13.35,93.45,-541.99219,73.24219,838.86719,-0.3032343769061208,-0.077007591789419,0.0707458740320389,51.0,27.15,37.05
-951.17187,275.87891,201.66016,0.993238952041941,0.7033277205138442,1.1580458554517103,4.5,31.8,41.55,443.35937,35.64453,906.73828,0.0165205885676775,0.0755420388165193,0.2402159481372867,49.35,12.75,94.05,-525.87891,75.19531,873.53516,-0.3196217968518711,-0.0832694840797242,0.1159111553492978,51.0,27.15,37.05
-905.27344,295.41016,203.61328,0.960863792549147,0.6556308391165675,1.131000058829881,5.25,34.35,40.5,440.91797,61.52344,885.25391,0.0214502710399355,0.0885988469506889,0.1973154060574157,49.35,12.75,94.05,-518.06641,82.51953,887.20703,-0.2839158510145712,-0.0802052095119978,0.1155114749505911,49.8,25.05,36.15
-908.69141,357.42187,220.21484,1.0156217525012172,0.4840290198629338,1.1042204249189809,5.25,34.35,40.5,457.51953,70.3125,897.94922,0.0301102457224809,0.1283017713079811,0.1942511314896893,49.35,12.75,94.05,-520.99609,82.03125,838.86719,-0.3605237624052835,-0.1116478395854512,0.0927289940926083,51.0,24.9,37.65
-934.57031,395.01953,229.98047,0.9230261015634612,0.1747994369762124,1.0028316306767522,3.3,33.0,38.85,456.54297,91.30859,905.27344,-0.0250473946282958,0.1273690673557154,0.2139693377799456,48.45,13.35,93.45,-494.62891,93.75,890.625,-0.3137595849602726,-0.0644839817417337,0.0764747427687851,51.15,27.0,37.2
