IMU1_AccX,IMU1_AccY,IMU1_AccZ,IMU1_GyrX,IMU1_GyrY,IMU1_GyrZ,IMU1_MagX,IMU1_MagY,IMU1_MagZ,IMU2_AccX,IMU2_AccY,IMU2_AccZ,IMU2_GyrX,IMU2_GyrY,IMU2_GyrZ,IMU2_MagX,IMU2_MagY,IMU2_MagZ,IMU3_AccX,IMU3_AccY,IMU3_AccZ,IMU3_GyrX,IMU3_GyrY,IMU3_GyrZ,IMU3_MagX,IMU3_MagY,IMU3_MagZ
-923.82812,332.03125,236.81641,0.1025880099712739,-0.0464976656682313,0.0957932686603347,4.95,33.6,41.1,359.375,143.55469,895.50781,0.0640843013430269,0.0065284040670847,-0.31122815941318,49.2,14.4,92.7,-572.26562,172.85156,795.41016,0.2551378151101375,-0.0527595579585365,-0.1256370026060362,52.35,27.0,35.85
-842.28516,316.89453,220.70312,0.0924624823158288,0.0047963393174056,-0.0366386497895657,4.2,34.8,40.8,335.9375,161.62109,884.76562,0.0287778613715085,0.0215834396618626,-0.2941745472919434,50.1,14.25,94.35,-599.12109,159.66797,757.32422,0.2661960467178483,0.0361056262360067,-0.1293674693492489,49.35,27.75,36.15
-903.80859,343.26172,204.10156,0.1104486238564059,0.0482297304179105,-0.0494287716140306,3.45,33.6,41.1,323.24219,159.17969,914.0625,0.007860613885132,0.0138559943986577,-0.2789861685423132,48.3,13.95,93.3,-605.95703,131.34766,776.36719,0.2692603212855747,-0.0683476171068735,-0.1606769308007752,50.7,26.1,37.05
-959.96094,358.88672,212.40234,0.1125803690047918,0.0503614755662963,0.0194516945134768,3.45,33.6,41.1,320.3125,159.66797,912.10937,-0.023448673033469,-0.074209828998472,-0.2615328760223699,48.3,13.2,92.55,-581.54297,109.86328,740.23437,0.2049096826986934,-0.0624854052152749,-0.1538820149569108,50.7,26.7,35.25
-963.37891,393.06641,192.38281,0.0810045703094112,0.0527595579585365,-0.029044373148288,4.5,34.35,41.1,290.03906,156.25,883.30078,-0.0121241041819038,-0.0690138092823597,-0.3237519439937906,48.3,13.2,92.55,-604.49219,101.5625,699.70703,0.165073589719474,-0.0425006871482391,-0.1554809110846628,51.15,26.55,37.2
-964.84375,377.92969,202.63672,0.0351730968166661,0.1049862668964393,-0.0856677410048896,4.65,33.0,42.0,279.78516,135.25391,866.69922,-0.0305099261211876,-0.071944915228159,-0.2467441776714463,49.05,14.25,92.55,-604.00391,74.21875,770.01953,0.2204977418470304,-0.0282450123508746,-0.2109050632122192,50.25,27.45,37.35
-945.3125,378.90625,208.00781,0.082603291904238,0.1167105161467112,-0.027312482931534,4.2,32.85,40.5,291.99219,98.14453,856.93359,-0.1157779867273706,-0.0407687969314851,-0.252073540542411,49.5,14.85,93.45,-610.35156,85.44922,865.23437,0.2227626556173434,-0.0310429496747467,-0.291110272724217,51.6,25.8,36.45
-906.25,359.375,222.16797,0.0075941021083525,0.1101822866125516,-0.1428239578821251,2.55,33.0,41.25,338.86719,72.26563,897.46094,-0.1059187963157798,-0.1096492630589925,-0.2479433934004916,49.5,14.85,93.45,-621.09375,95.21484,981.44531,0.2486095855759778,-0.0250473946282958,-0.1858576685839233,51.6,25.8,36.45
-863.28125,346.19141,247.55859,0.006128723668378,0.10205516095064,-0.1245711300318432,2.55,33.0,41.25,424.80469,41.01563,1005.85937,-0.0838025076332833,-0.0979250138087206,-0.2797855293397265,49.5,14.4,93.15,-630.85937,58.10547,952.14844,0.2363521382392217,-0.0358392889921523,-0.2748560214003938,50.25,26.7,35.25
-840.33203,325.19531,270.50781,0.0174532925199432,0.1434899755246862,-0.0963261176809686,3.0,34.5,40.95,468.75,23.4375,1083.98438,-0.0985910314512816,-0.1089830708835063,-0.3649204213239824,48.9,13.35,93.15,-611.32812,59.08203,905.27344,0.3182894125008987,-0.0936615235119489,-0.2394165873398733,50.25,26.7,35.25
-852.05078,331.54297,255.37109,0.0390367321818059,0.1329647674705344,-0.1609432680446295,4.35,34.2,40.95,498.53516,2.92969,1094.72656,-0.0226493122360556,-0.1554809110846628,-0.3942313062490499,48.9,12.9,93.75,-595.21484,73.73047,919.43359,0.3795757765200536,-0.1157779867273706,-0.2011792159554807,50.25,26.7,35.25
-888.67187,321.28906,227.05078,-0.0175864611418704,0.1546815502872494,-0.1736002212471671,5.25,32.85,41.55,466.30859,38.08594,1052.73438,-0.0310429496747467,-0.2224961438405639,-0.4491224348230472,48.9,12.9,93.75,-591.30859,106.93359,895.01953,0.4123506164115543,-0.1414915735311527,-0.1922527294961557,51.9,25.05,36.15
-954.58984,317.38281,215.33203,0.0267794593779749,0.0620857248165682,-0.1537488463349836,3.45,34.05,40.05,477.05078,81.05469,1028.32031,-0.0470306892217904,-0.3286814519331233,-0.4066217476748081,50.1,13.2,92.85,-556.15234,157.71484,906.25,0.438863738545675,-0.0957932686603347,-0.1653399269633284,50.85,26.25,37.2
-984.375,306.15234,207.51953,0.0229158240128351,0.0247810573844414,-0.1762649899491121,3.45,34.05,40.05,479.49219,123.53516,971.19141,-0.0595542992694757,-0.29337518649453,-0.4058223868773947,50.1,15.0,94.05,-536.13281,201.17187,880.37109,0.4559173506669116,-0.0715452348294523,-0.2174334672793039,52.35,25.8,38.25
-990.23437,300.29297,192.38281,-0.0025314255470925,0.0299770771005538,-0.2022450885296737,5.4,32.7,40.95,497.07031,162.10937,946.77734,-0.1201746456460695,-0.1626753327943086,-0.3385406423447141,48.45,13.65,93.45,-518.55469,200.19531,865.23437,0.4764349177545812,0.0102588708102974,-0.1614762915981885,51.75,26.1,35.25
-1003.41797,300.29297,179.6875,0.0322419908708668,-0.0314426300734534,-0.2218299516650776,4.35,33.75,41.25,463.86719,158.69141,926.26953,-0.0824701232823108,-0.0822036115055313,-0.3320122382776293,49.35,13.5,92.85,-506.34766,249.51172,851.07422,0.4389969071676021,0.0490290912153239,-0.1873230470238978,51.75,26.1,35.25
-1009.27734,286.13281,188.47656,0.0209172474863764,-0.0606201718436686,-0.2320888224753751,4.65,33.45,41.25,435.54687,171.38672,909.17969,-0.0666155523571943,-0.0170536121212365,-0.2965728042171088,48.3,12.45,94.05,-510.74219,262.20703,816.89453,0.4840290198629338,0.0386370517830992,-0.1733338840033128,51.45,26.1,37.65
-998.04687,273.4375,186.03516,-0.0049295079393327,-0.059687642424328,-0.2563368563062576,5.55,31.35,40.8,436.52344,177.73437,912.59766,-0.0322419908708668,-0.0159877395470436,-0.3012358003796621,48.15,12.6,93.45,-505.85937,277.83203,819.33594,0.438863738545675,0.0639509581881746,-0.1007227765996675,51.45,26.1,37.65
-1000.0,263.67187,194.82422,0.0215834396618626,-0.1450888716524382,-0.230889781279255,5.55,31.35,40.8,440.42969,169.43359,916.50391,-0.0421010067495324,0.0262466103573411,-0.3077642044467469,48.15,12.6,93.45,-509.27734,304.6875,799.80469,0.3774440313716677,0.0262466103573411,-0.0889985273493956,50.25,27.15,36.6
-958.00781,238.28125,214.35547,-0.0115910806283447,-0.1726676918278266,-0.2617993877991494,4.35,32.7,40.8,406.73828,191.40625,898.92578,0.0198513749121835,-0.0447657754514773,-0.2212971026444438,49.2,12.9,93.75,-521.97266,307.12891,799.31641,0.2566033680830371,0.0495619402359577,-0.064750318985588,51.6,26.55,36.45
-918.94531,237.30469,200.68359,-0.0430337107017981,-0.1841256038342442,-0.3113613280351072,4.35,32.7,41.25,409.66797,227.05078,846.67969,0.0464976656682313,-0.0181194846954295,-0.1726676918278266,49.35,12.75,94.35,-532.71484,305.66406,812.5,0.175731966395553,0.0632847660126884,-0.1196416220925105,51.6,27.0,36.45
-875.97656,223.63281,235.83984,-0.0193185258915496,-0.196249708016148,-0.1982481100096814,4.2,33.6,41.1,426.75781,244.62891,852.05078,0.0298437339457014,-0.0079939570399844,-0.08420218803199,49.95,13.65,94.35,-540.03906,318.35937,804.19922,0.0570230482553083,0.0911300979648563,-0.1192419416938038,51.6,26.25,37.5
-863.76953,216.79687,229.49219,-0.023981696587028,-0.1817273469090787,-0.2444792639011333,4.2,31.8,41.55,415.52734,261.71875,854.49219,-0.0237151848102485,-0.04849624219469,0.007860613885132,49.95,13.65,93.15,-535.64453,307.61719,803.71094,-0.0476967068643514,0.0675482563094601,-0.0924624823158288,51.0,26.4,36.6
-873.04687,205.56641,226.07422,-0.0442327518979182,-0.1609432680446295,-0.3261500263860307,4.35,32.4,41.25,417.96875,243.65234,841.79687,-0.0499617951675896,-0.0159877395470436,0.077540615342978,49.95,13.65,93.15,-541.50391,279.78516,836.91406,-0.0626187483701273,0.0298437339457014,-0.1229724084370164,51.45,27.9,36.6
-908.20312,212.89062,231.93359,0.0535589187559499,-0.1313660458757076,-0.2324885028740818,4.35,32.4,41.25,430.17578,211.42578,873.04687,-0.1015221373970809,-0.032375159492794,0.1401591891801802,48.9,12.9,93.75,-556.64062,248.53516,817.87109,-0.1835925802806851,0.0283781809728018,-0.1119141768293056,51.45,27.9,36.6
-898.92578,206.54297,231.93359,0.0181194846954295,-0.1390934911389125,-0.2500749640159523,5.4,33.45,41.7,426.26953,183.10547,878.90625,-0.1412250617543731,-0.0510274932088574,0.2206309104689576,48.15,13.65,95.25,-557.61719,208.98437,824.70703,-0.1746660938213601,0.0135896571548034,-0.0911300979648563,50.7,26.7,37.05
-897.94922,200.68359,226.5625,0.0282450123508746,-0.0668820641339739,-0.1586783542743164,4.5,32.55,42.9,421.875,129.88281,913.08594,-0.1630750131930153,-0.0471638578437175,0.2628652603733424,48.15,13.65,95.25,-561.52344,160.15625,814.94141,-0.20917299846254,-0.0102588708102974,-0.0586217698501351,50.7,26.7,37.05
-897.46094,207.03125,210.9375,0.0079939570399844,-0.103787051167394,-0.2860474216300318,5.25,33.6,40.8,418.94531,95.70313,954.10156,-0.1337641282679478,-0.0672817445326806,0.1921193863413034,47.55,12.45,93.3,-562.01172,115.23438,805.17578,-0.1689372250846139,0.0106585512090041,-0.1633415249697949,51.9,24.3,36.15
-921.38672,205.07812,199.70703,0.0715452348294523,-0.1015221373970809,-0.116577347524784,5.1,32.4,41.7,380.37109,67.87109,935.05859,-0.1360290420382608,-0.0450321126953316,0.2535390935153107,49.05,13.2,94.65,-573.73047,99.60938,818.35937,-0.1614762915981885,-0.0037304667432126,-0.140026020558253,51.6,26.25,35.85
-926.26953,208.49609,183.10547,-0.0122572728038309,-0.0598208110462552,-0.1938514510909826,5.1,32.4,41.7,348.14453,49.31641,916.99219,-0.1376279381660128,-0.0173201238980161,0.1911868569219628,48.9,13.35,93.75,-576.17187,103.51563,762.20703,-0.1336309596460206,-0.0039969785199922,-0.0542251109314362,51.0,26.1,36.3
-964.35547,232.91016,191.89453,0.0355727772153728,-0.0598208110462552,-0.1781302233207184,6.3,32.85,40.8,333.00781,48.33984,931.64062,-0.1160443239712249,-0.0241148652089552,0.1795957762936181,48.9,13.35,93.75,-591.30859,128.90625,798.82812,-0.107650861065459,0.0023980823922402,-0.0606201718436686,52.5,27.15,36.3
-1012.20703,228.02734,194.82422,0.050761155965003,-0.0534257501340228,-0.1115144964305989,5.1,31.65,41.7,323.24219,71.28906,917.48047,-0.0728774446474996,0.0010658725741929,0.1850581332535847,48.0,14.7,92.25,-607.42187,128.90625,779.78516,-0.2094395102393195,-0.0421010067495324,-0.0371714988101996,49.65,24.9,37.35
-999.02344,221.19141,181.64062,-0.0033307863445059,-0.0479632186411309,-0.1833262430368307,5.7,30.9,42.0,347.65625,70.80078,921.38672,-0.0660827033365605,0.0343737360192527,0.1722680114291199,48.45,12.15,94.2,-624.51172,145.99609,800.78125,-0.1601439072472161,-0.0496952833908101,-0.0427671989250186,51.75,26.1,36.6
-993.65234,194.82422,174.80469,-0.0566231933236764,-0.0487625794385443,-0.2204977418470304,5.7,30.9,42.0,342.28516,99.60938,964.35547,-0.0949939078629213,0.063684446411395,0.1646737347878422,47.1,12.6,94.5,-633.30078,151.36719,814.45312,-0.2099723592599534,-0.0438330714992115,-0.0660827033365605,51.75,26.1,36.6
-973.63281,187.01172,163.08594,-0.0191853572696224,-0.0763415741468579,-0.1362955538150403,5.7,30.9,42.0,357.42187,95.70313,950.68359,-0.0508943245869302,0.0193185258915496,0.2118375926315597,48.45,13.65,95.25,-654.78516,123.53516,788.08594,-0.2179663162999378,-0.0536922619108023,-0.085934078248744,51.75,26.1,36.6
-974.60937,202.63672,190.91797,-0.0305099261211876,0.0094593354799588,-0.1593445464498027,5.7,32.4,41.25,347.65625,93.75,957.51953,-0.1273690673557154,0.0250473946282958,0.2187656770973512,47.55,12.75,94.05,-645.50781,110.83984,829.10156,-0.1923858981180829,-0.0567565364785288,-0.1426906147272728,51.6,25.5,37.2
-978.02734,218.26172,171.875,-0.0444992636746978,0.0460979852695246,-0.0768744231674918,5.1,31.65,40.65,368.65234,69.82422,966.79687,-0.1566799522807829,-0.0479632186411309,0.2279586753334558,49.05,13.95,95.1,-627.92969,103.02734,796.38672,-0.2378176912121213,-0.0642174699649541,-0.1633415249697949,51.6,25.5,37.2
-996.58203,234.86328,163.57422,-0.0035972981212855,0.0335742006889141,0.0033307863445059,5.7,31.95,41.7,376.46484,59.57031,953.61328,-0.0847350370526239,-0.0325085026476463,0.2387503951643871,49.05,13.95,95.1,-626.95312,81.05469,796.38672,-0.2287580361308692,-0.0504946441882235,-0.1273690673557154,50.7,26.4,35.55
-986.81641,229.98047,155.76172,-0.0618192130397887,0.0546247913301429,-0.1117810082073784,5.7,31.95,41.7,350.09766,40.03906,975.58594,-0.1485528266188713,-0.0666155523571943,0.2154348907528452,48.3,12.75,93.3,-619.62891,84.96094,809.57031,-0.1877227274226045,-0.105385947295146,-0.0530260697353161,50.7,26.4,36.6
-969.72656,217.77344,146.97266,-0.0758085505932989,0.0862005900255235,-0.0463644970463041,5.7,32.4,42.3,348.14453,32.71484,927.24609,-0.1524164619840112,-0.0660827033365605,0.2311562930560345,48.0,12.0,92.25,-623.04687,80.07813,776.36719,-0.1680045211323481,-0.1181760691196108,-0.0790061683158777,52.05,25.65,37.05
-978.51562,227.05078,138.67187,-0.1152449631738115,0.0199847180670358,0.0510274932088574,5.1,31.65,41.7,362.79297,32.71484,929.19922,-0.1586783542743164,-0.0654165111610742,0.2133031456044594,48.6,12.75,93.6,-629.88281,75.68359,808.59375,-0.219698381049617,-0.0877993116203503,-0.1299004929028079,51.6,24.3,36.9
-996.58203,212.40234,148.4375,-0.118842261295097,0.10205516095064,0.0293108849250675,5.7,31.65,41.25,341.30859,2.44141,958.00781,-0.1605435876459228,-0.0221164632154217,0.1624088210175291,48.6,12.75,93.6,-630.85937,71.28906,789.55078,-0.2001133433812878,-0.045165455850184,-0.0754088701945922,51.75,24.9,37.65
-1004.88281,187.5,151.36719,-0.1313660458757076,0.0083936374386911,0.039569755735365,5.1,33.0,42.3,338.86719,6.34766,934.57031,-0.1316323831195619,-0.0479632186411309,0.2021117453748213,48.45,11.85,94.8,-645.99609,86.91406,788.57422,-0.2343537362456882,-0.051827028539196,-0.0634181091675407,51.0,25.35,36.6
-1014.16016,199.70703,141.60156,-0.0403691165327784,0.0286446927495813,0.091529778363563,5.1,33.0,42.3,335.9375,5.85937,960.9375,-0.1263031947815224,0.0041301471419193,0.1674716721117143,49.2,12.9,94.8,-624.51172,82.51953,794.92187,-0.2767212547720001,-0.0764747427687851,-0.0474303696204971,51.0,25.35,36.6
-1021.48437,190.42969,151.85547,-0.0230489926347623,-0.0013323843509724,0.0656830229378538,6.6,32.85,41.55,322.75391,15.625,946.28906,-0.1273690673557154,0.0235820161883213,0.1704027780575135,47.55,12.75,93.3,-615.72266,95.70313,771.97266,-0.2498086267720979,-0.0213169278850831,-0.0071944217096458,51.15,24.0,38.25
-1048.82813,204.58984,158.20312,-0.0603538345998143,-0.0046631706954784,0.055823832526263,6.15,31.65,40.95,331.05469,23.92578,938.47656,-0.1293674693492489,0.0210505906412288,0.1797289449155452,48.3,12.75,92.85,-602.53906,88.86719,776.36719,-0.254338454312724,-0.0301102457224809,-0.031309286918601,51.15,25.05,37.95
-1047.85156,222.65625,153.80859,0.0027979373238721,-0.0905972489442224,0.0523598775598298,6.0,32.1,41.55,335.9375,49.80469,931.15234,-0.1091164140383586,0.022382800459276,0.1981147668548291,48.0,11.55,94.05,-597.65625,112.79297,767.08984,-0.2330213518947157,-0.0178529729186499,0.022382800459276,51.6,24.3,36.9
-1039.0625,209.47266,167.96875,0.0486294108166172,-0.041301645952119,0.0667488955120467,4.2,32.1,40.5,344.72656,39.0625,926.26953,-0.0302434143444081,0.0542251109314362,0.191853049097449,48.15,12.15,94.2,-584.47266,124.02344,777.34375,-0.2743231723797599,0.0129234649793172,0.0042633157638465,51.75,23.85,36.6
-1036.13281,216.79687,179.6875,0.005595700114819,-0.0672817445326806,0.025713586803782,4.2,32.1,40.5,379.39453,41.50391,900.87891,-0.0564900247017492,0.1283017713079811,0.1039203943222463,48.15,12.15,94.2,-578.61328,108.88672,771.48437,-0.2820506176429648,0.0822036115055313,-0.0126569532025376,51.45,24.6,37.05
-1000.48828,213.86719,190.91797,0.0482297304179105,-0.143356806902759,0.05475795995207,6.0,31.05,41.1,374.02344,38.08594,895.50781,-0.0977916706538682,0.1121806886060851,0.2202312300702509,48.3,12.75,93.3,-607.91016,98.14453,775.39062,-0.252073540542411,0.0783399761403914,0.0103920394322246,51.9,24.75,37.5
-1001.46484,205.56641,194.33594,0.0546247913301429,-0.1486859952407985,0.0283781809728018,4.95,31.35,41.55,374.51172,22.94922,898.92578,-0.0959264372822619,0.1794624331387657,0.1917197059425967,48.15,11.85,94.8,-605.95703,81.05469,795.89844,-0.2692603212855747,0.0531592383572432,0.0602204914449619,51.9,24.75,37.5
-1013.18359,224.12109,197.75391,0.0151883787496302,-0.10205516095064,0.031309286918601,5.4,31.65,42.75,354.98047,22.94922,922.36328,-0.0169204434993094,0.1546815502872494,0.2082404690431994,47.7,11.85,93.75,-619.14062,94.72656,803.22266,-0.2256937615631427,0.0903307371674429,0.0018652333716063,51.6,25.5,37.95
-982.42187,211.42578,208.98437,0.0755420388165193,-0.1009892883764471,0.0209172474863764,5.7,31.95,42.3,338.37891,19.04297,918.45703,0.020117886688963,0.1338974714228001,0.182926562638124,47.7,11.85,93.75,-620.11719,80.07813,790.52734,-0.2490092659746846,0.1120475199841579,0.0672817445326806,51.6,25.5,37.95
-945.80078,189.45312,208.98437,0.0814042507081179,-0.0891316959713228,0.0219831200605693,5.7,31.95,42.3,332.03125,23.4375,924.80469,-0.0162542513238231,0.1859908372058505,0.2055758748741797,48.6,12.45,93.6,-637.20703,78.61328,798.82812,-0.2496752836172456,0.0873996312216436,0.0762082309920056,52.35,23.25,37.95
-958.49609,198.73047,222.65625,0.0499617951675896,-0.0035972981212855,-0.0187856768709157,4.35,30.45,41.7,339.84375,62.5,937.5,0.0253139064050753,0.1825268822394173,0.2412818207114797,48.45,12.15,94.2,-645.50781,67.87109,824.21875,-0.2403491167592139,0.0723445956268657,0.0414349891069713,49.95,24.15,38.1
-944.82422,196.28906,208.49609,0.1192419416938038,-0.0855343978500373,0.0723445956268657,5.25,30.3,42.15,340.82031,55.66406,976.5625,-0.011191400229638,0.2022450885296737,0.2351530970431016,48.45,12.15,94.2,-640.625,49.80469,821.77734,-0.2784533195216793,0.0253139064050753,0.087532974376496,51.9,24.0,37.5
-983.39844,195.3125,221.67969,0.1093829258151382,-0.025713586803782,-0.0001331686219271,6.3,31.8,42.15,320.3125,42.48047,985.83984,-0.0153215473715574,0.1754656291516987,0.2162342515502586,48.45,12.15,94.2,-625.97656,80.07813,826.66016,-0.2095726788612467,-0.0282450123508746,0.0442327518979182,51.15,25.05,37.2
-989.74609,196.77734,225.58594,0.0955267568835552,0.0972588216332344,0.0363721380127862,6.45,32.7,40.65,333.00781,18.06641,987.30469,-0.05475795995207,0.1205743260447762,0.2175666359012311,47.7,11.4,94.2,-625.97656,71.28906,827.63672,-0.2983046944338628,0.0095926786348112,0.077540615342978,51.45,25.05,37.2
-993.16406,200.19531,213.37891,0.1370949146124538,0.0193185258915496,0.1068515002680456,6.45,32.7,40.65,346.19141,-11.23047,972.65625,0.0170536121212365,0.0778071271197576,0.1991806394290221,49.35,13.2,92.85,-613.76953,72.26563,880.85937,-0.2733904684274942,-0.0551578148837019,0.0391699008037331,52.5,24.6,39.45
-1013.18359,210.9375,194.33594,0.1472204422678988,0.0387702204050264,0.0877993116203503,6.45,32.7,40.65,379.88281,-14.16016,969.23828,0.0411684773301918,0.0149218669728507,0.1785299037194251,48.6,12.45,95.1,-607.42187,71.77734,857.42187,-0.2891118707306834,-0.0530260697353161,0.0787396565390981,52.5,24.6,38.4
-1026.36719,204.58984,217.77344,0.0919296332951949,0.0314426300734534,0.0354394340605204,5.4,30.45,42.3,409.66797,-5.37109,946.77734,0.0643506385868813,0.0369049870334201,0.2439464148804994,48.6,12.45,95.1,-584.47266,25.87891,825.19531,-0.2644639819681691,-0.0828698036810175,0.0515605167624164,52.5,24.6,38.4
-1003.90625,204.58984,210.44922,0.1057856276938527,0.011191400229638,0.0483628990398376,5.1,32.4,42.3,412.10937,-15.625,935.54687,0.023448673033469,0.0943277156874351,0.2206309104689576,49.2,12.15,94.2,-583.98437,59.08203,894.53125,-0.1979815982329019,-0.0226493122360556,0.0688804661275074,51.45,24.6,38.4
-1004.39453,231.44531,222.16797,0.1592113778278755,0.0019984019935335,0.0796723604913639,6.15,31.2,40.95,416.01562,4.88281,933.59375,0.0660827033365605,0.110981647409965,0.182393539084565,49.5,11.85,93.45,-571.77734,51.75781,876.46484,-0.3169572026828514,-0.0238483534321757,0.074209828998472,51.45,24.6,38.4
-1003.90625,244.14062,243.16406,0.093128674491315,0.0169204434993094,0.0588882816269146,5.4,31.65,41.7,413.57422,16.11328,931.64062,0.0768744231674918,0.1397595087814735,0.1702694349026612,48.9,11.4,93.75,-558.10547,44.92188,856.93359,-0.2500749640159523,-0.0086599746825454,0.0823369546603836,51.45,24.6,36.0
-965.33203,242.67578,232.42187,0.0271791397766816,-0.0057288687367461,0.0959264372822619,5.4,31.65,41.7,416.99219,44.43359,933.10547,0.0654165111610742,0.1470872736459717,0.1594777150717298,48.3,12.75,95.1,-560.54687,31.25,868.16406,-0.2182328280767173,-0.0519601971611231,0.1251041535854023,51.9,23.7,37.5
-934.08203,246.58203,228.02734,0.0984578628293545,-0.0337075438437664,0.1601439072472161,6.0,32.1,41.1,422.36328,47.36328,948.24219,0.0194516945134768,0.0851347174513306,0.2227626556173434,48.3,11.25,95.4,-551.26953,46.875,866.21094,-0.2278255067115286,-0.0066615726890119,0.0764747427687851,51.6,25.05,37.5
-964.84375,248.53516,240.23437,-0.0059953805135257,-0.0174532925199432,0.1112481591867445,4.95,31.35,40.8,406.25,31.25,926.75781,0.03064326927604,0.096459460835821,0.195183835441955,48.9,12.15,94.2,-526.85547,56.15234,844.72656,-0.1564134405040034,-0.0001331686219271,0.1072511806667523,51.6,25.05,38.55
-939.45312,225.58594,255.37109,-0.0103920394322246,-0.0794058487145844,0.1299004929028079,6.0,32.1,41.55,416.01562,12.20703,933.10547,0.0171867807431637,0.0246477142295891,0.1257703457608885,48.9,12.15,94.2,-523.92578,62.01172,853.51562,-0.1949173236651755,-0.041301645952119,0.0688804661275074,50.25,24.15,37.35
-924.31641,201.66016,240.72266,0.0828698036810175,-0.0464976656682313,0.13776110678794,5.4,31.95,41.25,431.15234,1.95312,904.29687,0.0570230482553083,0.0155880591483369,0.1608100994227023,48.9,12.6,92.4,-506.83594,58.10547,865.72266,-0.1878560705774568,0.0023980823922402,0.10205516095064,50.1,24.0,37.5
-904.29687,213.37891,259.27734,0.0159877395470436,0.0222496318373489,0.0590214502488418,5.4,31.95,41.25,442.38281,-12.69531,920.41016,0.0483628990398376,0.0692803210591393,0.1783965605645728,49.35,11.55,93.6,-516.60156,47.36328,849.12109,-0.200779535556774,0.0333078634450597,0.091529778363563,50.1,24.0,37.5
-896.97266,222.65625,253.41797,0.050761155965003,0.0764747427687851,0.1425574461053456,4.5,31.8,40.5,420.41016,-3.41797,913.08594,0.0366386497895657,0.0695466583029936,0.1401591891801802,48.9,11.1,94.2,-507.32422,34.66797,844.23828,-0.1554809110846628,0.1313660458757076,0.1420244225517865,51.45,23.85,38.7
-882.8125,259.27734,249.51172,0.0822036115055313,0.0908637607210019,0.1656064387401079,4.65,32.4,42.75,413.57422,19.04297,896.97266,0.0656830229378538,0.059687642424328,0.1990474708070949,48.9,11.1,94.2,-537.10937,47.36328,890.625,-0.166805479936228,0.1235054319905755,0.1191087730718766,51.45,23.85,38.7
-898.92578,274.90234,260.25391,0.0042633157638465,0.1089830708835063,0.1641408857672083,4.05,31.2,41.7,427.24609,20.01953,893.55469,0.0447657754514773,0.0512940049856369,0.1925190667400101,49.35,13.2,93.6,-538.57422,50.78125,876.95312,-0.2195650378947646,0.0900643999235885,0.0892648645932499,51.45,25.65,37.05
-900.87891,262.69531,246.09375,-0.0190520141147701,0.0675482563094601,0.1095160944370653,5.1,32.4,41.25,440.42969,37.59766,928.22266,0.0640843013430269,0.122173047639603,0.1771975193684527,48.0,11.55,94.05,-549.31641,77.63672,839.84375,-0.1532159973143498,0.0924624823158288,0.1175098769441246,51.15,24.75,39.0
-899.41406,271.48437,234.375,0.0370383301882724,0.0516936853843436,0.131099534098928,5.1,32.4,41.25,413.08594,42.96875,956.05469,0.007860613885132,0.1071178375118999,0.1217733672408963,48.0,11.55,94.05,-569.82422,79.10156,855.95703,-0.1945176432664688,0.0041301471419193,0.0795390173365115,51.15,23.25,38.55
-901.36719,281.25,220.21484,-0.0275788201753884,0.1069846688899728,0.0716784034513795,6.15,31.65,40.95,395.99609,47.85156,952.63672,0.0305099261211876,0.1196416220925105,0.158944866051096,47.25,11.55,94.65,-563.96484,83.00781,869.14062,-0.1549478875311037,0.0309096065198943,0.0820704428836041,52.05,24.6,38.1
-922.85156,275.39062,207.03125,-0.0162542513238231,0.0798055291132911,0.0620857248165682,4.5,32.1,41.1,389.64844,48.33984,946.28906,0.0231821612566894,0.0275788201753884,0.1779968801658661,48.15,12.6,94.8,-571.28906,80.07813,868.65234,-0.2022450885296737,0.1069846688899728,0.0763415741468579,49.8,24.3,38.55
-954.10156,289.0625,208.00781,-0.0370383301882724,0.0571562168772355,0.1365620655918199,4.5,31.05,41.55,385.25391,58.59375,951.66016,0.0592879620256213,-0.0197182062902563,0.1496186991930643,49.35,13.5,95.1,-557.61719,75.68359,865.23437,-0.2192987006509103,0.0668820641339739,0.0691469779042869,49.65,25.35,38.1
-947.26562,277.34375,199.70703,-0.0516936853843436,-0.0225161436141284,0.0963261176809686,4.65,33.0,40.65,399.41406,67.38281,957.51953,0.0494287716140306,-0.0695466583029936,0.1393598283827668,49.35,13.5,95.1,-569.82422,73.24219,863.28125,-0.1783965605645728,0.1180429004976836,0.0879326547752027,49.65,25.35,38.1
-918.94531,266.60156,202.14844,-0.0999234158022541,-0.0378376909856858,0.0426340303030914,4.65,33.0,40.65,391.11328,66.89453,942.38281,0.0831363154577971,-0.0762082309920056,0.1376279381660128,49.05,13.2,94.05,-550.78125,39.55078,842.28516,-0.1801286253142519,0.0411684773301918,0.1368284028356742,51.75,25.35,37.65
-897.46094,247.55859,205.07812,-0.0904640803222952,-0.067015232755901,0.075275701572665,4.2,32.1,41.1,401.36719,32.71484,916.01562,0.086467101802303,-0.0698131700797731,0.1406922127337393,48.6,12.45,94.65,-538.57422,30.76172,876.46484,-0.0583552580733556,0.0321086477160144,0.0651499993842947,51.6,25.05,39.0
-889.16016,270.50781,213.37891,-0.1139127533557643,-0.0707458740320389,0.0572893854991626,5.1,32.7,41.25,399.41406,21.97266,885.25391,0.0824701232823108,-0.0576890658978693,0.0920628019171221,49.5,12.6,94.8,-535.64453,25.87891,852.53906,-0.0654165111610742,0.032375159492794,0.0944608843093623,51.0,24.9,38.1
-893.06641,274.90234,214.35547,-0.0867336135790826,-0.0343737360192527,0.0203843984657425,3.0,33.0,41.25,394.04297,39.55078,876.46484,0.1265697065583019,-0.0050628510941851,0.0285115241276541,49.35,11.25,94.65,-551.26953,41.99219,869.14062,-0.0161209081689708,0.0863337586474507,0.1100489434576992,50.25,25.35,38.1
-888.67187,266.11328,207.03125,-0.0366386497895657,-0.0494287716140306,0.064750318985588,3.6,33.45,40.65,395.99609,30.76172,915.52734,0.1113813278086717,0.0231821612566894,0.0531592383572432,48.6,13.5,94.05,-556.64062,47.36328,850.58594,-0.0059953805135257,0.0467641774450108,0.1056524590719255,50.25,25.35,38.1
-900.39062,265.13672,208.98437,-0.0763415741468579,-0.0249142260063686,0.0536922619108023,3.6,33.45,40.65,392.57812,36.13281,940.42969,0.1338974714228001,0.011191400229638,0.0488959225933967,49.05,12.75,94.05,-565.91797,53.71094,865.23437,0.0383705400063197,0.0330413516682802,0.0221164632154217,52.8,24.6,37.35
-928.71094,271.48437,188.96484,-0.1120475199841579,-0.0830031468358699,0.0043966589186989,5.1,31.95,41.7,389.64844,39.0625,952.14844,0.1402925323350325,-0.0115910806283447,0.0401026047559989,49.05,12.75,94.05,-544.43359,43.94531,841.30859,0.0981913510525749,0.0279785005740951,0.0928621627145355,50.55,23.7,38.55
-937.98828,278.32031,182.61719,-0.0494287716140306,-0.0937948666668012,0.1007227765996675,5.4,32.7,42.0,402.34375,41.50391,943.35937,0.1658729505168874,-0.0095926786348112,-0.0142556747973644,49.05,13.95,95.1,-553.71094,63.47656,869.62891,0.1169770279234907,0.068614128883653,0.0114579120064175,50.55,23.7,38.55
-955.07812,270.99609,193.35937,-0.0751423584178126,-0.0980581824306478,0.0159877395470436,4.65,31.65,41.7,413.57422,62.98828,940.91797,0.175731966395553,-0.0015987215948268,-0.0403691165327784,49.8,13.95,94.35,-562.5,46.875,839.84375,0.1782633919426456,0.0229158240128351,0.060753514998521,49.8,25.05,37.95
-963.37891,284.17969,184.08203,-0.1177763887209041,-0.0924624823158288,0.0335742006889141,5.1,33.0,42.3,405.76172,64.94141,947.75391,0.1885222627529431,-0.0215834396618626,-0.0370383301882724,48.6,13.5,92.85,-574.70703,46.38672,824.70703,0.2151683789760657,0.0662158719584876,0.0889985273493956,49.8,25.05,37.95
-983.39844,295.41016,179.6875,-0.0194516945134768,-0.1097826062138449,0.0746095093971788,5.1,33.0,42.3,377.92969,61.52344,922.85156,0.1460214010717788,-0.0337075438437664,-0.0631515973907612,48.6,13.5,92.85,-579.58984,60.54688,814.45312,0.2276921635566762,0.0462311538914518,0.0366386497895657,51.15,24.75,36.9
-999.51172,292.96875,171.38672,-0.0582220894514284,-0.1452220402743654,0.1079173728422385,5.55,32.85,40.8,370.11719,59.08203,903.80859,0.1914533686987423,-0.0235820161883213,-0.0448989440734045,49.2,14.85,94.5,-578.125,56.15234,786.13281,0.2416815011101863,0.0109248884528585,0.0626187483701273,50.85,24.75,38.25
-1000.97656,295.41016,174.31641,-0.1011224569983742,-0.1152449631738115,0.0827366350590903,4.2,32.1,41.1,341.30859,54.19922,924.80469,0.1633415249697949,-0.031309286918601,-0.0816707624848974,48.3,13.95,93.6,-577.14844,85.44922,825.19531,0.2239616968134635,0.0311761182966739,0.0672817445326806,50.85,24.3,39.0
-1000.0,323.24219,161.13281,-0.1337641282679478,-0.2079739572664199,0.1598775700033617,5.25,33.6,41.55,349.12109,63.96484,929.19922,0.1421577657066389,0.0375711792089063,-0.1217733672408963,48.45,12.9,94.8,-595.21484,100.09766,783.20312,0.1811944978884449,0.0309096065198943,0.1292343007273217,51.15,24.75,37.95
-992.1875,344.72656,157.22656,-0.1239051123892822,-0.1903874961245494,0.1779968801658661,5.25,33.6,41.55,337.89062,78.61328,939.94141,0.1469541050240445,0.0217166082837898,-0.1237717692344298,48.45,12.9,94.8,-609.375,118.16406,815.42969,0.210771894590292,0.0409019655534123,0.073676805444913,50.55,25.05,38.55
-989.74609,335.9375,151.85547,-0.2222296320637844,-0.1572128013014168,0.1725345232058994,5.25,33.6,41.55,329.10156,78.61328,934.08203,0.1448223598756587,0.0030642745677264,-0.0981913510525749,47.25,12.45,94.35,-645.50781,115.72266,775.87891,0.1021883295725672,0.0018652333716063,0.0961929490590414,50.55,24.75,37.2
-970.70312,329.10156,134.76562,-0.2647304937449487,-0.1269693869570086,0.1634746935917221,4.65,32.4,42.3,325.19531,121.58203,941.89453,0.1248376418086228,0.0017320647496791,-0.0756753819713717,48.6,13.95,94.35,-636.23047,143.06641,822.26562,0.1875895588006773,0.0163874199457503,0.0622190679714206,50.55,24.75,37.2
-972.16797,319.33594,156.25,-0.2258269301850698,-0.1604104190239956,0.1733338840033128,5.25,33.3,42.6,340.33203,108.39844,967.28516,0.0909969293429291,-0.0138559943986577,-0.0800720408900706,49.35,12.75,95.1,-658.69141,146.48437,816.89453,0.1594777150717298,-0.0155880591483369,0.0977916706538682,51.45,24.9,38.7
-964.35547,313.47656,157.71484,-0.3101622868389871,-0.1939846197129097,0.1388269793621329,5.4,32.4,41.7,349.60937,102.05078,979.00391,0.1104486238564059,-0.063684446411395,-0.0410353087082646,49.35,12.75,95.1,-627.44141,121.58203,820.3125,0.1938514510909826,-0.0198513749121835,0.1637412053685016,51.45,24.9,38.7
-974.12109,306.64062,154.78516,-0.2765880861500729,-0.1329647674705344,0.0909969293429291,5.4,32.4,41.7,347.16797,103.02734,981.44531,0.1265697065583019,-0.0983246942074273,-0.0405022851547056,48.9,14.4,93.75,-637.20703,124.02344,787.10937,0.1882557509761635,-0.0053291883380394,0.0325085026476463,51.75,25.35,38.1
-984.86328,319.33594,153.32031,-0.1959831962393684,-0.1802617939361791,0.082603291904238,5.4,32.4,41.7,336.91406,107.42188,971.67969,0.1625421641723815,-0.0854012292281101,-0.0799386977352182,49.05,12.75,93.6,-613.76953,98.63281,803.22266,0.250474644414659,0.0293108849250675,0.0772741035661985,50.85,26.25,37.2
-984.86328,329.58984,133.30078,-0.2644639819681691,-0.1329647674705344,0.0299770771005538,4.95,34.05,41.55,315.91797,84.47266,944.82422,0.1369617459905266,-0.0386370517830992,-0.0095926786348112,49.35,12.75,94.05,-638.18359,88.37891,820.3125,0.2969724846158156,0.0143890179522168,0.0739433172216925,50.55,26.25,39.0
-1014.16016,332.03125,138.18359,-0.2602006662043226,-0.0976585020319411,0.0263797789792682,3.75,33.3,41.55,306.15234,84.47266,966.30859,0.1129800494034985,0.0002665117767795,-0.1072511806667523,49.35,12.75,94.05,-647.46094,69.33594,805.17578,0.3028345219744889,-0.0090596550812521,0.0873996312216436,50.55,25.8,37.95
-1002.92969,340.82031,128.90625,-0.24487894429984,-0.2757887253526596,0.0522267089379027,5.25,33.3,43.95,327.63672,83.00781,979.49219,0.1273690673557154,0.0385038831611721,-0.103787051167394,47.7,13.35,94.2,-622.07031,64.94141,807.61719,0.4035574731070817,0.0241148652089552,0.0885988469506889,50.85,25.5,38.55
-990.72266,319.82422,136.71875,-0.3098959495951328,-0.210771894590292,0.0664823837352672,3.45,33.6,42.9,322.75391,71.28906,989.25781,0.1416247421530798,0.0419678381276052,-0.1216401986189692,48.3,13.95,94.65,-656.25,50.29297,790.03906,0.3964962200193629,-0.0042633157638465,0.0327748398915007,49.95,26.1,37.65
-998.53516,353.51562,143.55469,-0.3586585290336772,-0.2290245479076487,0.011191400229638,3.45,33.6,42.9,318.84766,41.50391,970.21484,0.1468207618691921,-0.0322419908708668,-0.146687593247265,48.3,13.95,94.65,-643.55469,0.97656,792.96875,0.4471240328295137,0.0089264864593249,0.0361056262360067,49.95,26.1,37.65
-987.30469,362.79297,145.50781,-0.2771209351707068,-0.2919096335216304,0.1023216727274195,3.75,34.05,43.65,320.3125,42.48047,957.51953,0.1685375446859072,-0.0349065850398865,-0.2347534166443949,48.6,13.2,93.3,-639.16016,16.11328,824.70703,0.491356784727432,0.0017320647496791,0.0043966589186989,51.0,24.9,36.6
-935.05859,362.30469,171.38672,-0.4246080637483105,-0.358125505480118,0.0924624823158288,5.4,33.0,42.75,327.63672,43.94531,957.51953,0.1524164619840112,-0.0333078634450597,-0.2288912047527963,49.95,13.65,95.25,-618.16406,7.8125,794.43359,0.4456584798566141,-0.020117886688963,-0.0102588708102974,51.0,24.9,36.6
-888.18359,341.79687,200.68359,-0.4535190937417461,-0.4094196849986802,0.0520933657830503,4.95,34.8,42.15,335.44922,37.59766,940.42969,0.1564134405040034,-0.0261132672024887,-0.3158913301086585,49.05,13.5,94.05,-606.44531,38.08594,814.94141,0.5041470810848221,0.0381042027624654,-0.0595542992694757,51.0,24.9,36.6
-865.72266,343.26172,229.98047,-0.3735803960065278,-0.3751791176013546,0.1416247421530798,4.2,34.35,43.95,340.82031,50.29297,947.26562,0.0839356762552105,-0.0129234649793172,-0.3618559722233307,49.05,13.5,94.05,-601.07422,60.54688,785.64453,0.4669755822746224,0.0191853572696224,-0.0945942274642146,51.75,26.7,37.05
-865.72266,317.87109,251.46484,-0.4637779645520436,-0.3706492900607286,0.1211071750654101,4.2,34.35,43.95,346.67969,71.28906,941.89453,0.1396263401595463,-0.0205175670876697,-0.343603318905974,49.2,14.85,94.2,-576.66016,75.68359,814.45312,0.4555176702682049,0.0213169278850831,-0.0891316959713228,50.7,26.4,37.05
-861.81641,305.17578,272.46094,-0.4379310345934092,-0.3276155793589304,0.0616860444178615,6.45,34.95,43.35,370.60547,95.70313,937.98828,0.1350965126189202,-0.0049295079393327,-0.3717151626349215,49.05,13.95,92.55,-585.44922,130.85937,814.94141,0.4617795625585101,0.032908183046353,-0.0927289940926083,52.8,26.4,36.0
-834.96094,284.66797,298.33984,-0.3557274230878778,-0.325750345987324,0.0778071271197576,5.7,35.25,43.05,394.04297,106.93359,931.64062,0.0791393369378048,-0.0363721380127862,-0.384238947215532,48.9,14.85,93.45,-590.33203,132.8125,798.33984,0.3924992414993708,0.0179861415405771,-0.1075176924435318,50.7,26.7,37.35
-816.40625,283.69141,309.08203,-0.3511975955472518,-0.334010814804088,0.0571562168772355,6.0,33.3,44.25,390.625,109.86328,918.94531,0.0850015488294034,0.0033307863445059,-0.3972955808167764,49.5,14.4,94.2,-592.28516,144.53125,780.76172,0.3382741305679345,-0.0197182062902563,-0.134430320443434,51.45,26.4,36.3
-793.94531,273.4375,312.98828,-0.3899678159522782,-0.3241516243924973,0.0490290912153239,4.65,33.75,43.35,349.12109,121.09375,872.55859,0.054091942309509,-0.0026645941690197,-0.3759784783987681,48.9,15.15,93.75,-593.75,150.87891,721.19141,0.2867136138055181,-0.1314992144976347,-0.1055191159170731,51.45,26.1,37.05
-780.76172,267.08984,336.91406,-0.2435467344817927,-0.3547948936685373,0.0735436368229858,4.65,33.75,43.35,353.02734,121.58203,859.86328,0.0679479367081668,-0.0436999028772844,-0.357459487837557,49.05,13.95,93.6,-598.14453,168.45703,777.34375,0.3080307162235264,-0.1565467836588557,-0.0909969293429291,51.45,26.1,37.05
-865.23437,274.90234,342.28516,-0.161209779821409,-0.2304901008805483,0.0992572236267679,4.95,34.05,45.0,364.74609,130.37109,866.69922,0.107650861065459,0.0298437339457014,-0.4625789233559235,49.05,13.95,93.6,-597.65625,179.6875,835.9375,0.3292143009537572,-0.1047197551196597,-0.0877993116203503,50.55,25.05,37.2
-981.44531,285.15625,331.05469,-0.1104486238564059,-0.0169204434993094,0.045165455850184,4.05,35.25,45.45,370.11719,115.23438,951.17187,0.0822036115055313,0.1472204422678988,-0.4272726579173302,49.35,15.45,93.6,-605.95703,183.59375,876.46484,0.3394731717640546,-0.1148452827751048,-0.0446324322966249,50.25,27.45,36.6
-1094.23828,307.12891,367.1875,0.0135896571548034,-0.0932618431132422,0.0667488955120467,5.55,34.8,45.0,363.76953,97.16797,1024.90234,0.1196416220925105,0.0815375938629702,-0.4838958512410067,50.25,13.65,91.65,-606.93359,190.91797,798.33984,0.3478668092027458,-0.0535589187559499,-0.0526263893366094,49.95,27.15,37.35
-1106.93359,285.15625,356.93359,0.0422343499043847,0.013456313999951,0.0851347174513306,5.55,33.6,43.65,366.21094,97.65625,987.79297,0.1072511806667523,0.0127901218244648,-0.4491224348230472,50.1,15.45,92.85,-598.63281,186.52344,782.71484,0.3771776941278134,-0.1100489434576992,-0.0583552580733556,50.85,27.75,37.2
-1034.17969,306.64062,329.58984,0.0427671989250186,0.2126371279618983,0.0011990411961201,5.55,33.6,43.65,341.30859,118.65234,936.52344,0.1461547442266311,0.0067947413109391,-0.4617795625585101,50.1,15.45,92.85,-587.40234,206.05469,814.45312,0.3320122382776293,-0.0476967068643514,-0.0474303696204971,49.35,27.3,36.45
-1004.39453,340.82031,347.16797,0.1585451856523893,0.3585251858788247,0.0807380585326316,5.25,35.1,44.7,341.30859,151.85547,919.92187,0.1044532433428802,0.0143890179522168,-0.4648438371262365,49.35,14.7,94.05,-587.40234,200.68359,765.13672,0.3062986514738472,-0.0700796818565527,-0.077540615342978,50.25,27.45,37.35
-1003.41797,374.02344,331.54297,0.1193751103157309,0.2416815011101863,0.1075176924435318,5.7,34.95,45.15,353.51562,168.45703,918.45703,0.0896645449919567,0.0414349891069713,-0.4063552358980286,50.85,13.95,93.6,-582.51953,202.14844,796.875,0.2669954075152617,-0.0050628510941851,-0.0297105653237742,50.25,27.45,37.35
-922.36328,353.02734,295.89844,0.0771409349442713,0.2592679622520568,0.0551578148837019,5.7,36.0,44.1,365.23437,199.21875,903.32031,0.0548913031069224,0.0622190679714206,-0.3825068824658528,50.85,13.95,93.6,-614.74609,227.53906,790.52734,0.2296907400831349,-0.0353062654385932,-0.059154618870769,49.95,26.4,37.35
-899.90234,348.63281,294.92187,0.1480199775982374,0.3096294378183532,-0.0006661921754862,5.4,35.7,44.1,337.40234,205.56641,894.53125,-0.0117244237831971,0.0935283548900217,-0.3274824107370032,49.2,12.9,93.75,-607.91016,236.81641,789.0625,0.1285681085518354,-0.0917962901403425,-0.0337075438437664,49.95,26.4,37.35
-926.26953,369.62891,287.10937,0.1039203943222463,0.3061653083189948,-0.0118575924051242,5.4,35.7,44.1,320.80078,240.23437,920.41016,-0.023981696587028,0.1803951370910315,-0.2623322368197833,48.6,14.25,94.35,-587.40234,224.60937,816.89453,0.1131133925583509,-0.0984578628293545,-0.0514271736075641,51.6,25.8,36.45
-941.40625,361.81641,291.01562,0.0664823837352672,0.3020351611770755,-0.1032542021467601,5.4,34.2,42.3,328.61328,204.10156,947.75391,-0.0712787230526728,0.1473537854227512,-0.2300904204818416,50.7,14.1,93.45,-558.10547,214.35547,808.10547,0.0631515973907612,-0.04849624219469,-0.0359724576140795,50.7,27.15,37.35
-950.19531,362.79297,279.78516,0.0488959225933967,0.2327550146508613,-0.1103154552344788,4.5,34.8,43.95,342.77344,202.63672,924.80469,-0.0933951862680945,0.0796723604913639,-0.2218299516650776,50.7,14.1,93.45,-544.43359,208.98437,834.96094,0.0207840788644492,-0.0091929982361045,-0.091529778363563,51.15,27.0,37.5
-953.61328,352.53906,272.46094,0.0030642745677264,0.2290245479076487,-0.0727442760255724,5.4,35.7,43.8,384.76562,171.38672,941.40625,-0.0959264372822619,-0.0205175670876697,-0.2123706161851188,50.7,14.1,93.45,-541.01562,187.98828,839.84375,0.0003996803987067,-0.0126569532025376,-0.0622190679714206,50.1,27.75,37.2
-927.24609,363.28125,290.03906,-0.1248376418086228,0.1493521874162847,-0.123238920213796,5.25,34.35,43.65,409.17969,164.0625,912.10937,-0.080871401687484,-0.0357059458372999,-0.2094395102393195,50.1,13.95,92.55,-541.50391,147.46094,827.63672,-0.0303767574992605,0.0171867807431637,-0.0575558972759422,50.55,27.0,36.15
-902.34375,330.07812,280.27344,-0.1364287224369675,0.1474869540446784,-0.1750657742200668,5.25,34.35,43.65,420.89844,125.48828,915.03906,-0.1047197551196597,-0.0062618922903052,-0.1973154060574157,50.25,13.35,94.2,-529.78516,169.92187,817.38281,0.0267794593779749,0.0658161915597809,-0.071944915228159,50.55,26.25,37.2
-889.64844,294.43359,277.34375,-0.1322985752950481,0.1176432200989769,-0.1684043760639801,4.95,35.55,44.7,401.85547,118.65234,882.32422,-0.0919296332951949,-0.0029311059457992,-0.1989143021851677,50.7,14.1,93.45,-538.57422,189.94141,867.67578,0.0704793622552594,0.0066615726890119,-0.0087933178373978,50.55,26.25,37.2
-849.60937,259.76562,272.46094,-0.1644073975439878,0.032908183046353,-0.2255604184082903,4.05,34.2,43.05,412.59766,130.85937,895.01953,-0.071944915228159,-0.0394364125805126,-0.1831928998819784,49.35,14.25,94.65,-544.92187,181.64062,848.63281,0.0935283548900217,0.011191400229638,-0.0471638578437175,50.55,26.25,37.2
-841.79687,239.25781,283.20312,-0.1392266597608396,0.0896645449919567,-0.2935083551164572,5.25,33.3,45.3,428.71094,127.92969,926.75781,-0.0218499514386422,-0.06634921511334,-0.1641408857672083,49.95,14.1,92.7,-537.59766,228.51562,848.63281,0.0924624823158288,0.025713586803782,-0.0247810573844414,51.75,27.15,37.05
-864.25781,220.70312,267.57812,-0.0438330714992115,0.0434333911005048,-0.2753890449539529,4.95,35.1,44.7,422.36328,159.66797,918.94531,0.0039969785199922,-0.0564900247017492,-0.1217733672408963,49.2,14.1,93.15,-536.13281,215.33203,869.14062,0.029044373148288,-0.0005328490206338,-0.0309096065198943,51.75,27.15,37.05
-873.04687,223.63281,267.57812,-0.1334976164911682,0.0877993116203503,-0.2893782079745378,4.95,35.1,44.7,398.92578,169.43359,949.21875,-0.0065284040670847,-0.0331745202902074,-0.1271025555789358,49.2,14.1,93.15,-532.71484,241.21094,875.97656,0.0322419908708668,0.0123904414257581,-0.0278453319521679,49.65,26.1,36.6
-900.87891,215.82031,274.41406,-0.0710122112758932,0.1484196579969441,-0.2412818207114797,4.95,34.35,43.65,410.15625,184.08203,928.71094,0.0121241041819038,-0.0548913031069224,-0.0795390173365115,50.7,12.9,92.4,-527.34375,245.60547,870.11719,0.0165205885676775,-0.0407687969314851,0.0011990411961201,51.15,26.55,36.15
-916.99219,226.07422,256.34766,-0.0452986244721112,0.0511608363637097,-0.1593445464498027,5.25,34.35,43.95,431.64062,182.12891,950.68359,0.0370383301882724,-0.0598208110462552,-0.1039203943222463,51.15,13.5,93.6,-519.04297,266.11328,876.95312,0.0014655529728996,-0.0275788201753884,-0.0110582316077108,49.8,26.25,37.5
-893.55469,241.69922,281.73828,-0.0944608843093623,0.0358392889921523,-0.1200413024912172,5.1,34.95,44.4,426.75781,194.82422,930.66406,0.0249142260063686,-0.0767412545455646,-0.0079939570399844,51.6,12.45,93.3,-504.39453,256.34766,855.46875,-0.0269126279999021,-0.0675482563094601,0.0153215473715574,50.25,26.1,37.35
-891.60156,221.67969,267.57812,-0.0883323351739094,0.0444992636746978,-0.1498852109698438,5.1,35.25,43.35,421.875,206.05469,896.97266,-0.0062618922903052,-0.0911300979648563,0.023981696587028,51.6,12.45,93.3,-479.00391,255.37109,842.28516,-0.1376279381660128,-0.0499617951675896,-0.036238969390859,50.85,26.55,37.2
-886.71875,210.44922,270.99609,-0.0891316959713228,-0.0007993607974134,-0.1204409828899239,5.1,35.25,43.35,430.66406,218.75,866.21094,-0.046897346066938,-0.1083170532409452,0.0586217698501351,51.0,12.9,93.15,-469.23828,250.0,853.02734,-0.1520167815853045,-0.0221164632154217,0.0203843984657425,51.15,27.75,37.5
-874.51172,210.9375,279.78516,-0.0919296332951949,0.0389035635598788,0.0029311059457992,5.1,35.25,43.35,465.82031,184.08203,861.81641,-0.0754088701945922,-0.061419532641082,0.1097826062138449,48.9,14.1,93.75,-492.1875,236.32812,844.72656,-0.2560705190624032,0.0049295079393327,-0.0321086477160144,51.15,27.75,37.5
-883.30078,199.21875,266.60156,-0.1007227765996675,0.0371714988101996,-0.0556906639043358,4.65,34.2,44.1,451.17187,182.12891,898.92578,-0.1169770279234907,-0.0678147680862396,0.1481531462201646,51.3,13.65,93.45,-477.53906,210.44922,833.49609,-0.2430137109282336,0.0387702204050264,-0.0126569532025376,50.1,27.3,37.2
-862.30469,198.24219,265.625,-0.071944915228159,-0.0081271256619115,0.0357059458372999,4.2,34.35,42.9,461.91406,178.22266,862.79297,-0.1116478395854512,-0.0514271736075641,0.1758653095504054,50.85,13.95,92.85,-484.86328,195.80078,856.44531,-0.2246278889889497,-0.0037304667432126,-0.0091929982361045,50.1,27.3,37.2
-881.34766,211.91406,270.99609,-0.0631515973907612,0.0014655529728996,-0.0007993607974134,4.65,34.95,43.35,425.78125,151.36719,855.46875,-0.1091164140383586,-0.064750318985588,0.2657963663191416,50.4,12.75,92.55,-504.88281,159.17969,844.23828,-0.2038438101245005,0.0667488955120467,-0.041301645952119,50.7,26.4,38.1
-890.13672,235.83984,268.55469,-0.0740764858436197,0.0137228257767306,-0.0295773967018471,5.1,34.95,43.8,417.96875,133.78906,907.71484,-0.1263031947815224,-0.0514271736075641,0.2142358495567251,50.7,12.9,92.4,-510.25391,170.89844,884.76562,-0.1633415249697949,0.0270459711547545,-0.0195850376683291,51.0,25.65,37.65
-895.50781,234.375,259.27734,-0.0671485759107534,-0.0350397536618137,0.0534257501340228,5.1,34.95,43.8,424.31641,116.21094,927.24609,-0.0881991665519822,-0.0716784034513795,0.229290885151503,50.7,12.9,92.4,-522.94922,157.22656,864.25781,-0.1945176432664688,0.0619525561946411,-0.0107917198309313,51.75,26.7,37.05
-881.34766,221.67969,259.27734,-0.077540615342978,-0.0772741035661985,0.0458314734927451,5.1,33.75,43.05,418.94531,101.07422,941.89453,-0.0852680606061829,0.0051960197161123,0.2499417953940251,50.85,12.75,93.6,-514.64844,137.69531,874.02344,-0.1521501247401568,0.0050628510941851,-0.0532925815120956,51.75,27.15,36.6
-887.20703,191.89453,253.41797,-0.1381607871866467,-0.0294440535469947,-0.0043966589186989,4.95,35.55,44.7,395.01953,86.91406,961.42578,-0.0193185258915496,0.0069280844657914,0.229290885151503,49.2,13.35,93.45,-526.36719,141.60156,853.51562,-0.2500749640159523,0.0343737360192527,-0.0358392889921523,51.75,26.4,38.7
-903.80859,203.61328,250.0,-0.0707458740320389,-0.0330413516682802,0.0595542992694757,4.95,33.3,44.7,394.53125,104.98047,939.45312,-0.0398360929792193,-0.0447657754514773,0.3361423854195487,48.45,14.85,94.2,-563.96484,146.97266,842.28516,-0.2371516735695603,0.0185191650941362,-0.045165455850184,50.55,27.3,36.45
-911.62109,220.21484,250.48828,-0.0528927265804637,-0.070346019100407,0.0634181091675407,6.0,33.3,45.0,387.69531,134.27734,945.3125,-0.0528927265804637,0.0019984019935335,0.2733904684274942,49.35,13.5,94.05,-573.24219,140.13672,833.49609,-0.3193552850750916,0.0642174699649541,-0.1256370026060362,50.55,27.3,36.45
