IMU1_AccX,IMU1_AccY,IMU1_AccZ,IMU1_GyrX,IMU1_GyrY,IMU1_GyrZ,IMU1_MagX,IMU1_MagY,IMU1_MagZ,IMU2_AccX,IMU2_AccY,IMU2_AccZ,IMU2_GyrX,IMU2_GyrY,IMU2_GyrZ,IMU2_MagX,IMU2_MagY,IMU2_MagZ,IMU3_AccX,IMU3_AccY,IMU3_AccZ,IMU3_GyrX,IMU3_GyrY,IMU3_GyrZ,IMU3_MagX,IMU3_MagY,IMU3_MagZ
-1008.78906,305.17578,126.46484,-0.0089264864593249,0.0073277648644981,-0.0162542513238231,2.7,33.6,39.75,431.64062,145.01953,942.87109,-0.0483628990398376,0.1629418445710882,0.0937948666668012,45.9,15.15,93.75,-587.40234,137.69531,812.5,-0.1582786738756097,0.0863337586474507,0.0602204914449619,49.8,25.8,38.25
-1000.48828,325.19531,118.65234,0.0556906639043358,-0.0520933657830503,0.0246477142295891,2.7,35.85,39.0,386.71875,183.59375,918.94531,-0.0446324322966249,0.1365620655918199,0.158944866051096,44.85,14.4,93.15,-582.03125,129.39453,857.91016,-0.1662726309155942,0.0907304175661496,-0.0062618922903052,49.95,24.6,40.5
-1010.25391,327.14844,120.60547,0.0632847660126884,-0.0836691644784309,0.0667488955120467,2.7,35.85,39.0,406.25,166.01562,895.50781,-0.0382373713843925,0.0763415741468579,0.1357627047944065,44.85,14.4,93.15,-583.49609,107.42188,832.51953,-0.1596110582265822,0.1317657262744143,0.0070612530877186,50.1,25.5,37.95
-999.02344,325.68359,127.92969,0.0375711792089063,-0.0622190679714206,-0.0130566336012443,2.7,35.85,39.0,393.55469,148.4375,884.76562,0.0053291883380394,0.0370383301882724,0.1995803198277287,43.8,14.85,94.5,-549.80469,66.89453,839.35547,-0.1529494855375703,0.1333644478692411,0.0082602942838387,50.1,24.0,40.35
-988.28125,335.44922,137.20703,0.0747426780191059,-0.1003230962009608,0.0011990411961201,4.05,34.2,39.15,414.55078,122.07031,870.60547,-0.0876661429984231,0.0250473946282958,0.1649402465646217,45.75,14.25,93.6,-550.78125,60.05859,826.17187,-0.0798055291132911,0.0997902471803269,-0.0129234649793172,50.1,24.0,40.35
-950.19531,341.79687,147.46094,0.0131899767560967,-0.1580123366317554,-0.0275788201753884,2.25,34.95,39.15,403.80859,75.68359,878.90625,-0.0195850376683291,0.0472970264656447,0.0658161915597809,45.75,14.25,93.6,-555.66406,30.27344,803.71094,-0.016787100344457,0.0618192130397887,-0.0237151848102485,50.25,24.9,38.7
-923.82812,321.77734,157.22656,-0.0366386497895657,-0.1017886491738605,-0.0496952833908101,3.3,34.5,39.9,408.20312,35.64453,899.41406,0.0218499514386422,-0.0169204434993094,0.0888651841945432,45.6,15.9,94.2,-568.84766,18.55469,836.42578,-0.0042633157638465,0.0700796818565527,0.0021317451483858,50.85,25.5,38.55
-906.25,309.08203,150.39062,0.0361056262360067,-0.157878993476903,-0.0307764378979672,3.3,34.5,39.9,400.87891,17.57813,897.94922,0.0488959225933967,-0.0001331686219271,0.0399694361340717,44.1,14.1,93.45,-571.77734,26.36719,840.82031,0.0551578148837019,0.0917962901403425,0.0334410320669869,50.85,25.5,38.55
-898.92578,277.34375,154.29687,0.0487625794385443,-0.1405590441118121,-0.0924624823158288,3.0,34.2,38.1,397.94922,38.08594,930.17578,0.0694134896810664,0.0446324322966249,-0.0043966589186989,46.65,14.4,94.5,-590.33203,37.59766,850.58594,0.0338407124656936,0.064750318985588,0.0421010067495324,50.25,24.9,38.1
-929.6875,270.99609,141.60156,0.0081271256619115,-0.0920628019171221,-0.1717349878755608,3.6,34.5,39.15,403.80859,66.40625,959.47266,0.0832694840797242,0.0483628990398376,-0.0519601971611231,46.65,14.4,94.5,-589.35547,61.52344,840.82031,0.0407687969314851,0.0171867807431637,0.0464976656682313,50.25,24.9,38.1
-904.78516,279.29687,145.01953,0.057422728654015,-0.0718115720733066,-0.1160443239712249,3.15,35.55,39.75,407.71484,84.47266,950.19531,0.1251041535854023,0.0615528757959344,-0.0538254305327295,45.15,15.6,92.4,-588.86719,53.22266,819.82422,0.0666155523571943,0.0423675185263119,0.0367718184114929,49.35,24.75,39.6
-908.20312,279.78516,126.46484,0.1263031947815224,-0.0616860444178615,-0.0667488955120467,2.25,34.95,41.7,400.39062,93.75,934.57031,0.1458882324498516,0.0353062654385932,-0.0575558972759422,46.2,13.5,92.4,-591.30859,53.22266,816.89453,0.1361623851931132,0.0339738810876208,0.0619525561946411,49.95,25.35,39.45
-945.3125,300.29297,122.07031,0.1184425808963904,-0.0162542513238231,-0.1047197551196597,2.25,34.95,41.7,390.13672,84.96094,927.24609,0.096459460835821,-0.0559571756811154,-0.0818039311068246,45.6,14.4,94.05,-606.93359,28.32031,812.5,0.1586783542743164,0.0286446927495813,0.0706125308771865,51.15,25.5,38.55
-967.28516,295.89844,109.375,0.036238969390859,0.0672817445326806,-0.0415681577288985,2.4,34.8,41.1,368.65234,71.77734,875.97656,0.1325650870718277,-0.0632847660126884,-0.1108484787880378,45.6,14.4,95.25,-601.07422,41.01563,806.15234,0.2023782571516009,-0.0030642745677264,0.0119907610270514,49.95,25.65,38.7
-954.10156,315.91797,111.81641,0.1068515002680456,-0.0251807377831481,-0.0026645941690197,3.45,34.35,40.5,383.78906,62.98828,866.21094,0.1318988948963414,-0.0447657754514773,-0.1448223598756587,44.55,14.4,93.75,-592.28516,46.38672,795.89844,0.1353630243956998,-0.0062618922903052,0.0215834396618626,50.7,25.65,39.9
-959.96094,306.64062,107.42188,0.0307764378979672,0.0251807377831481,0.0375711792089063,3.45,34.35,39.75,391.11328,79.10156,879.39453,0.1349631694640679,0.0325085026476463,-0.1481531462201646,44.55,14.85,93.75,-591.30859,78.61328,824.21875,0.1566799522807829,-0.0373046674321268,0.0511608363637097,51.45,26.1,38.1
-943.84766,306.15234,111.81641,0.005595700114819,0.0175864611418704,0.0181194846954295,2.25,33.75,41.7,374.02344,77.14844,910.15625,0.0957932686603347,-0.0083936374386911,-0.1514839325646706,45.9,14.85,93.45,-587.40234,75.68359,789.55078,0.1345634890653612,-0.0003996803987067,0.0090596550812521,51.45,26.1,38.1
-933.59375,300.29297,116.69922,0.0025314255470925,-0.0053291883380394,0.0868667822010097,2.25,33.75,41.7,378.90625,87.40234,909.17969,0.1172435397002702,-0.0053291883380394,-0.1161776671260773,45.9,14.85,93.45,-606.44531,78.125,845.70312,0.1610766111994818,-0.0286446927495813,0.0299770771005538,50.25,24.6,39.15
-947.75391,285.64453,110.83984,-0.0405022851547056,0.0423675185263119,-0.0050628510941851,4.2,34.8,39.45,373.53516,89.35547,937.5,0.0552909835056291,0.0029311059457992,-0.1525498051388636,46.35,14.85,93.75,-614.74609,96.67969,809.08203,0.1252373222073295,-0.074209828998472,0.0608866836204481,50.25,24.6,39.15
-943.84766,283.20312,116.21094,-0.0347734164179594,0.0466310088230837,-0.0198513749121835,2.55,36.0,39.9,395.01953,107.42188,939.45312,0.0852680606061829,-0.0881991665519822,-0.11990813386929,44.85,14.85,92.7,-613.76953,98.14453,849.12109,0.1762649899491121,-0.0454317930940384,0.0182526533173567,49.8,25.8,39.0
-947.26562,298.33984,109.86328,-0.0007993607974134,-0.0014655529728996,0.0790061683158777,4.05,33.45,39.6,413.08594,127.44141,935.05859,0.0374380105869791,-0.0951270764848485,-0.1889219431516497,45.9,15.15,94.2,-595.70312,112.79297,844.23828,0.1682710329091277,-0.057422728654015,0.0046631706954784,49.8,26.55,38.25
-947.75391,298.82812,126.95313,-0.0385038831611721,0.0520933657830503,0.0195850376683291,2.55,36.0,39.9,436.52344,122.07031,937.5,0.0587549384720623,-0.1662726309155942,-0.1293674693492489,45.9,15.15,94.2,-588.37891,91.79688,854.49219,0.2059755552728863,-0.049162259837251,0.0495619402359577,49.05,26.25,39.6
-931.64062,289.0625,131.83594,-0.0074609334864253,0.0519601971611231,0.0087933178373978,2.55,36.0,39.9,425.29297,107.91016,914.0625,0.0774072721881257,-0.1183094122744632,-0.1061853080925594,45.45,15.0,93.3,-587.40234,88.37891,848.63281,0.2631317721501219,-0.0430337107017981,0.0230489926347623,51.15,25.8,37.95
-936.52344,304.19922,122.07031,0.0159877395470436,0.0520933657830503,0.0275788201753884,2.55,36.0,39.9,432.61719,103.51563,926.75781,0.070346019100407,-0.0763415741468579,-0.1441561677001724,44.85,14.85,93.75,-569.33594,77.63672,827.63672,0.210771894590292,0.0162542513238231,0.0082602942838387,48.15,26.4,38.7
-964.84375,312.01172,122.55859,-0.0099923590335179,0.1015221373970809,0.0098591904115907,4.05,33.6,40.8,428.22266,100.09766,935.54687,0.0804717212887773,-0.1075176924435318,-0.1332312792473139,45.0,15.45,94.05,-576.17187,77.14844,868.16406,0.2875129746029314,-0.0197182062902563,0.0422343499043847,50.85,26.25,39.0
-989.25781,310.54687,117.67578,0.0618192130397887,0.0095926786348112,0.0049295079393327,1.8,34.95,39.6,432.12891,88.86719,927.73437,0.1197749652473628,-0.0301102457224809,-0.1802617939361791,47.4,15.9,94.2,-584.47266,59.57031,837.40234,0.2951072512442092,0.023448673033469,0.0123904414257581,50.85,26.25,39.0
-1019.04297,323.73047,116.69922,0.0229158240128351,0.0602204914449619,-0.040235773377926,4.2,36.15,40.5,434.08203,92.28516,931.64062,0.1348300008421407,-0.0157212277702641,-0.1981147668548291,46.65,15.15,92.7,-575.68359,60.54688,835.44922,0.315624818331879,0.0058622118915985,-0.040235773377926,49.95,25.65,38.7
-1014.16016,321.28906,114.74609,0.0227824808579827,0.0173201238980161,-0.0267794593779749,4.2,36.15,40.5,418.94531,99.60938,935.54687,0.1318988948963414,-0.0143890179522168,-0.2426140305295269,45.75,13.5,93.3,-587.40234,71.28906,840.82031,0.380908160871026,0.0285115241276541,-0.0245145456076619,50.55,27.3,39.0
-1010.25391,346.67969,110.35156,0.0644839817417337,-0.0516936853843436,0.0242480338308824,4.2,36.15,40.5,398.92578,92.77344,947.75391,0.1152449631738115,0.0480965617959833,-0.2812510823126262,45.75,13.5,93.3,-593.26172,59.08203,809.08203,0.3579923368581909,0.0147886983509235,-0.0158545709251164,50.25,26.4,38.1
-1004.88281,325.19531,120.11719,0.040235773377926,0.0067947413109391,-0.0682144484849463,2.1,35.55,40.05,413.57422,91.79688,922.36328,0.1280352595312016,0.027312482931534,-0.2629984289952695,45.6,17.1,91.95,-588.37891,67.87109,861.81641,0.4389969071676021,0.015055210127703,-0.0275788201753884,51.0,27.15,37.35
-992.67578,348.14453,120.11719,-0.0071944217096458,0.0047963393174056,0.0125237845806105,3.3,34.5,40.2,416.01562,112.79297,931.64062,0.1115144964305989,0.0417013263508257,-0.3086967338660875,46.35,15.6,93.75,-590.33203,88.86719,837.89062,0.4455253112346869,-0.0005328490206338,0.002264913770313,51.0,27.15,37.35
-970.70312,342.28516,131.83594,0.0047963393174056,-0.0802052095119978,0.0414349891069713,2.4,35.1,40.5,412.10937,143.06641,935.54687,0.122173047639603,-0.0419678381276052,-0.3025681847306345,47.25,14.25,92.55,-587.89062,70.3125,824.21875,0.4332680384308559,0.051827028539196,-0.0492956029921034,48.9,25.65,38.1
-953.125,323.73047,133.78906,-0.0209172474863764,-0.0390367321818059,0.0455651362488907,2.7,34.8,39.45,411.13281,132.32422,936.52344,0.1348300008421407,-0.0218499514386422,-0.330680028459582,47.25,14.25,92.55,-586.91406,98.63281,837.89062,0.4331346952760035,0.0195850376683291,-0.1175098769441246,50.1,27.0,39.0
-929.6875,323.24219,151.36719,-0.0399694361340717,0.0038636353651398,0.0213169278850831,2.7,34.8,39.45,399.41406,141.60156,922.36328,0.1005896079777403,-0.0275788201753884,-0.3214870302234775,45.75,17.25,93.3,-575.68359,104.98047,847.65625,0.4018254083574025,-0.0129234649793172,-0.1492190187943576,50.1,27.0,39.0
-907.71484,304.6875,153.32031,-0.0173201238980161,-0.0017320647496791,0.0173201238980161,2.25,36.45,39.9,414.0625,160.64453,914.55078,0.0704793622552594,-0.0819372742616769,-0.3433368071291945,47.25,15.75,92.55,-569.82422,110.83984,875.97656,0.3665191429188092,-0.0190520141147701,-0.0995237354035474,49.65,26.7,39.15
-914.55078,294.43359,154.78516,-0.0149218669728507,0.037970859607613,-0.0174532925199432,3.15,35.85,41.85,419.43359,152.34375,908.20312,0.0815375938629702,-0.0488959225933967,-0.3503982347498383,47.25,15.75,92.55,-564.94141,135.25391,833.49609,0.2869801255822976,-0.0147886983509235,-0.1743997565775057,49.65,26.7,39.15
-923.82812,296.875,167.96875,-0.0213169278850831,0.0219831200605693,-0.0724777642487929,2.7,34.05,39.45,431.15234,149.90234,896.48437,0.0937948666668012,-0.1125803690047918,-0.3638545487497894,46.35,15.9,92.7,-552.73437,131.34766,833.98437,0.342937301263413,-0.025713586803782,-0.1285681085518354,50.25,27.45,37.65
-928.71094,310.05859,156.73828,0.029044373148288,0.0121241041819038,-0.0563568560798221,2.7,34.35,40.5,426.26953,135.25391,889.16016,0.0738101485997654,-0.150018379591771,-0.3442695110814603,45.9,15.6,93.45,-536.13281,157.71484,835.44922,0.3992939828103098,-0.0516936853843436,-0.1055191159170731,50.55,27.0,37.95
-939.94141,315.42969,162.10937,-0.0470306892217904,0.0199847180670358,-0.1025880099712739,2.7,34.35,40.5,437.01172,133.30078,871.09375,0.0674150876875329,-0.1546815502872494,-0.36478707816913,46.65,15.9,93.45,-544.43359,147.94922,831.05469,0.394897323891611,-0.0079939570399844,-0.0916631215184153,50.1,27.3,38.55
-952.14844,303.71094,156.73828,-0.0409019655534123,0.0374380105869791,-0.0783399761403914,1.8,34.95,39.6,466.30859,153.80859,852.05078,0.0566231933236764,-0.1658729505168874,-0.294441059068723,46.65,15.9,93.45,-526.85547,151.36719,853.51562,0.3442695110814603,-0.0021317451483858,-0.0544916227082157,50.1,26.55,38.25
-955.56641,310.05859,155.76172,-0.0131899767560967,-0.0310429496747467,-0.0133231453780239,2.25,35.25,40.2,472.16797,142.57812,836.42578,0.0643506385868813,-0.1256370026060362,-0.3304135166828025,45.9,14.85,93.45,-528.80859,162.59766,831.05469,0.3603905937833563,-0.0634181091675407,-0.0963261176809686,49.2,26.1,37.65
-956.05469,295.89844,179.19922,-0.0153215473715574,-0.0262466103573411,-0.032375159492794,3.75,35.85,39.75,482.42187,142.08984,843.75,0.0279785005740951,-0.1373614263892333,-0.3907671767496916,45.6,15.6,94.2,-500.0,156.73828,795.41016,0.2932420178726028,-0.0454317930940384,-0.0979250138087206,50.1,25.8,37.5
-929.19922,305.66406,191.89453,-0.0639509581881746,-0.0081271256619115,-0.0387702204050264,3.45,35.85,39.75,466.30859,146.97266,833.49609,0.0542251109314362,-0.089797888146809,-0.2681944487113818,45.6,14.4,93.75,-489.74609,153.32031,821.77734,0.3517304445678856,-0.0433002224785777,-0.1368284028356742,50.1,25.8,37.5
-939.94141,285.15625,186.03516,-0.014522186574144,-0.0179861415405771,0.0059953805135257,3.45,35.85,39.75,462.40234,171.38672,838.86719,0.0319754790940873,-0.0734104682010586,-0.3181562438789715,45.15,15.15,92.7,-497.07031,167.96875,831.05469,0.3565267838852912,-0.0189188454928429,-0.0606201718436686,49.2,27.45,38.1
-916.50391,274.41406,192.38281,-0.0258469299586344,0.0087933178373978,-0.0488959225933967,3.6,34.95,40.65,459.96094,178.71094,844.23828,0.0463644970463041,-0.1177763887209041,-0.2865804451835909,46.35,15.6,93.15,-515.625,175.78125,823.24219,0.3073645240480402,-0.0151883787496302,-0.0350397536618137,49.2,27.45,38.1
-910.64453,277.34375,196.77734,-0.0816707624848974,0.0911300979648563,-0.0564900247017492,3.45,34.8,40.5,448.73047,178.22266,854.98047,-0.0245145456076619,-0.0960597804371143,-0.3150917947783199,46.65,17.1,92.7,-530.76172,180.66406,831.54297,0.2772542783255592,0.0162542513238231,-0.0351730968166661,50.1,27.0,39.0
-896.48437,278.80859,200.68359,-0.0009327039522657,-0.0033307863445059,0.0254472495599277,3.75,34.05,38.7,459.96094,170.41016,861.32812,0.0013323843509724,-0.1075176924435318,-0.216367594705111,46.65,17.1,92.7,-532.71484,191.89453,853.02734,0.2070414278470793,-0.0275788201753884,-0.0325085026476463,50.55,25.8,37.5
-917.96875,270.50781,192.87109,0.0231821612566894,0.0443659205198454,-0.0436999028772844,4.65,34.95,39.6,467.77344,162.10937,875.48828,-0.0762082309920056,-0.1040535629441735,-0.2499417953940251,45.9,15.9,92.4,-533.20312,211.91406,856.93359,0.1582786738756097,0.0102588708102974,-0.0386370517830992,50.7,27.9,37.65
-916.99219,267.57812,194.33594,-0.0498284520127373,0.0892648645932499,-0.0131899767560967,4.65,34.95,39.6,472.65625,170.89844,863.28125,-0.0325085026476463,-0.1300336615247351,-0.2340872244689086,46.5,15.75,92.85,-540.03906,206.54297,845.21484,0.1462879128485583,-0.0095926786348112,-0.0398360929792193,50.7,27.15,38.4
-915.52734,261.23047,192.38281,-0.0405022851547056,0.0900643999235885,-0.0002665117767795,2.7,36.9,39.75,474.60937,189.45312,872.07031,-0.051827028539196,-0.1145789455312505,-0.2199647182934713,47.25,15.75,92.25,-544.43359,228.51562,854.49219,0.1025880099712739,-0.0390367321818059,-0.060753514998521,49.65,27.15,37.05
-905.27344,271.97266,183.59375,-0.0115910806283447,0.1072511806667523,0.0476967068643514,3.6,35.25,39.6,483.88672,220.70312,879.88281,-0.0566231933236764,-0.1368284028356742,-0.1336309596460206,47.25,15.75,92.25,-541.99219,230.46875,858.39844,0.0694134896810664,-0.0592879620256213,-0.0678147680862396,50.7,27.15,37.35
-930.66406,266.11328,181.15234,-0.0269126279999021,0.145621720673072,-0.0054625314928918,3.75,34.35,40.5,426.75781,235.83984,881.34766,-0.093128674491315,-0.1336309596460206,-0.1554809110846628,47.25,15.75,92.25,-541.99219,217.77344,836.42578,0.0381042027624654,-0.0684807857288007,-0.0382373713843925,50.7,27.15,37.35
-944.82422,272.46094,182.12891,0.0254472495599277,0.1203078142679967,0.0073277648644981,4.05,35.25,40.65,475.09766,230.95703,880.37109,-0.0730107878023519,-0.1437564873014657,-0.1192419416938038,46.35,14.85,92.4,-520.99609,206.05469,847.16797,0.0671485759107534,-0.0675482563094601,-0.0410353087082646,51.15,27.3,37.5
-964.84375,293.94531,175.78125,0.031309286918601,0.1911868569219628,0.0666155523571943,4.05,35.25,40.65,483.88672,199.70703,865.72266,-0.0836691644784309,-0.212503784807046,-0.0675482563094601,45.15,14.85,93.15,-521.48437,171.38672,867.1875,0.0496952833908101,-0.0627519169920545,-0.0699463387017003,51.15,27.3,37.5
-965.33203,290.52734,161.62109,-0.0113245688515652,0.1608100994227023,0.0281118437289474,2.4,34.8,40.05,482.91016,189.45312,869.14062,-0.0908637607210019,-0.1565467836588557,-0.1068515002680456,45.15,14.85,93.15,-511.23047,154.29687,849.60937,0.046897346066938,-0.0182526533173567,-0.0683476171068735,51.15,27.3,37.5
-963.86719,307.61719,174.31641,0.0086599746825454,0.1743997565775057,-0.049162259837251,1.8,34.5,38.55,483.88672,150.87891,876.95312,-0.1012558001532266,-0.1220398790176759,-0.0828698036810175,46.2,16.5,92.85,-530.76172,130.37109,823.24219,0.1462879128485583,-0.0726111074036452,-0.0764747427687851,51.0,27.45,37.35
-986.81641,293.94531,156.73828,0.0267794593779749,0.1048529237415869,0.0295773967018471,3.6,34.2,38.85,463.86719,121.09375,861.32812,-0.1550812306859561,-0.032375159492794,-0.0727442760255724,47.4,15.9,93.75,-566.40625,101.07422,808.59375,0.2294242283063554,-0.0672817445326806,-0.1123138572280122,50.25,26.7,37.35
-1002.92969,298.33984,163.57422,-0.0341072242424731,0.1277687477544221,-0.0191853572696224,3.6,34.2,38.85,395.01953,91.30859,842.77344,-0.1480199775982374,-0.0602204914449619,-0.0572893854991626,45.0,15.0,93.6,-594.72656,100.58594,827.63672,0.2062418925167407,-0.0947273960861418,-0.080871401687484,49.8,25.8,37.2
-1023.4375,306.64062,146.48437,-0.046897346066938,0.1732005408484604,-0.0014655529728996,3.6,34.2,38.85,370.11719,30.27344,843.26172,-0.1878560705774568,-0.1144456023763981,-0.1594777150717298,45.0,15.0,93.6,-617.1875,104.49219,793.45703,0.196915725658709,-0.1085833904847996,-0.0102588708102974,50.25,27.15,36.6
-1014.64844,287.10937,131.83594,0.0109248884528585,0.1314992144976347,0.0991240550048407,3.45,34.8,40.05,365.23437,36.13281,888.18359,-0.071944915228159,-0.2530060699617516,-0.1697365858820273,45.75,15.0,92.85,-610.83984,108.39844,794.43359,0.2916431217448508,-0.0873996312216436,-0.0001331686219271,50.55,27.0,38.55
-965.82031,234.86328,145.99609,-0.0023980823922402,0.2370183304147079,0.0662158719584876,3.6,35.25,38.1,380.85937,16.60156,913.57422,0.0087933178373978,-0.375312460756207,-0.218632508475424,45.15,14.85,93.15,-599.60937,166.50391,863.76953,0.3361423854195487,-0.1394931715376192,-0.0051960197161123,49.2,27.45,38.4
-915.03906,216.79687,161.13281,0.0270459711547545,0.3162910105073652,0.0225161436141284,1.2,37.2,39.9,426.75781,110.83984,945.3125,0.1502848913685505,-0.3923660728774436,-0.1887885999967974,45.0,15.0,92.85,-554.6875,221.67969,921.875,0.2142358495567251,-0.2071745964690065,0.0254472495599277,49.2,27.45,38.4
-908.20312,221.19141,181.64062,0.1299004929028079,0.2725911076300807,-0.0289112045263608,1.2,37.2,39.9,467.28516,181.15234,915.52734,0.1878560705774568,-0.3141592653589793,-0.1978484296109748,46.2,15.0,93.3,-531.73828,234.86328,916.50391,0.1152449631738115,-0.2178331476780106,-0.0155880591483369,50.25,27.15,37.65
-920.41016,233.39844,180.66406,0.0796723604913639,0.3154916497099517,-0.1176432200989769,2.25,35.7,40.65,525.87891,193.35937,952.14844,0.1700030976588069,-0.2689938095087952,-0.2251607380095836,44.55,14.85,93.75,-539.0625,191.89453,853.02734,0.1546815502872494,-0.1624088210175291,0.070346019100407,50.25,27.15,37.65
-939.45312,243.16406,169.92187,0.0980581824306478,0.3313460461021431,-0.0578224090527217,3.0,34.5,37.05,548.82812,208.49609,958.98437,0.1658729505168874,-0.3062986514738472,-0.1778637115439389,45.6,14.85,94.5,-509.76562,234.86328,866.69922,0.2483430737991983,-0.1815941782871516,0.0359724576140795,50.7,26.1,37.65
-937.98828,254.39453,148.92578,0.1481531462201646,0.3200214772505779,0.0038636353651398,2.55,34.95,0.75,543.94531,240.72266,910.64453,0.1809279861116653,-0.3244181361692768,-0.1546815502872494,45.6,14.85,94.5,-504.88281,270.99609,859.86328,0.2379510343669737,-0.1636080367465744,0.0548913031069224,48.75,27.0,37.2
-967.77344,256.83594,123.53516,0.0780734643636119,0.3742465881820141,0.0090596550812521,0.75,34.95,39.15,549.80469,263.18359,881.34766,0.1425574461053456,-0.2793858489410198,-0.1247044731866956,46.2,15.45,94.35,-498.53516,272.94922,841.79687,0.1865236862264844,-0.1496186991930643,0.0314426300734534,48.45,27.15,38.4
-975.58594,274.90234,98.63281,0.0375711792089063,0.3101622868389871,0.0222496318373489,0.75,33.45,38.55,528.80859,289.0625,865.23437,0.0952604196397009,-0.2039769787464277,-0.0123904414257581,44.85,15.9,93.15,-499.02344,257.32422,864.25781,0.1478866344433851,-0.1129800494034985,0.0309096065198943,49.2,26.7,37.35
-978.51562,280.76172,80.56641,0.0739433172216925,0.2075742768677131,0.0683476171068735,0.75,33.45,38.55,529.29687,286.62109,879.88281,0.0671485759107534,-0.1346968322202135,0.0439662401211387,45.15,15.15,93.15,-490.72266,245.11719,855.95703,0.0603538345998143,-0.0985910314512816,-0.0013323843509724,49.95,27.45,36.6
-977.05078,258.30078,56.15234,-0.0159877395470436,0.196249708016148,-0.0157212277702641,1.65,35.55,38.4,537.10937,261.71875,897.46094,0.0776737839649052,-0.1426906147272728,0.073676805444913,45.15,15.15,93.15,-503.90625,238.28125,843.75,0.068614128883653,-0.0118575924051242,-0.046897346066938,50.1,27.75,37.95
-995.11719,269.53125,51.26953,0.032375159492794,0.1963828766380752,-0.0266462907560478,1.65,34.35,38.4,504.88281,220.21484,912.10937,-0.0161209081689708,-0.0836691644784309,0.0881991665519822,44.7,15.45,94.35,-523.4375,220.70312,803.22266,-0.020117886688963,-0.007860613885132,-0.0542251109314362,50.1,27.75,37.95
-1004.88281,267.08984,48.82813,0.0186523337160634,0.0847350370526239,0.0135896571548034,2.7,35.55,37.95,475.58594,208.00781,881.34766,-0.0003996803987067,-0.0158545709251164,0.1732005408484604,44.7,15.45,92.55,-522.46094,219.23828,802.73437,0.0233155044115418,-0.0370383301882724,-0.0572893854991626,49.05,28.05,38.25
-1020.99609,289.55078,45.89844,0.032908183046353,0.0734104682010586,0.0508943245869302,3.6,34.2,39.15,466.30859,190.42969,898.4375,-0.0303767574992605,0.0366386497895657,0.1333644478692411,44.85,15.15,92.7,-549.31641,218.75,822.75391,-0.0243813769857347,-0.0189188454928429,-0.0603538345998143,49.05,28.05,38.25
-1040.52734,292.48047,55.17578,-0.0325085026476463,0.0496952833908101,0.0567565364785288,3.6,34.2,39.15,445.3125,186.52344,875.48828,-0.0050628510941851,0.0185191650941362,0.0728774446474996,44.25,16.2,92.85,-545.41016,192.87109,804.6875,-0.0751423584178126,-0.0054625314928918,-0.0758085505932989,48.3,27.75,39.0
-1018.55469,278.32031,58.59375,0.0269126279999021,-0.0415681577288985,0.103787051167394,2.55,35.7,38.55,447.75391,175.78125,863.76953,-0.0655498543159266,0.0278453319521679,0.193584939314203,44.7,15.0,94.05,-562.01172,191.89453,815.42969,-0.036238969390859,0.0266462907560478,-0.0381042027624654,48.3,28.05,38.55
-1016.11328,282.71484,57.12891,-0.0672817445326806,-0.061419532641082,0.1396263401595463,3.6,36.0,38.55,459.47266,158.69141,900.39062,-0.060753514998521,0.0414349891069713,0.2113047436109259,43.2,16.95,93.3,-563.47656,168.45703,813.47656,-0.1313660458757076,0.059154618870769,-0.0726111074036452,49.05,28.05,39.0
-967.77344,274.90234,73.73047,-0.0668820641339739,0.0365053066347134,0.0802052095119978,3.3,34.95,38.55,431.64062,124.51172,880.85937,-0.082603291904238,0.0980581824306478,0.1751991173749191,43.2,16.95,93.3,-585.9375,160.64453,805.66406,-0.1421577657066389,0.0611531953972277,-0.0887320155726161,49.65,26.7,38.1
-934.08203,261.23047,62.98828,-0.037970859607613,0.0153215473715574,0.1497518678149914,1.05,34.8,37.65,430.66406,135.25391,903.32031,-0.0397029243572922,0.0868667822010097,0.1629418445710882,44.7,15.75,94.35,-593.75,159.17969,811.52344,-0.1805283057129587,0.0723445956268657,-0.1032542021467601,49.65,26.7,38.1
-907.22656,299.31641,74.21875,-0.0037304667432126,0.0202512298438154,0.110981647409965,1.05,34.8,37.65,431.15234,143.55469,892.57812,-0.0105252080541518,0.0181194846954295,0.2351530970431016,43.35,15.15,94.2,-587.89062,179.6875,816.89453,-0.1726676918278266,0.0139893375535101,-0.0431668793237253,49.65,26.7,37.65
-900.39062,300.78125,82.03125,-0.116577347524784,0.1141790905996186,0.0778071271197576,1.5,34.5,39.15,418.45703,157.71484,890.625,-0.069680001457846,0.0373046674321268,0.2463444972727396,45.15,14.4,93.75,-587.89062,196.77734,821.28906,-0.1624088210175291,-0.0086599746825454,-0.0544916227082157,49.8,25.8,37.2
-925.78125,310.54687,84.47266,-0.0476967068643514,0.0619525561946411,0.0796723604913639,1.05,35.1,39.0,414.55078,158.69141,888.67187,-0.0838025076332833,0.0391699008037331,0.2208974222457371,45.15,14.4,93.75,-570.80078,184.57031,811.52344,-0.1899878157258427,-0.0504946441882235,0.034640073263107,49.8,25.8,37.2
-956.05469,318.84766,80.07813,-0.0843353566539172,0.0728774446474996,0.1473537854227512,1.35,35.85,37.95,428.71094,167.48047,902.34375,-0.0848683802074762,0.0668820641339739,0.2400826049824344,44.25,15.75,94.05,-569.33594,181.15234,830.07812,-0.20411032190128,0.0009327039522657,-0.0682144484849463,49.8,27.75,37.5
-986.81641,299.80469,71.77734,-0.1100489434576992,0.118842261295097,0.0025314255470925,1.5,35.25,38.55,434.57031,142.57812,900.39062,-0.0972588216332344,0.0106585512090041,0.298970886609349,43.95,14.7,92.85,-566.40625,180.17578,815.91797,-0.2155680593747724,-0.0520933657830503,-0.0165205885676775,49.8,27.75,37.5
-990.23437,302.24609,63.47656,-0.096459460835821,0.0062618922903052,0.0455651362488907,1.5,35.25,38.55,427.24609,123.04688,872.07031,-0.0747426780191059,0.0299770771005538,0.2566033680830371,43.95,14.7,92.85,-558.10547,174.31641,790.52734,-0.1899878157258427,-0.0603538345998143,-0.0291777163031404,49.05,26.55,39.6
-993.65234,314.94141,52.73438,-0.1396263401595463,0.0754088701945922,0.0246477142295891,1.05,35.1,38.7,438.47656,112.30469,863.76953,-0.0173201238980161,0.0342403928644003,0.2539387739140173,43.95,14.7,92.85,-547.36328,172.36328,827.14844,-0.1602772504020684,-0.0029311059457992,0.0046631706954784,50.85,27.3,38.25
-1007.32422,295.41016,57.61719,-0.1549478875311037,0.023981696587028,0.0059953805135257,2.4,35.1,36.6,432.12891,128.90625,847.16797,-0.0043966589186989,-0.0038636353651398,0.2206309104689576,45.0,15.45,93.6,-563.47656,184.57031,821.77734,-0.1841256038342442,0.0021317451483858,0.0339738810876208,49.65,25.65,38.1
-977.53906,288.08594,72.75391,-0.0945942274642146,0.0162542513238231,0.0378376909856858,2.25,35.7,38.1,453.61328,138.67187,868.16406,0.0070612530877186,0.0198513749121835,0.2621990681978561,43.95,14.25,93.3,-549.31641,185.54687,794.43359,-0.1729342036046061,-0.0191853572696224,0.0532925815120956,48.45,27.15,38.1
-962.40234,285.15625,85.9375,-0.075275701572665,0.0217166082837898,0.002264913770313,0.75,35.7,38.1,464.84375,150.39062,869.62891,-0.027312482931534,0.022382800459276,0.3098959495951328,43.95,15.0,94.05,-536.13281,173.82812,810.54687,-0.2396829245837277,-0.0025314255470925,0.1056524590719255,48.75,26.25,38.55
-968.75,273.4375,84.96094,-0.1101822866125516,0.0454317930940384,-0.018385996472209,0.75,35.7,38.1,477.53906,152.34375,872.07031,0.0166539317225298,0.0710122112758932,0.2753890449539529,43.95,15.0,94.05,-543.45703,173.82812,861.32812,-0.2404824599140662,-0.0098591904115907,0.0723445956268657,48.9,27.15,39.45
-963.37891,257.8125,94.72656,-0.0197182062902563,0.0191853572696224,-0.0031976177225788,0.6,35.85,37.95,486.81641,142.57812,899.90234,0.0127901218244648,0.0162542513238231,0.297771845413229,44.7,15.0,94.35,-545.41016,172.36328,862.30469,-0.3277489225137827,-0.0009327039522657,0.1035207139235396,48.9,27.15,39.45
-949.70703,261.23047,91.79688,-0.0091929982361045,0.0138559943986577,0.032908183046353,0.75,36.0,37.5,508.30078,141.11328,898.92578,-0.013456313999951,0.0567565364785288,0.2980383571900085,44.1,14.1,93.45,-520.99609,151.85547,842.28516,-0.3326784304531155,0.0499617951675896,0.0699463387017003,50.1,27.3,39.3
-945.3125,270.99609,101.5625,-0.0341072242424731,0.0403691165327784,0.0259800985805615,1.05,34.35,37.65,499.51172,154.29687,902.34375,-0.0210505906412288,0.0443659205198454,0.2884456785551972,43.95,15.0,92.55,-524.90234,169.43359,845.70312,-0.3513307641691789,0.0050628510941851,0.0385038831611721,49.95,26.7,39.9
-959.47266,278.32031,98.14453,-0.042900542079871,0.049162259837251,-0.0086599746825454,1.8,35.25,36.75,479.00391,148.92578,878.90625,-0.0031976177225788,0.0844685252758443,0.3506645719936927,44.25,15.75,93.3,-510.25391,152.83203,853.02734,-0.3583920172568976,0.0603538345998143,0.0674150876875329,50.55,27.3,39.6
-986.32812,288.57422,91.30859,-0.0067947413109391,-0.0041301471419193,0.0531592383572432,1.8,35.25,36.75,501.46484,168.94531,878.90625,-0.049162259837251,0.0815375938629702,0.3659862938981753,44.1,15.15,93.45,-530.27344,164.55078,839.35547,-0.3503982347498383,0.0421010067495324,0.0293108849250675,50.25,26.7,38.7
-986.81641,286.62109,76.66016,-0.0668820641339739,-0.0031976177225788,-0.0023980823922402,1.65,35.55,39.45,500.0,145.99609,894.53125,-0.0594211306475485,0.1993139825838744,0.3783767353239335,44.55,16.65,94.2,-553.22266,148.92578,814.45312,-0.4056890437225423,-0.0082602942838387,0.0490290912153239,49.95,26.4,39.15
-1003.90625,291.01562,89.84375,-0.0419678381276052,0.0436999028772844,-0.0135896571548034,2.1,36.15,37.95,471.67969,135.25391,883.30078,-0.0887320155726161,0.2256937615631427,0.3747794372026479,44.55,16.65,94.2,-541.99219,146.48437,854.00391,-0.4078207888709282,0.0133231453780239,0.0258469299586344,48.45,27.45,37.05
-1023.4375,288.08594,82.03125,-0.0270459711547545,-0.0600873228230347,-0.0301102457224809,2.25,34.95,38.55,456.05469,111.32813,894.53125,-0.0571562168772355,0.2367519931708536,0.4247412323702376,44.7,15.0,92.85,-555.66406,154.29687,836.42578,-0.4569832232411044,0.063684446411395,0.0137228257767306,48.45,27.45,37.05
-1017.57812,273.92578,83.49609,-0.0387702204050264,-0.040235773377926,-0.0520933657830503,2.1,35.85,38.4,436.52344,89.84375,913.08594,-0.0512940049856369,0.1708024584562202,0.3799754569187603,43.2,15.0,94.05,-561.03516,144.53125,832.03125,-0.5174702264628459,0.0287778613715085,0.0377045223637587,48.45,26.4,38.7
-977.53906,280.76172,65.91797,-0.0197182062902563,0.0131899767560967,-0.0546247913301429,2.1,35.85,38.4,444.82422,95.21484,890.625,-0.0143890179522168,0.1634746935917221,0.4719050902139552,44.85,15.15,93.45,-574.21875,149.90234,855.46875,-0.463511452775264,0.0707458740320389,0.0675482563094601,48.45,26.4,38.7
-967.28516,269.04297,80.56641,0.0073277648644981,-0.0587549384720623,0.0066615726890119,2.1,35.1,37.65,450.68359,103.51563,888.18359,-0.0202512298438154,0.1453552088962925,0.4170137871070327,44.85,15.15,93.45,-561.52344,151.36719,855.46875,-0.5738269080097429,0.0298437339457014,0.0588882816269146,49.35,26.55,40.35
-956.54297,278.32031,100.58594,0.0046631706954784,-0.0165205885676775,-0.058088746296576,1.2,36.0,37.05,442.87109,113.28125,889.16016,0.0079939570399844,0.1216401986189692,0.4106187261948003,44.55,15.15,93.75,-520.99609,118.65234,866.69922,-0.5461149192124273,0.0427671989250186,0.0331745202902074,49.8,27.75,39.6
-964.35547,277.34375,122.55859,-0.025713586803782,-0.0037304667432126,-0.091529778363563,2.1,35.55,38.7,470.21484,114.74609,895.01953,0.0069280844657914,0.1097826062138449,0.4203445734515387,43.95,14.7,93.3,-526.36719,134.27734,894.53125,-0.473503811808782,0.0247810573844414,0.1233720888357231,49.8,27.75,39.6
-978.02734,303.22266,124.02344,0.0009327039522657,-0.0423675185263119,-0.0447657754514773,0.45,34.2,37.8,488.28125,118.16406,878.90625,-0.0830031468358699,0.1362955538150403,0.4018254083574025,44.25,13.5,93.3,-497.55859,78.125,865.72266,-0.5245313050176394,-0.0544916227082157,0.1530826541594974,49.8,26.55,40.65
-964.35547,290.03906,125.97656,-0.0219831200605693,-0.0309096065198943,-0.0305099261211876,0.45,34.2,37.8,515.625,104.49219,876.46484,-0.0475635382424242,0.1287014517066878,0.3902343277290577,45.0,15.45,94.05,-495.60547,93.26172,892.57812,-0.5478468094291813,0.0301102457224809,0.1231057515918688,49.8,25.8,39.0
-969.23828,298.33984,121.09375,-0.0334410320669869,-0.0638177895662474,-0.018385996472209,0.45,34.2,37.8,531.73828,87.89063,878.90625,-0.0746095093971788,0.1204409828899239,0.3790429274994197,43.2,15.45,92.85,-493.16406,49.80469,887.69531,-0.5485130016046675,-0.0087933178373978,0.1397595087814735,48.9,26.1,39.15
-976.07422,285.15625,138.67187,0.0086599746825454,-0.1113813278086717,-0.0361056262360067,1.2,36.45,37.5,534.17969,50.29297,872.55859,-0.0960597804371143,0.1101822866125516,0.369183737087829,42.9,14.7,93.6,-468.75,42.96875,882.32422,-0.5072113556525485,0.042900542079871,0.1392266597608396,49.05,26.25,40.65
-959.96094,275.87891,159.17969,0.0139893375535101,-0.1417580853079322,0.0178529729186499,2.4,36.15,37.35,504.88281,10.74219,841.30859,-0.0683476171068735,0.1478866344433851,0.3330781108518222,42.9,14.7,93.6,-498.04687,0.48828,858.39844,-0.4027581123096682,0.0658161915597809,0.1625421641723815,49.05,26.25,40.65
-937.01172,275.87891,161.13281,-0.0401026047559989,-0.080871401687484,-0.0474303696204971,1.65,34.8,38.7,496.58203,-28.80859,816.40625,-0.03064326927604,0.0997902471803269,0.2704593624816949,43.65,14.7,93.6,-491.21094,-3.41797,888.18359,-0.2491424345966117,0.0467641774450108,0.1478866344433851,49.65,25.35,39.9
-915.52734,276.85547,152.34375,0.0318423104721601,-0.0798055291132911,-0.046897346066938,2.1,36.6,37.95,471.19141,-69.82422,813.47656,-0.0197182062902563,0.132165406673121,0.2324885028740818,43.8,14.85,93.15,-510.74219,0.97656,870.11719,-0.1847917960097304,0.0658161915597809,0.1793292645168386,49.65,25.35,39.9
-902.34375,262.20703,140.13672,0.0286446927495813,-0.0409019655534123,-0.0065284040670847,2.1,36.6,37.95,465.82031,-81.05469,846.19141,0.0582220894514284,0.0989908863829135,0.2121041044083393,44.85,14.4,93.75,-507.32422,-15.625,877.92969,-0.1306998537002213,-0.0038636353651398,0.2142358495567251,49.35,25.05,40.35
-878.90625,261.23047,152.34375,-0.0006661921754862,-0.0330413516682802,-0.0850015488294034,3.45,35.85,38.4,458.49609,-60.54688,872.07031,0.1072511806667523,0.0885988469506889,0.1244379614099161,44.85,14.4,93.75,-538.57422,19.53125,901.85547,-0.0620857248165682,0.05475795995207,0.1653399269633284,50.25,25.35,40.95
-869.14062,263.67187,151.85547,0.0508943245869302,-0.0178529729186499,-0.0347734164179594,1.2,35.25,37.8,466.30859,-39.0625,912.59766,0.1505512286124048,0.0715452348294523,0.0297105653237742,43.95,15.45,94.05,-542.96875,29.78516,906.25,-0.1155114749505911,0.0602204914449619,0.2083736376651266,49.35,26.55,39.0
-882.32422,262.20703,141.11328,0.0141225061754373,0.0105252080541518,-0.018385996472209,1.35,35.1,39.0,491.21094,0.97656,955.07812,0.1837259234355374,0.0125237845806105,-0.0496952833908101,43.2,13.95,94.35,-535.15625,39.55078,934.57031,-0.1685375446859072,0.0187856768709157,0.2003798551580673,48.3,26.55,39.0
-900.87891,259.76562,126.95313,0.0050628510941851,0.0189188454928429,-0.0241148652089552,1.2,36.0,38.85,510.25391,81.05469,958.00781,0.1401591891801802,-0.0932618431132422,-0.0285115241276541,43.2,13.95,94.35,-525.87891,65.42969,937.01172,-0.1958498530845161,0.0480965617959833,0.1191087730718766,48.9,25.35,39.45
-939.94141,250.48828,125.0,0.0763415741468579,-0.0255804181818548,-0.0137228257767306,1.2,36.0,38.85,540.52734,132.32422,945.80078,0.1552143993078833,-0.0409019655534123,0.0149218669728507,43.8,15.15,94.5,-535.15625,56.15234,887.69531,-0.2615328760223699,-0.0610198522423753,0.1921193863413034,49.8,25.5,39.6
-971.19141,230.46875,123.04688,0.0608866836204481,-0.0543582795533633,0.0363721380127862,1.5,36.0,37.5,533.69141,162.10937,920.41016,0.1131133925583509,-0.0528927265804637,0.0387702204050264,43.65,15.45,93.3,-521.97266,62.5,908.69141,-0.1253706653621819,-0.0053291883380394,0.1261700261595952,49.8,25.5,39.6
-981.93359,227.05078,95.21484,0.0711455544307456,0.0098591904115907,-0.1059187963157798,2.7,35.55,38.4,519.04297,153.80859,907.71484,0.0635512777894679,-0.107650861065459,0.0776737839649052,43.95,15.45,94.65,-521.48437,86.91406,892.57812,-0.2175666359012311,-0.0578224090527217,0.0047963393174056,48.75,26.25,40.35
-1003.41797,261.23047,76.66016,0.1179097318757565,-0.0667488955120467,-0.075275701572665,0.0,35.1,38.4,465.82031,145.99609,852.53906,0.0528927265804637,-0.0193185258915496,0.1247044731866956,43.95,15.45,94.65,-524.90234,121.58203,892.57812,-0.1763981585710393,0.0226493122360556,0.023981696587028,48.75,26.25,40.35
-999.02344,300.29297,76.17188,0.1300336615247351,-0.0608866836204481,-0.0177198042967228,0.0,35.1,38.4,464.35547,146.97266,893.06641,0.0345069046411798,-0.0338407124656936,0.1529494855375703,44.1,15.9,94.2,-537.10937,101.07422,859.375,-0.2051760199425478,0.0877993116203503,-0.0639509581881746,48.45,26.7,41.25
-993.65234,325.68359,88.37891,0.0830031468358699,-0.0226493122360556,-0.055823832526263,0.0,35.1,38.4,481.44531,122.55859,871.09375,0.0599539796681824,0.0331745202902074,0.1291011321053945,43.8,14.4,92.4,-529.29687,44.43359,866.69922,-0.1831928998819784,0.0394364125805126,-0.0531592383572432,48.75,25.8,40.05
-973.14453,357.91016,90.82031,0.0819372742616769,-0.0600873228230347,-0.0094593354799588,2.7,33.3,37.35,439.94141,85.44922,881.83594,-0.0085268060606182,0.0151883787496302,0.1697365858820273,43.2,15.0,94.35,-533.69141,15.625,916.99219,-0.0554241521275563,0.040235773377926,-0.0866002704242302,48.9,25.35,39.45
-965.82031,348.14453,100.09766,0.0238483534321757,-0.1537488463349836,0.0033307863445059,3.15,35.1,38.4,440.42969,57.12891,897.46094,-0.0166539317225298,0.045165455850184,0.0230489926347623,43.2,15.0,94.35,-532.22656,-6.34766,913.57422,-0.0059953805135257,-0.0081271256619115,-0.0623522365933478,49.65,24.6,39.15
-970.70312,350.58594,112.79297,-0.0763415741468579,-0.0895313763700295,0.0210505906412288,1.2,33.75,38.1,464.35547,37.59766,903.80859,-0.0255804181818548,0.0739433172216925,-0.0800720408900706,44.25,16.2,93.6,-528.32031,-9.27734,927.24609,0.0969923098564548,0.0182526533173567,-0.0674150876875329,49.8,25.5,40.05
-963.37891,312.01172,104.49219,-0.0207840788644492,-0.1512174207878911,0.0410353087082646,1.2,33.75,38.1,492.1875,21.48438,911.62109,0.0166539317225298,0.0114579120064175,-0.1212403436873373,43.05,15.6,95.55,-522.94922,5.85937,895.50781,0.1505512286124048,0.0087933178373978,-0.0816707624848974,50.1,27.0,40.05
-960.9375,295.89844,114.74609,-0.0237151848102485,-0.18625734898263,0.0925956509377559,1.8,36.0,39.6,486.81641,37.59766,901.85547,0.0662158719584876,0.0282450123508746,-0.1843921156110237,43.8,15.6,94.5,-510.74219,-6.34766,861.81641,0.1863905176045572,-0.0018652333716063,-0.1179097318757565,50.1,27.0,40.05
-954.58984,263.67187,118.65234,-0.0075941021083525,-0.1953170040638822,0.0070612530877186,1.35,35.55,37.65,490.72266,20.50781,884.27734,0.0888651841945432,0.0030642745677264,-0.1995803198277287,43.8,15.6,94.5,-507.8125,36.13281,846.19141,0.254338454312724,0.0555574952824086,-0.0798055291132911,50.1,27.0,40.05
-930.66406,229.98047,128.41797,0.0203843984657425,-0.1634746935917221,-0.0286446927495813,1.8,36.0,37.8,473.63281,48.33984,871.09375,0.0912634411197086,-0.0074609334864253,-0.2244947203670226,43.8,14.4,94.8,-493.65234,51.75781,831.05469,0.2562036876843304,0.059687642424328,-0.0852680606061829,50.7,25.65,40.5
-923.33984,240.23437,115.72266,0.1259035143828157,-0.1594777150717298,-0.0567565364785288,3.3,36.45,37.05,472.65625,73.73047,849.60937,0.1105819670112583,0.0206509102425221,-0.2271593145360423,44.25,15.45,95.1,-520.99609,90.82031,850.09766,0.212503784807046,0.0854012292281101,-0.0494287716140306,50.7,25.65,40.5
-911.62109,265.625,122.55859,0.1215068554641168,-0.1191087730718766,-0.0599539796681824,3.3,36.45,37.05,451.17187,112.30469,848.14453,0.0800720408900706,0.0063950609122324,-0.2354196088198811,44.25,15.0,93.6,-519.04297,93.26172,828.61328,0.2162342515502586,0.0339738810876208,-0.0440995832759911,49.35,26.55,39.3
-925.78125,295.41016,107.42188,0.1640077171452811,-0.0774072721881257,-0.0917962901403425,2.7,34.35,38.7,457.51953,149.41406,852.05078,0.0831363154577971,0.031309286918601,-0.1965160452600023,44.25,15.0,93.6,-537.10937,110.83984,813.47656,0.2757887253526596,0.0359724576140795,-0.0318423104721601,49.2,26.1,40.5
-941.40625,335.44922,95.21484,0.1652067583414012,-0.0710122112758932,-0.0195850376683291,1.5,34.5,38.85,417.96875,130.85937,857.42187,0.0443659205198454,0.0159877395470436,-0.2158345711515519,44.55,14.1,93.15,-545.89844,124.51172,797.85156,0.193584939314203,0.0546247913301429,-0.0452986244721112,50.1,25.05,40.65
-940.42969,337.40234,92.77344,0.1099157748357721,-0.0425006871482391,-0.014522186574144,2.4,35.1,38.7,415.03906,128.41797,868.65234,0.0664823837352672,0.0415681577288985,-0.2145023613335047,45.0,15.0,93.3,-576.17187,127.92969,837.40234,0.235952457840515,0.1087167336396519,-0.0447657754514773,50.25,25.65,39.9
-937.5,327.14844,89.84375,0.0728774446474996,-0.0462311538914518,-0.0488959225933967,1.8,34.95,38.1,398.4375,130.85937,885.25391,-0.0073277648644981,0.0258469299586344,-0.2332878636714952,45.0,15.0,93.3,-580.56641,111.32813,790.52734,0.1548147189091766,0.0512940049856369,-0.0109248884528585,49.8,25.8,39.6
-949.21875,314.45312,83.49609,0.0710122112758932,-0.0839356762552105,0.0378376909856858,1.8,34.95,38.1,409.66797,129.39453,894.53125,0.0644839817417337,0.0073277648644981,-0.2368851617927808,44.55,14.85,94.8,-577.63672,123.04688,836.91406,0.2510076679682181,0.0798055291132911,-0.0027979373238721,49.2,25.65,39.45
-960.9375,305.17578,83.00781,0.0896645449919567,0.0030642745677264,0.0426340303030914,2.55,35.25,38.1,409.17969,131.83594,911.62109,0.0782068075184643,-0.0242480338308824,-0.2571362171036709,44.85,15.9,93.15,-590.33203,152.34375,824.21875,0.1641408857672083,0.0233155044115418,0.0039969785199922,49.2,25.65,39.45
-933.59375,297.36328,95.21484,0.0519601971611231,-0.0046631706954784,0.0354394340605204,3.6,34.5,38.55,420.89844,125.48828,900.87891,0.0550244717288496,0.0062618922903052,-0.1818606900639311,45.15,15.6,93.45,-583.00781,169.43359,854.98047,0.2042434905232072,0.0406354537766327,0.0818039311068246,49.95,25.65,39.15
-931.15234,299.31641,94.72656,0.1056524590719255,-0.0293108849250675,0.0444992636746978,2.1,34.8,38.7,423.33984,145.99609,912.59766,0.0804717212887773,-0.0170536121212365,-0.1907871765232561,45.15,15.6,93.45,-587.89062,188.96484,826.17187,0.1620091406188224,0.0436999028772844,0.082603291904238,49.95,25.65,39.15
-907.71484,287.59766,85.9375,0.0550244717288496,0.0294440535469947,-0.0325085026476463,3.6,35.25,37.5,424.80469,166.01562,909.17969,0.0608866836204481,-0.0251807377831481,-0.1689372250846139,44.55,15.9,93.15,-573.73047,187.98828,853.02734,0.1617428033749681,0.0149218669728507,0.1097826062138449,48.3,27.0,39.0
-906.25,299.80469,98.63281,0.0358392889921523,0.0074609334864253,-0.0783399761403914,3.6,35.25,37.5,453.61328,160.15625,919.43359,0.0616860444178615,-0.0282450123508746,-0.1116478395854512,44.55,14.85,93.15,-580.07812,191.89453,891.60156,0.1682710329091277,0.0235820161883213,0.1428239578821251,49.35,26.55,40.35
-927.24609,302.73437,87.40234,0.085934078248744,-0.0431668793237253,-0.0390367321818059,1.05,34.8,38.7,459.47266,155.27344,923.82812,0.1179097318757565,-0.0984578628293545,-0.1530826541594974,45.6,14.85,93.15,-565.91797,165.52734,870.60547,0.0944608843093623,0.0225161436141284,0.1121806886060851,49.8,25.8,39.3
-960.44922,311.03516,83.98438,0.0337075438437664,-0.0373046674321268,-0.0900643999235885,2.55,34.5,38.85,486.81641,160.15625,926.26953,0.1488193383956508,-0.1368284028356742,-0.1151117945518844,44.7,14.25,92.85,-553.71094,169.92187,886.71875,0.1722680114291199,0.0478300500192038,0.1117810082073784,48.15,27.9,39.9
-1001.95312,315.91797,85.9375,0.0246477142295891,-0.0013323843509724,-0.1259035143828157,3.6,34.5,37.5,484.86328,168.94531,909.66797,0.131099534098928,-0.0746095093971788,-0.1532159973143498,44.7,15.0,94.05,-525.39062,138.67187,836.91406,0.1492190187943576,0.0053291883380394,0.0363721380127862,48.15,27.9,39.9
-1018.06641,310.54687,68.35938,0.0467641774450108,-0.1204409828899239,-0.0851347174513306,3.45,35.1,38.4,463.86719,195.3125,904.78516,0.1538820149569108,-0.0648836621404404,-0.1382939558085739,44.7,16.5,93.6,-542.48047,138.18359,846.19141,0.208107125888347,0.0115910806283447,0.0504946441882235,48.45,27.9,39.9
-1018.55469,308.10547,76.17188,0.0049295079393327,-0.1303001733015146,-0.0452986244721112,3.45,35.1,38.4,490.23437,180.66406,904.78516,0.1249709849634751,-0.0195850376683291,-0.1272358987337882,44.7,16.5,93.6,-523.4375,113.28125,847.16797,0.2322219910973023,-0.0025314255470925,0.0317089673173077,48.45,27.9,39.9
-1041.01563,320.3125,71.77734,-0.0233155044115418,-0.0746095093971788,-0.1075176924435318,3.45,35.1,38.4,458.00781,163.08594,876.95312,0.0707458740320389,0.0037304667432126,-0.1137794102009119,43.35,15.9,94.2,-533.20312,89.35547,824.70703,0.2300904204818416,-0.004529827540626,0.0101255276554451,49.2,26.7,39.9
-1040.52734,335.9375,80.56641,0.0406354537766327,-0.1548147189091766,-0.0097258472567384,2.25,33.75,39.6,459.47266,159.17969,887.20703,0.0867336135790826,0.0271791397766816,-0.1685375446859072,43.65,16.2,93.6,-536.62109,96.67969,845.21484,0.3197549654737983,0.0278453319521679,-0.027312482931534,48.75,25.8,37.5
-1025.39063,349.12109,79.10156,-0.0153215473715574,-0.1608100994227023,0.0121241041819038,1.8,33.45,37.8,452.63672,137.20703,891.11328,0.0157212277702641,0.0568897051004559,-0.187989239199384,44.25,15.75,92.55,-537.10937,76.17188,799.31641,0.2143690181786523,0.0828698036810175,-0.0707458740320389,49.8,28.5,39.3
-1017.08984,346.67969,99.60938,-0.0527595579585365,-0.1137794102009119,-0.0460979852695246,1.5,34.95,38.85,442.87109,123.53516,875.0,0.0479632186411309,0.0595542992694757,-0.2368851617927808,44.25,15.75,92.55,-535.15625,84.96094,830.07812,0.2847152118119845,0.1426906147272728,-0.0619525561946411,49.35,27.3,40.65
-1007.32422,345.70312,96.19141,-0.0286446927495813,-0.1197749652473628,0.0361056262360067,3.15,34.05,38.4,449.21875,146.97266,898.92578,-0.0062618922903052,0.0947273960861418,-0.2937748668932367,44.55,15.9,92.4,-539.55078,85.44922,819.82422,0.2831163156842325,0.1249709849634751,-0.0294440535469947,49.65,27.3,40.65
-987.30469,323.24219,106.44531,-0.0454317930940384,-0.1296339811260284,0.075275701572665,3.15,34.05,38.4,451.66016,125.48828,887.20703,0.031309286918601,0.1083170532409452,-0.2751225331771733,43.8,15.15,92.4,-561.03516,75.68359,815.42969,0.3349433442234286,0.1197749652473628,-0.0691469779042869,49.65,28.65,39.15
