IMU1_AccX,IMU1_AccY,IMU1_AccZ,IMU1_GyrX,IMU1_GyrY,IMU1_GyrZ,IMU1_MagX,IMU1_MagY,IMU1_MagZ,IMU2_AccX,IMU2_AccY,IMU2_AccZ,IMU2_GyrX,IMU2_GyrY,IMU2_GyrZ,IMU2_MagX,IMU2_MagY,IMU2_MagZ,IMU3_AccX,IMU3_AccY,IMU3_AccZ,IMU3_GyrX,IMU3_GyrY,IMU3_GyrZ,IMU3_MagX,IMU3_MagY,IMU3_MagZ
-805.17578,476.07422,-35.15625,-0.1577458248549758,0.1101822866125516,-0.1139127533557643,-3.6,34.5,29.4,404.78516,127.92969,942.87109,-0.1413584049092255,-0.162275652395602,0.0309096065198943,48.45,12.6,93.45,-583.49609,184.08203,855.95703,0.013456313999951,-0.0539585991546566,-0.1449555284975858,50.55,25.5,37.95
-826.66016,470.21484,-30.76172,-0.093128674491315,0.1159111553492978,-0.1438898304563181,-2.55,33.75,30.9,421.875,101.5625,926.26953,-0.075275701572665,-0.1751991173749191,0.0342403928644003,48.45,12.6,93.45,-558.10547,177.24609,870.60547,0.0494287716140306,-0.0079939570399844,-0.1061853080925594,50.25,26.7,38.4
-860.35156,470.21484,-46.875,-0.0498284520127373,0.0885988469506889,-0.1346968322202135,-2.4,32.55,30.0,415.52734,88.37891,936.03516,-0.0891316959713228,-0.1770643507465255,0.0025314255470925,48.15,10.35,94.5,-538.08594,168.45703,860.35156,0.0704793622552594,-0.039569755735365,-0.0901975685455157,49.65,26.4,39.15
-910.64453,460.44922,-50.29297,-0.1057856276938527,0.1175098769441246,-0.1854578136522914,-1.2,34.95,32.25,424.31641,53.22266,920.41016,-0.0858009096268168,-0.1994471512058016,0.0381042027624654,49.05,12.75,94.05,-518.55469,162.59766,858.88672,0.0992572236267679,-0.1025880099712739,0.0065284040670847,50.25,26.7,39.15
-949.70703,462.40234,-63.96484,-0.075275701572665,0.015055210127703,-0.1436233186795386,-3.6,34.2,30.45,447.75391,40.52734,925.78125,-0.0327748398915007,-0.193584939314203,0.0913966097416358,49.35,11.55,92.55,-531.25,155.76172,840.33203,0.0839356762552105,-0.1360290420382608,0.016787100344457,49.35,26.55,37.5
-944.33594,451.66016,-45.89844,-0.0375711792089063,-0.0278453319521679,-0.1498852109698438,-3.6,34.2,30.45,441.89453,66.40625,914.55078,-0.0087933178373978,-0.15561407970659,0.0738101485997654,49.35,11.55,92.55,-523.92578,181.15234,853.02734,0.1212403436873373,-0.0564900247017492,-0.0321086477160144,49.35,26.55,37.5
-932.12891,458.98437,-39.0625,-0.0879326547752027,-0.0177198042967228,-0.2246278889889497,-4.2,35.1,32.7,450.19531,87.89063,917.96875,0.0622190679714206,-0.1253706653621819,0.0590214502488418,47.25,11.55,92.85,-534.17969,172.36328,832.51953,-0.0050628510941851,-0.0495619402359577,-0.0293108849250675,49.2,26.7,38.7
-928.71094,463.86719,-24.41406,-0.0519601971611231,-0.1088499022615791,-0.1005896079777403,-2.4,34.05,29.55,449.70703,123.53516,908.69141,-0.002264913770313,-0.1172435397002702,0.0858009096268168,48.15,11.85,94.5,-542.96875,174.80469,811.03516,-0.0286446927495813,-0.0371714988101996,0.0083936374386911,50.7,27.15,37.65
-893.55469,473.63281,-45.89844,-0.0294440535469947,-0.0756753819713717,-0.1469541050240445,-3.45,33.3,31.35,446.28906,133.30078,925.78125,-0.0017320647496791,-0.0278453319521679,0.1394931715376192,48.15,11.85,94.5,-540.03906,182.12891,813.96484,-0.0410353087082646,-0.0351730968166661,-0.0415681577288985,50.7,27.15,37.65
-869.14062,485.83984,-45.89844,-0.1115144964305989,-0.0382373713843925,-0.1229724084370164,-3.15,33.3,30.3,407.22656,135.25391,917.48047,-0.0397029243572922,-0.0450321126953316,0.2053093630974001,48.15,11.85,94.5,-552.24609,169.92187,791.99219,-0.0961929490590414,-0.0277121633302407,-0.0322419908708668,51.75,26.4,38.1
-908.20312,476.07422,-44.43359,-0.0939280352887284,-0.0221164632154217,-0.067015232755901,-3.15,33.3,30.3,380.37109,122.55859,916.01562,-0.058088746296576,-0.0421010067495324,0.2395497559618005,46.5,11.25,93.6,-562.5,151.36719,788.08594,-0.1167105161467112,-0.0066615726890119,-0.0166539317225298,49.65,26.1,37.35
-906.73828,488.28125,-48.33984,-0.0925956509377559,-0.0487625794385443,0.0118575924051242,-2.4,33.6,31.35,376.95312,111.32813,915.52734,-0.0634181091675407,-0.0130566336012443,0.2434133913269403,46.65,12.6,93.45,-572.26562,123.04688,796.875,-0.1060521394706322,-0.0186523337160634,-0.0331745202902074,50.1,27.0,39.0
-906.73828,479.98047,-42.48047,-0.1783965605645728,0.0166539317225298,-0.0181194846954295,-3.45,33.3,31.35,368.16406,105.46875,914.0625,-0.0767412545455646,-0.0191853572696224,0.2138361691580184,47.55,10.8,94.65,-590.82031,130.37109,772.46094,-0.1000565844241813,-0.0019984019935335,-0.0438330714992115,50.25,27.15,39.15
-897.94922,474.60937,-50.78125,-0.1185757495183175,-0.0317089673173077,0.0298437339457014,-3.15,34.8,31.65,357.91016,66.89453,923.33984,-0.1283017713079811,0.0440995832759911,0.2571362171036709,47.55,10.8,94.65,-610.83984,116.21094,798.82812,-0.1233720888357231,-0.0007993607974134,-0.0263797789792682,50.25,27.9,39.9
-884.27734,454.10156,-41.99219,-0.0996569040254746,-0.0105252080541518,0.0358392889921523,-3.3,33.0,30.9,358.88672,51.26953,925.78125,-0.0732771250462063,0.0125237845806105,0.2106385514354396,48.3,11.55,94.05,-618.65234,125.48828,813.96484,-0.0992572236267679,0.0278453319521679,0.0054625314928918,50.1,27.0,37.5
-902.34375,461.91406,-48.33984,-0.1284349399299083,0.0157212277702641,-0.0351730968166661,-3.3,33.0,30.9,347.65625,48.33984,916.50391,-0.1024548413493467,0.0242480338308824,0.2046431709219139,47.55,12.45,94.05,-609.86328,115.72266,792.96875,-0.0852680606061829,-0.011191400229638,-0.0806048899107045,50.1,27.0,37.5
-900.87891,481.44531,-59.57031,-0.1328315988486072,0.0361056262360067,-0.0744763407752516,-2.7,34.05,31.35,361.81641,42.96875,930.66406,-0.0314426300734534,0.0021317451483858,0.2019785767528942,47.25,13.5,95.1,-612.30469,132.8125,814.94141,-0.0702128504784798,-0.0089264864593249,-0.0572893854991626,50.1,27.0,39.0
-874.51172,483.39844,-52.73438,-0.0933951862680945,0.0375711792089063,-0.0198513749121835,-2.4,34.8,31.65,368.16406,53.22266,938.47656,-0.020117886688963,-0.0126569532025376,0.1681378642872005,46.8,11.55,94.65,-610.83984,134.27734,807.12891,-0.0952604196397009,-0.0488959225933967,-0.0182526533173567,50.1,27.0,39.0
-892.57812,474.60937,-40.52734,-0.1428239578821251,0.0794058487145844,-0.016787100344457,-2.55,34.2,31.5,364.25781,51.26953,946.28906,0.0203843984657425,-0.0038636353651398,0.1441561677001724,47.7,11.85,93.75,-604.00391,142.08984,817.87109,-0.0382373713843925,-0.04849624219469,-0.0146553551960711,50.25,25.35,38.4
-886.23047,472.16797,-43.94531,-0.1424242774834185,0.0803383781339249,-0.0065284040670847,-2.7,34.35,30.0,369.62891,68.35938,953.61328,0.0189188454928429,0.0455651362488907,0.1961163648612956,48.0,11.55,94.05,-596.19141,149.41406,811.03516,-0.054091942309509,-0.0378376909856858,0.0496952833908101,50.25,25.65,38.4
-894.04297,453.61328,-62.5,-0.0560903443030425,0.0664823837352672,-0.0483628990398376,-2.7,34.35,30.0,362.79297,77.63672,939.94141,-0.0081271256619115,0.0463644970463041,0.2033109611038666,48.0,11.55,94.05,-589.35547,178.22266,789.55078,-0.0908637607210019,-0.1113813278086717,0.0263797789792682,50.7,27.15,38.7
-911.62109,461.91406,-53.22266,-0.1173767083221974,0.1333644478692411,-0.0660827033365605,-2.7,34.35,30.0,379.39453,90.82031,932.12891,0.0542251109314362,0.0171867807431637,0.1736002212471671,47.1,13.35,94.5,-583.98437,189.45312,793.45703,-0.0981913510525749,-0.0635512777894679,-0.0118575924051242,50.25,27.15,39.45
-922.36328,469.23828,-55.66406,-0.094860564708069,0.1472204422678988,-0.0572893854991626,-2.25,34.2,31.2,367.1875,79.58984,942.38281,0.0867336135790826,0.0231821612566894,0.2009127041787012,47.55,12.45,94.05,-568.35937,187.98828,791.50391,-0.1534823345582041,-0.0576890658978693,0.0672817445326806,51.0,26.4,40.2
-938.96484,466.79687,-55.17578,-0.0390367321818059,0.0552909835056291,-0.0109248884528585,-3.0,34.2,31.5,361.32812,113.76953,918.94531,0.0863337586474507,0.0005328490206338,0.2115712553877054,46.5,12.75,94.05,-567.87109,154.29687,775.39062,-0.1469541050240445,-0.1121806886060851,0.0378376909856858,51.6,25.5,39.6
-956.05469,471.67969,-54.19922,-0.0722112524720134,0.1264363634034496,-0.0394364125805126,-2.25,33.75,32.55,358.39844,104.98047,893.06641,0.0556906639043358,0.077540615342978,0.2030444493270871,46.5,12.75,94.05,-570.3125,132.8125,838.37891,-0.1097826062138449,-0.0102588708102974,0.093128674491315,51.6,25.5,39.6
-958.49609,458.00781,-48.33984,-0.0684807857288007,0.0562235129249697,-0.1172435397002702,-2.7,33.6,31.65,372.07031,106.44531,895.50781,0.0142556747973644,0.0265129476011954,0.2628652603733424,45.6,11.85,92.7,-582.51953,132.8125,868.16406,-0.176797838969746,-0.0571562168772355,0.0743429976203992,49.95,27.15,38.7
-909.17969,450.19531,-20.01953,-0.0366386497895657,-0.0030642745677264,-0.0335742006889141,-2.7,33.6,31.65,405.27344,93.75,931.15234,-0.0173201238980161,0.0341072242424731,0.2949739080893568,48.0,12.45,93.6,-576.66016,110.35156,832.51953,-0.2909769295693646,-0.0812710820861907,0.0872664625997164,49.95,27.15,38.7
-844.23828,452.63672,-2.92969,-0.0311761182966739,0.059687642424328,-0.0219831200605693,-3.45,35.1,30.0,424.31641,80.56641,955.07812,-0.0207840788644492,0.0676814249313873,0.2983046944338628,48.0,12.45,93.6,-564.94141,86.91406,785.64453,-0.2063752356715931,-0.0606201718436686,0.0355727772153728,49.65,25.35,40.2
-818.35937,467.28516,-20.50781,-0.0333078634450597,0.1133797298022052,-0.0186523337160634,-1.8,34.5,31.5,420.89844,64.94141,945.3125,-0.0483628990398376,0.0659495347146333,0.3033675455280479,47.4,13.35,93.75,-551.75781,97.65625,784.66797,-0.2518070287656315,-0.1031210335248329,0.0606201718436686,50.1,25.8,37.5
-851.07422,450.68359,-31.25,-0.1005896079777403,0.225294081164436,-0.0349065850398865,-3.3,34.95,30.9,391.11328,58.59375,923.82812,0.0051960197161123,0.0478300500192038,0.248742754197905,46.2,11.25,92.85,-556.64062,98.14453,794.92187,-0.2820506176429648,-0.1422909343285661,0.0456983048708179,50.1,25.8,37.5
-876.46484,476.5625,-40.03906,-0.0158545709251164,0.171202138854927,-0.0430337107017981,-3.3,34.95,30.9,380.37109,30.76172,910.64453,-0.0289112045263608,0.0393032439585855,0.2955069316429159,46.5,13.5,95.1,-556.15234,131.34766,824.21875,-0.3213536870686251,-0.0903307371674429,-0.0178529729186499,49.95,26.7,39.45
-900.39062,486.32812,-46.38672,-0.0961929490590414,0.1662726309155942,0.0294440535469947,-3.75,34.8,30.3,379.88281,44.43359,898.92578,0.0262466103573411,0.0130566336012443,0.3206876694260641,46.5,13.5,95.1,-544.92187,127.92969,839.35547,-0.3870367100064789,-0.0671485759107534,-0.0155880591483369,50.55,26.25,39.6
-908.69141,511.71875,-46.38672,-0.1281684281531288,0.2066415729154474,0.007860613885132,-4.95,34.8,31.65,404.78516,38.08594,896.48437,0.0398360929792193,0.0860674214035963,0.3441363424595331,46.8,12.0,92.85,-543.45703,130.85937,826.17187,-0.367051991939443,-0.0353062654385932,0.0194516945134768,50.25,27.15,39.45
-914.55078,519.53125,-63.47656,-0.1092495826602858,0.1306998537002213,0.0570230482553083,-2.55,34.95,29.1,399.41406,56.64063,889.64844,0.0202512298438154,0.0883323351739094,0.3333446226286018,46.2,12.75,94.35,-554.6875,143.55469,831.54297,-0.4175466361276666,-0.0627519169920545,0.0506278128101507,48.75,27.0,39.3
-923.33984,513.67187,-71.77734,-0.1249709849634751,0.0955267568835552,0.1189754299170242,-3.15,32.85,30.0,411.13281,78.125,899.90234,0.0103920394322246,0.1469541050240445,0.3641208859936438,47.1,12.15,95.25,-550.29297,118.65234,894.04297,-0.4314028050592496,-0.0118575924051242,0.0459648166475974,48.75,27.0,39.3
-916.50391,502.92969,-43.94531,-0.1653399269633284,0.0985910314512816,0.0538254305327295,-3.15,32.85,30.0,442.38281,62.98828,934.08203,-0.0123904414257581,0.1187090926731699,0.3726476920542621,47.7,12.6,95.25,-561.52344,123.04688,926.26953,-0.4224763185999245,0.0278453319521679,0.0560903443030425,50.85,25.8,38.25
-888.18359,494.62891,-47.36328,-0.1594777150717298,-0.0265129476011954,-0.0121241041819038,-4.05,34.95,31.5,456.05469,44.92188,972.16797,-0.0454317930940384,0.1067181571131932,0.3521301249665923,46.8,11.25,93.3,-554.6875,103.02734,874.02344,-0.4521868839236989,-0.0488959225933967,0.0335742006889141,50.85,25.8,38.25
-886.71875,490.23437,-48.33984,-0.1682710329091277,0.0255804181818548,-0.0373046674321268,-4.5,33.3,30.0,454.58984,43.45703,973.63281,-0.0226493122360556,0.0856677410048896,0.3578591682362637,46.35,11.4,95.55,-525.39062,93.26172,890.625,-0.3677181841149293,-0.0105252080541518,0.1111148160318922,49.8,25.8,39.6
-881.34766,517.57812,-34.66797,-0.1830597312600512,0.0383705400063197,-0.0063950609122324,-1.65,35.1,30.3,446.28906,19.04297,968.26172,0.0102588708102974,0.057422728654015,0.3698499292633152,46.35,11.4,95.55,-551.75781,83.49609,919.92187,-0.3465344248517733,0.0189188454928429,0.0634181091675407,50.85,24.75,39.0
-893.06641,513.18359,-41.99219,-0.1565467836588557,-0.0335742006889141,-0.0195850376683291,-2.4,34.8,30.3,433.59375,-3.41797,958.98437,0.0226493122360556,0.0343737360192527,0.3162910105073652,46.65,12.15,94.2,-525.39062,65.91797,889.64844,-0.3408055561150271,-0.0206509102425221,0.050761155965003,49.8,25.05,39.6
-891.11328,531.73828,-39.55078,-0.2428805423063064,0.0434333911005048,-0.1105819670112583,-2.4,34.8,30.3,434.57031,7.32422,925.78125,0.0599539796681824,0.0812710820861907,0.3320122382776293,46.35,12.6,94.2,-515.625,72.75391,879.88281,-0.2430137109282336,-0.0090596550812521,0.1476202971995308,50.25,24.6,39.9
-917.48047,536.62109,-48.82813,-0.2298239087050621,-0.0401026047559989,-0.1064518198693389,-3.45,35.55,30.6,448.24219,18.55469,903.32031,0.0654165111610742,0.1025880099712739,0.2743231723797599,47.25,12.45,92.85,-492.1875,62.98828,883.78906,-0.2852480608326184,0.0544916227082157,0.1352296812408474,49.65,26.1,39.9
-919.92187,556.15234,-24.90234,-0.2407487971579206,-0.113246561180278,-0.0759418937481512,-3.45,34.8,31.05,443.84766,13.67187,906.73828,0.0928621627145355,0.0615528757959344,0.2680612800894547,47.25,12.45,92.85,-489.25781,65.91797,906.73828,-0.1866570293813367,0.0803383781339249,0.0979250138087206,50.25,24.9,38.4
-914.0625,566.40625,-24.41406,-0.3226860714195976,-0.1386936362072806,-0.1858576685839233,-2.1,34.35,30.6,471.67969,12.69531,894.04297,0.1083170532409452,0.1055191159170731,0.3198883086286507,47.4,11.4,94.8,-501.46484,57.12891,879.39453,-0.261000027001736,0.0796723604913639,0.1099157748357721,50.25,24.9,38.4
-914.55078,575.68359,-18.06641,-0.4420613562682537,-0.2061087238948135,-0.2617993877991494,-3.15,35.55,32.1,482.91016,22.46094,916.99219,0.128834620328615,0.0932618431132422,0.2940413786700163,46.8,11.55,94.35,-489.25781,58.59375,866.21094,-0.2315559734547413,0.0526263893366094,0.1275022359776425,49.2,25.35,39.15
-904.29687,578.61328,-11.23047,-0.4525865643224055,-0.2230291673941229,-0.232621671496009,-3.15,35.55,32.1,469.72656,8.78906,905.76172,0.1304333419234418,0.1031210335248329,0.2983046944338628,46.8,11.55,94.35,-504.88281,54.6875,862.79297,-0.1897213039490632,0.0892648645932499,0.1183094122744632,49.95,24.15,40.5
-884.76562,588.37891,-9.27734,-0.6264532973463522,-0.2446126070559856,-0.2792526803190927,-3.75,34.35,31.65,473.63281,-1.95312,900.87891,0.1465544246253378,0.0772741035661985,0.2500749640159523,46.8,11.55,94.35,-530.27344,27.34375,895.01953,-0.2070414278470793,0.0758085505932989,0.1092495826602858,50.85,25.05,40.65
-859.375,579.58984,26.85547,-0.7448958782427426,-0.2522067091643382,-0.3341439834260152,-4.2,34.35,31.65,447.75391,13.18359,890.625,0.1733338840033128,0.0879326547752027,0.2001133433812878,47.7,13.35,94.5,-527.83203,29.78516,907.22656,-0.2101057024148057,0.0293108849250675,0.1398928519363259,49.2,25.35,39.45
-831.54297,567.38281,16.11328,-0.862139417943013,-0.2560705190624032,-0.3513307641691789,-3.3,33.75,32.55,445.80078,15.13672,897.46094,0.1513507639427435,0.0952604196397009,0.22196329481993,48.15,12.15,96.0,-530.76172,44.43359,866.21094,-0.2150352103541385,0.0017320647496791,0.0812710820861907,49.8,22.95,40.05
-818.84766,551.26953,28.80859,-0.94527573340081,-0.3132267359396388,-0.3695834174865356,-3.15,35.1,31.05,436.03516,30.76172,917.96875,0.1268362183350815,0.0635512777894679,0.2216967830431505,47.55,12.75,94.65,-523.4375,42.96875,865.23437,-0.2154348907528452,0.0892648645932499,0.0462311538914518,48.75,27.0,40.05
-791.99219,542.96875,34.17969,-1.0818376244597048,-0.2430137109282336,-0.4591147938565652,-3.15,35.1,31.05,419.43359,54.19922,910.15625,0.0991240550048407,0.1239051123892822,0.242081181508893,47.55,12.75,94.65,-558.10547,73.73047,862.79297,-0.2127702965838255,0.1316323831195619,0.0534257501340228,48.75,27.0,40.05
-779.29687,483.88672,37.10938,-1.0543919729062436,-0.2599341544275431,-0.4655098547687976,-3.15,36.9,32.7,397.46094,58.10547,935.54687,0.0728774446474996,0.087532974376496,0.248742754197905,49.2,13.35,94.8,-538.57422,61.52344,870.60547,-0.287779486379711,0.0419678381276052,0.0490290912153239,48.15,24.6,39.9
-761.23047,476.07422,28.32031,-1.0597213357772082,-0.1803951370910315,-0.5029478653557767,-2.4,35.1,34.2,383.30078,70.3125,927.73437,0.0823369546603836,0.0476967068643514,0.1818606900639311,47.25,12.45,95.7,-533.20312,75.68359,869.14062,-0.2187656770973512,0.0955267568835552,0.0511608363637097,48.15,24.6,39.9
-798.33984,477.05078,25.87891,-1.1208743566415107,-0.0976585020319411,-0.605669218481903,-2.25,35.25,33.6,397.94922,67.38281,924.80469,0.0458314734927451,-0.0173201238980161,0.2803185528932856,46.8,12.75,94.35,-520.01953,75.19531,860.83984,-0.3161576673525128,0.0707458740320389,0.060753514998521,48.15,24.6,39.9
-838.86719,467.77344,16.11328,-1.0834365205874568,-0.134430320443434,-0.5667656549220242,-1.35,36.6,33.15,401.36719,59.08203,920.41016,0.0259800985805615,-0.0241148652089552,0.2358192892185878,46.2,13.2,94.35,-537.10937,56.64063,879.88281,-0.2773874469474863,0.0411684773301918,0.051827028539196,51.15,24.75,39.6
-899.41406,482.91016,25.39063,-1.0635849711423482,-0.1512174207878911,-0.6002066869890113,-1.35,36.6,33.15,404.78516,48.82813,903.80859,-0.013456313999951,-0.0125237845806105,0.2272924831579695,46.8,13.5,93.6,-528.80859,56.64063,875.97656,-0.2082404690431994,0.0871332939777893,0.0726111074036452,50.1,25.8,40.35
-895.01953,477.05078,17.08984,-1.117010721276371,-0.1219065358628235,-0.657496247021099,-1.05,35.85,34.8,420.89844,23.4375,913.57422,0.0163874199457503,0.0187856768709157,0.2139693377799456,47.7,13.35,93.75,-536.62109,27.34375,887.69531,-0.1314992144976347,0.0735436368229858,0.0682144484849463,49.8,25.5,40.65
-897.94922,472.16797,37.59766,-1.0493292963449836,-0.2280918439553829,-0.5990076457928911,-0.75,36.0,34.35,426.26953,-18.06641,904.29687,0.0291777163031404,0.0279785005740951,0.1894547921722836,47.7,13.35,93.75,-539.55078,19.53125,914.55078,-0.0650168307623675,0.0676814249313873,0.0456983048708179,49.65,26.1,38.7
-890.625,440.42969,26.36719,-1.0204180918186228,-0.1886554313748702,-0.587816245563253,-1.05,35.1,35.85,457.03125,-41.01563,919.43359,0.0285115241276541,0.0475635382424242,0.0722112524720134,47.7,13.35,94.2,-537.59766,-10.25391,900.87891,-0.0516936853843436,0.0731439564242791,0.0361056262360067,50.85,25.05,38.55
-906.73828,431.15234,34.17969,-1.0070949464405987,-0.182393539084565,-0.5946109868741921,-1.65,36.9,34.8,464.84375,-44.43359,931.64062,0.0666155523571943,0.0159877395470436,0.0659495347146333,47.25,14.25,94.05,-537.10937,-3.90625,906.73828,0.0222496318373489,0.0866002704242302,0.0877993116203503,50.55,25.8,40.05
-940.42969,403.80859,48.33984,-0.959797919974954,-0.3934317709187113,-0.665889709926865,-1.65,36.9,34.8,445.80078,-32.22656,935.54687,0.1127137121596442,0.0006661921754862,0.0013323843509724,47.1,13.65,94.8,-546.38672,-3.41797,893.55469,0.0635512777894679,0.0385038831611721,0.085934078248744,50.55,25.8,40.05
-903.32031,398.4375,62.5,-0.9500720727182156,-0.4600474978088309,-0.6910704477100131,-1.65,36.9,34.8,434.08203,-42.96875,930.66406,0.1386936362072806,-0.0158545709251164,-0.0230489926347623,47.1,13.65,94.8,-514.16016,-3.41797,894.04297,0.1682710329091277,0.0245145456076619,0.1072511806667523,48.75,25.05,40.35
-918.94531,390.625,78.61328,-0.964860596536214,-0.5339908150305235,-0.7122542069731691,-1.05,36.6,34.8,429.6875,-29.78516,946.77734,0.1476202971995308,-0.0285115241276541,-0.0523598775598298,46.8,13.2,93.6,-530.76172,23.92578,880.85937,0.207441108245786,0.0219831200605693,0.0796723604913639,48.75,25.05,40.35
-889.16016,391.11328,93.26172,-0.9200949956176618,-0.5680980392729966,-0.6656233726830106,-0.15,36.45,37.5,427.73437,-3.90625,932.12891,0.1994471512058016,-0.0480965617959833,-0.1241714496331365,46.35,12.6,93.45,-542.96875,47.85156,882.32422,0.1560137601052967,0.0590214502488418,0.0646171503636608,50.1,25.05,39.6
-893.55469,389.16016,94.23828,-0.8697335200513655,-0.559837744989158,-0.6203245736779742,-0.6,37.35,36.3,423.82812,33.20313,944.82422,0.1997136629825811,-0.0227824808579827,-0.1441561677001724,45.9,14.85,93.15,-558.10547,54.19922,872.55859,0.2087733180638333,0.0143890179522168,0.0560903443030425,50.1,24.3,40.05
-917.96875,365.23437,100.58594,-0.8783934947339109,-0.5474471290304745,-0.5991408144148183,-0.15,35.25,36.45,411.62109,50.29297,943.35937,0.1959831962393684,0.0021317451483858,-0.1277687477544221,46.35,14.4,94.5,-553.22266,52.73438,829.58984,0.1312327027208552,0.0286446927495813,0.0381042027624654,49.05,26.25,39.6
-920.89844,338.37891,97.65625,-0.8414885077004909,-0.486960125808733,-0.6145957049412281,-0.15,35.25,36.45,388.18359,78.61328,916.99219,0.1376279381660128,0.0531592383572432,-0.1425574461053456,47.7,13.35,93.75,-563.96484,51.75781,845.70312,0.1779968801658661,0.0812710820861907,0.0077274452632048,49.35,24.75,41.1
-908.69141,328.125,108.39844,-0.7452955586414494,-0.5517106193272464,-0.6115314303735015,-0.15,37.2,38.55,364.74609,77.14844,920.41016,0.1147121141531777,0.0042633157638465,-0.1573461444562691,46.65,13.35,94.8,-571.77734,71.77734,835.44922,0.1265697065583019,0.073676805444913,0.0238483534321757,49.05,25.5,39.3
-880.85937,338.86719,113.76953,-0.6993307419938519,-0.5242649677737851,-0.671485410041684,0.45,34.95,37.8,376.95312,90.33203,927.24609,0.1192419416938038,-0.0041301471419193,-0.0892648645932499,46.65,13.35,94.8,-563.96484,72.75391,827.14844,0.1866570293813367,0.0651499993842947,0.0536922619108023,49.95,25.35,38.7
-870.60547,357.42187,108.88672,-0.6195252128805608,-0.4187458518567119,-0.6304502758663445,1.35,36.6,37.95,379.39453,78.125,921.875,0.1184425808963904,-0.0206509102425221,-0.1646737347878422,47.4,13.65,94.8,-553.71094,85.9375,814.45312,0.1091164140383586,0.073676805444913,0.0069280844657914,49.95,25.35,38.7
-892.08984,366.69922,123.53516,-0.5890152867593731,-0.4251409127689443,-0.4926891690784045,1.2,36.45,39.15,387.69531,62.98828,906.73828,0.0718115720733066,-0.0029311059457992,-0.1421577657066389,47.1,14.1,94.2,-574.21875,99.12109,843.26172,0.1886554313748702,0.1071178375118999,0.0522267089379027,49.05,24.75,39.3
-900.87891,357.42187,125.0,-0.6020719203606175,-0.3559939348646574,-0.5323920934356967,1.2,36.45,39.15,372.55859,68.35938,916.01562,0.0543582795533633,0.0209172474863764,-0.1586783542743164,47.4,15.15,94.2,-591.30859,112.30469,805.17578,0.1362955538150403,0.1497518678149914,0.0972588216332344,49.05,24.75,39.3
-919.43359,373.04687,142.08984,-0.5334579660098896,-0.3834395864181186,-0.543183813266628,1.2,35.25,39.6,383.30078,67.38281,919.92187,0.1257703457608885,0.0443659205198454,-0.1660061191388146,47.4,15.15,94.2,-586.91406,115.23438,822.75391,0.1700030976588069,0.1345634890653612,0.1152449631738115,49.65,25.65,40.2
-911.62109,329.10156,122.55859,-0.4908239357067981,-0.4468575210527342,-0.5310597090847242,0.75,37.2,40.2,375.97656,67.38281,938.96484,0.10205516095064,0.0103920394322246,-0.1949173236651755,47.7,13.35,93.75,-603.02734,142.57812,823.73047,0.1873230470238978,0.1873230470238978,0.0618192130397887,50.1,25.05,39.0
-900.39062,304.6875,149.90234,-0.4707060490178351,-0.4171469557289599,-0.4564501996875454,2.4,35.85,39.75,361.32812,88.86719,933.59375,0.1203078142679967,0.0018652333716063,-0.2146355299554318,46.2,13.95,94.35,-597.65625,120.11719,805.17578,0.1236386006125027,0.08420218803199,0.1342971518215068,48.9,25.65,39.9
-898.92578,282.22656,151.36719,-0.4214104460257317,-0.4130168085870405,-0.4817641060926207,2.4,36.9,40.5,384.27734,98.14453,939.45312,0.1357627047944065,-0.0199847180670358,-0.1251041535854023,46.2,13.95,94.35,-588.37891,134.27734,828.61328,0.196249708016148,0.1005896079777403,0.0976585020319411,49.8,26.55,39.3
-910.15625,303.22266,155.27344,-0.2831163156842325,-0.3495986994194998,-0.4533859251198189,2.4,36.9,40.5,360.35156,93.75,951.66016,0.1486859952407985,-0.0097258472567384,-0.1314992144976347,46.65,13.35,93.15,-605.95703,118.65234,790.03906,0.1560137601052967,0.0638177895662474,0.1113813278086717,49.8,26.55,39.3
-959.96094,312.01172,148.4375,-0.2752557017991005,-0.2262266105837766,-0.4561838624436911,4.35,36.45,40.65,342.28516,110.83984,941.40625,0.1303001733015146,-0.0247810573844414,-0.1485528266188713,46.8,13.5,93.3,-595.70312,112.30469,807.12891,0.2276921635566762,0.0708790426539661,0.1144456023763981,49.35,27.0,39.3
-976.5625,315.91797,158.20312,-0.2587351132314229,-0.1930520902935692,-0.4168806184851056,2.1,35.55,41.1,362.30469,114.25781,929.19922,0.0832694840797242,0.0369049870334201,-0.114312433754471,47.25,13.95,94.35,-593.75,118.16406,814.94141,0.2276921635566762,0.0885988469506889,0.0695466583029936,51.15,25.8,40.35
-983.39844,318.35937,163.57422,-0.1845252842329509,-0.2372848421914875,-0.3130933927847864,3.45,35.55,39.75,359.86328,112.30469,953.61328,0.0520933657830503,0.0325085026476463,-0.1510842521659639,47.25,13.95,94.35,-605.46875,92.77344,811.03516,0.1649402465646217,0.0655498543159266,0.0498284520127373,51.15,25.8,40.35
-968.26172,310.54687,159.66797,-0.1694700741052478,-0.2276921635566762,-0.335742705020842,3.0,36.45,40.95,352.53906,83.00781,937.98828,0.0735436368229858,0.0154548905264097,-0.215301722130918,47.25,13.95,94.35,-601.5625,99.12109,838.37891,0.2094395102393195,0.1193751103157309,0.0631515973907612,51.15,25.8,37.2
-960.44922,312.98828,181.64062,-0.1312327027208552,-0.205842212118034,-0.3150917947783199,3.0,36.45,40.95,374.02344,80.07813,950.68359,0.0606201718436686,-0.0242480338308824,-0.1787964154962047,45.45,13.5,93.6,-594.72656,69.82422,817.38281,0.2206309104689576,0.1191087730718766,0.0650168307623675,51.15,25.8,37.2
-946.77734,314.45312,168.94531,-0.0788728251610253,-0.1990474708070949,-0.2456784796301786,3.0,34.2,41.25,374.02344,72.26563,942.87109,0.0370383301882724,-0.0554241521275563,-0.2208974222457371,47.25,13.5,94.35,-582.51953,82.03125,832.51953,0.2311562930560345,0.1104486238564059,0.1187090926731699,49.05,27.75,38.55
-947.26562,313.96484,170.89844,-0.0604870032217414,-0.175731966395553,-0.2139693377799456,3.75,34.8,40.8,373.04687,82.03125,946.28906,0.1016554805519333,-0.029044373148288,-0.1958498530845161,46.8,14.25,94.05,-587.40234,99.12109,801.75781,0.2689938095087952,0.0854012292281101,0.0527595579585365,50.55,26.25,38.55
-958.49609,299.31641,166.50391,-0.068081105330094,-0.0447657754514773,-0.2583354328327162,4.05,34.95,40.2,379.88281,79.58984,933.59375,0.1268362183350815,0.0110582316077108,-0.225960098806997,46.65,14.85,94.5,-594.23828,85.44922,819.33594,0.2444792639011333,0.0751423584178126,0.0229158240128351,49.65,27.15,39.15
-982.91016,327.14844,190.91797,-0.0222496318373489,-0.0776737839649052,-0.1762649899491121,4.05,34.95,40.2,379.39453,94.23828,926.26953,0.0656830229378538,-0.0165205885676775,-0.3043000749473886,47.1,14.1,93.45,-592.77344,89.84375,839.84375,0.2907105923255103,0.0800720408900706,-0.0425006871482391,49.05,27.0,38.55
-999.51172,333.00781,175.78125,0.0089264864593249,-0.0311761182966739,-0.1239051123892822,4.05,34.95,40.2,366.69922,80.56641,937.5,0.067015232755901,0.0158545709251164,-0.2851148922106912,46.2,13.95,94.35,-588.37891,84.47266,816.40625,0.2122374475631916,0.0094593354799588,-0.0058622118915985,50.85,27.0,40.05
-991.69922,351.07422,164.0625,-0.0631515973907612,0.0107917198309313,-0.128834620328615,3.3,34.2,41.7,375.97656,82.03125,922.85156,0.0800720408900706,0.0177198042967228,-0.2689938095087952,46.2,13.95,94.35,-582.03125,87.40234,816.40625,0.223695185036684,0.0900643999235885,-0.0495619402359577,48.3,25.8,39.0
-950.68359,350.58594,178.71094,-0.0394364125805126,-0.0956601000384076,-0.0643506385868813,3.45,35.55,42.15,380.85937,90.82031,918.94531,0.0439662401211387,-0.0291777163031404,-0.2885788471771244,48.0,13.95,92.85,-595.21484,87.40234,822.26562,0.254338454312724,0.0748760211739583,-0.0952604196397009,48.3,25.8,39.0
-931.15234,354.00391,187.01172,-0.0037304667432126,-0.1295008125041012,-0.050228132411444,4.65,35.25,40.65,389.16016,63.96484,943.84766,0.0401026047559989,-0.0113245688515652,-0.295640100264843,45.6,14.85,91.95,-605.95703,91.30859,814.45312,0.2763215743732934,0.0675482563094601,-0.0536922619108023,49.35,26.55,38.55
-898.4375,352.53906,200.19531,-0.0899310567687362,-0.0422343499043847,-0.0940612039106556,4.65,35.25,40.65,379.88281,72.26563,942.87109,0.0142556747973644,-0.0378376909856858,-0.3960965396206563,48.0,14.25,93.3,-609.86328,106.44531,847.16797,0.3767780137291066,0.0877993116203503,-0.0646171503636608,50.1,28.05,38.55
-900.39062,327.63672,208.00781,-0.068081105330094,-0.0010658725741929,-0.0764747427687851,3.75,35.1,41.1,388.67187,82.51953,953.125,0.0511608363637097,-0.0263797789792682,-0.425540593167651,48.0,14.25,93.3,-586.42578,117.67578,815.91797,0.3137595849602726,0.0876661429984231,-0.0210505906412288,49.05,26.25,39.3
-929.6875,331.54297,194.82422,-0.050761155965003,0.0199847180670358,-0.0471638578437175,4.2,35.1,41.85,384.76562,89.35547,943.35937,0.068081105330094,-0.0222496318373489,-0.4267396343637711,47.7,12.9,92.7,-576.17187,115.72266,820.3125,0.312294031987373,-0.0190520141147701,-0.0640843013430269,50.85,26.55,38.25
-944.82422,330.56641,207.51953,-0.0858009096268168,0.0472970264656447,-0.0960597804371143,3.75,34.05,41.55,379.88281,117.67578,926.75781,0.0423675185263119,-0.0439662401211387,-0.4187458518567119,47.25,13.5,94.05,-565.42969,138.18359,801.75781,0.3236186008389382,0.0500949637895168,-0.0552909835056291,50.25,29.7,37.35
-946.77734,332.03125,199.70703,0.0127901218244648,0.0077274452632048,-0.0612863640191548,4.05,35.25,41.7,376.46484,126.46484,885.25391,0.0018652333716063,-0.069680001457846,-0.4611133703830238,47.25,13.5,94.05,-555.66406,136.23047,826.17187,0.3292143009537572,0.0326416712695735,-0.0999234158022541,51.0,28.95,37.35
-951.17187,350.58594,190.42969,-0.0065284040670847,0.0075941021083525,-0.0588882816269146,4.05,35.25,41.7,396.48437,136.23047,903.80859,0.0123904414257581,-0.0286446927495813,-0.4111515752154342,48.6,16.2,94.65,-562.98828,168.94531,836.91406,0.3138927535821997,0.0590214502488418,-0.0933951862680945,51.0,28.95,37.35
-950.68359,348.63281,193.84766,-0.0550244717288496,0.031309286918601,-0.1305666850782942,3.15,35.55,41.1,410.15625,154.29687,869.62891,0.049162259837251,-0.0247810573844414,-0.4283383559585979,48.9,14.4,93.75,-536.62109,171.38672,780.76172,0.320154645872505,0.0496952833908101,-0.0977916706538682,48.9,27.45,37.05
-960.9375,338.37891,198.24219,-0.0071944217096458,0.0302434143444081,-0.0883323351739094,3.45,35.1,41.1,413.57422,152.83203,854.49219,0.0415681577288985,0.0351730968166661,-0.379309264743274,48.0,15.0,92.85,-558.10547,184.08203,812.98828,0.3032343769061208,0.0555574952824086,-0.0850015488294034,48.9,27.45,37.05
-960.9375,330.56641,199.70703,-0.0570230482553083,-0.0386370517830992,-0.0748760211739583,4.05,34.5,40.95,390.625,164.0625,872.07031,0.0407687969314851,0.0258469299586344,-0.3631883565743032,48.0,15.0,92.85,-539.55078,179.6875,792.48047,0.267661599690748,0.0433002224785777,-0.0672817445326806,51.45,27.45,37.65
-937.98828,303.71094,208.49609,-0.0868667822010097,-0.0054625314928918,-0.1219065358628235,3.6,35.7,42.0,389.16016,159.66797,852.53906,0.015055210127703,0.0066615726890119,-0.3571929760607775,46.35,13.35,93.45,-543.94531,186.03516,814.45312,0.1973154060574157,0.0436999028772844,-0.0973919902551615,51.0,27.9,37.35
-939.45312,300.78125,211.91406,-0.0354394340605204,-0.0289112045263608,-0.1131133925583509,3.6,35.7,42.0,394.53125,151.85547,857.42187,-0.0550244717288496,-0.0165205885676775,-0.32401845577057,48.0,13.95,94.05,-545.89844,200.68359,851.5625,0.1634746935917221,-0.0137228257767306,-0.0885988469506889,51.15,28.05,37.2
-905.27344,305.66406,248.04687,-0.0131899767560967,0.0203843984657425,-0.11990813386929,3.6,35.7,42.0,420.89844,163.08594,872.07031,-0.0551578148837019,0.002264913770313,-0.3478668092027458,47.1,14.4,93.45,-524.90234,237.79297,878.90625,0.1039203943222463,-0.0335742006889141,-0.067015232755901,50.25,28.95,37.35
-878.90625,303.22266,250.48828,-0.073676805444913,0.0345069046411798,-0.150018379591771,3.15,34.8,41.85,466.30859,164.0625,906.25,-0.0487625794385443,0.0166539317225298,-0.3164241791292924,48.0,13.5,92.85,-516.11328,244.14062,884.27734,0.0351730968166661,-0.0237151848102485,-0.0367718184114929,50.25,28.95,37.35
-870.11719,302.73437,251.95312,-0.0171867807431637,0.0062618922903052,-0.0616860444178615,3.6,34.5,41.7,446.77734,191.40625,910.64453,-0.0433002224785777,-0.0716784034513795,-0.2568698798598167,48.45,14.1,94.8,-535.64453,261.71875,866.21094,0.0335742006889141,0.0043966589186989,-0.0459648166475974,49.8,26.55,36.9
-833.00781,293.45703,252.92969,-0.0322419908708668,-0.0314426300734534,-0.0827366350590903,3.45,34.35,42.15,455.07812,216.79687,894.53125,-0.039569755735365,-0.1113813278086717,-0.1998468316045083,47.55,15.0,93.3,-527.34375,234.375,874.51172,0.018385996472209,-0.0407687969314851,-0.0271791397766816,50.25,26.7,39.15
-831.05469,315.42969,263.67187,-0.1035207139235396,-0.0262466103573411,-0.0822036115055313,3.6,35.25,42.75,470.21484,223.63281,888.18359,-0.0838025076332833,-0.1156446435725182,-0.116577347524784,47.55,15.0,93.3,-506.34766,238.76953,852.53906,0.0682144484849463,-0.0700796818565527,0.0179861415405771,50.25,26.7,39.15
-847.65625,317.87109,274.41406,-0.1795957762936181,-0.1402925323350325,-0.1402925323350325,3.6,35.25,42.75,451.66016,214.35547,869.14062,-0.0831363154577971,-0.0526263893366094,-0.0179861415405771,46.65,13.65,93.15,-521.48437,183.10547,800.29297,0.1610766111994818,-0.0768744231674918,-0.0446324322966249,49.95,26.4,37.65
-890.625,339.84375,251.95312,-0.2123706161851188,-0.1890551117735769,-0.2202312300702509,3.0,34.2,42.0,402.34375,217.28516,861.81641,-0.0947273960861418,-0.0892648645932499,-0.0572893854991626,48.3,13.2,92.85,-517.08984,161.62109,792.96875,0.2167672751038177,-0.077540615342978,-0.0913966097416358,49.95,26.4,37.65
-980.95703,279.78516,240.72266,-0.2679279369346023,-0.0883323351739094,-0.0795390173365115,2.55,35.25,42.0,390.625,198.73047,848.63281,-0.1061853080925594,-0.0711455544307456,-0.0057288687367461,47.7,13.35,92.7,-518.06641,153.80859,857.42187,0.253805430759165,-0.0819372742616769,-0.1324319184499005,49.95,28.65,37.35
-999.02344,209.96094,235.35156,-0.2901775687719512,0.0243813769857347,0.0030642745677264,3.45,34.05,42.15,432.12891,158.69141,874.02344,-0.1317657262744143,-0.0458314734927451,-0.0302434143444081,47.7,13.35,92.7,-499.51172,130.37109,844.72656,0.2503414757927318,-0.0265129476011954,-0.1283017713079811,50.7,26.7,38.1
-991.21094,193.84766,244.62891,-0.1991806394290221,0.0626187483701273,0.0017320647496791,4.35,34.2,43.8,453.61328,117.67578,923.33984,-0.0846018684306967,0.0475635382424242,-0.1072511806667523,48.15,13.65,93.75,-514.64844,106.44531,859.86328,0.3292143009537572,-0.0317089673173077,-0.1899878157258427,50.85,26.25,39.0
-973.14453,181.64062,237.30469,-0.2387503951643871,0.1245711300318432,-0.0634181091675407,4.35,34.2,43.8,474.12109,74.21875,960.9375,-0.0371714988101996,0.0988575432280612,-0.1722680114291199,47.4,13.65,94.2,-535.64453,105.46875,875.97656,0.3841056040606797,0.0189188454928429,-0.2166339319489653,50.55,28.5,37.95
-976.07422,181.15234,220.21484,-0.1716018192536337,0.1177763887209041,0.0139893375535101,4.5,34.05,42.6,452.14844,85.9375,967.77344,0.0222496318373489,0.0802052095119978,-0.2093063416173923,47.4,13.65,94.2,-566.40625,122.07031,898.92578,0.3686508880671951,0.0067947413109391,-0.1624088210175291,49.65,27.15,39.15
-953.125,196.77734,210.9375,-0.1112481591867445,0.1036538825454668,0.022382800459276,4.35,34.95,42.75,420.41016,100.09766,961.42578,0.0616860444178615,0.0652833425391471,-0.18625734898263,49.35,13.2,94.05,-603.02734,156.73828,846.67969,0.2739234919810532,-0.0166539317225298,-0.219698381049617,50.1,27.75,36.9
-923.33984,207.51953,207.51953,-0.1358958734163337,0.150018379591771,0.029044373148288,3.45,36.6,41.85,375.48828,113.28125,947.75391,0.0130566336012443,0.0106585512090041,-0.1749326055981396,47.4,13.35,92.7,-614.74609,197.26562,850.09766,0.230889781279255,0.0051960197161123,-0.2246278889889497,50.1,27.75,36.9
-887.69531,200.68359,180.17578,-0.0961929490590414,0.174000076178799,0.016787100344457,3.3,34.5,42.0,357.42187,149.90234,950.19531,-0.0153215473715574,0.0062618922903052,-0.1033873707686873,47.25,13.95,92.55,-641.60156,225.09766,836.91406,0.1664057995375213,-0.0583552580733556,-0.2306232695024755,48.75,27.0,38.55
-874.02344,204.58984,163.08594,-0.0097258472567384,0.152283293362084,0.0854012292281101,3.3,34.5,42.0,342.77344,188.96484,979.00391,-0.0503614755662963,-0.0519601971611231,-0.1032542021467601,47.25,13.95,92.55,-640.13672,268.06641,854.49219,0.0976585020319411,-0.0286446927495813,-0.225294081164436,48.75,27.0,38.55
-897.94922,205.07812,163.57422,-0.0766079113907123,0.296705972839036,0.0840688448771376,4.5,35.1,42.6,370.60547,196.28906,1000.0,-0.1112481591867445,-0.0246477142295891,-0.0297105653237742,47.25,13.95,92.55,-613.28125,281.25,843.26172,0.0582220894514284,-0.0939280352887284,-0.1950504922871027,49.65,28.95,37.35
-921.38672,216.79687,174.80469,-0.0704793622552594,0.2993705670080557,0.1181760691196108,4.95,35.1,39.75,397.94922,208.00781,1002.92969,-0.0877993116203503,-0.0908637607210019,0.0105252080541518,47.4,13.65,92.4,-608.39844,307.61719,865.23437,-0.014522186574144,-0.098724374606134,-0.1942511314896893,51.0,27.15,37.35
-917.48047,218.26172,164.0625,-0.0121241041819038,0.2784533195216793,0.1171101965454179,4.05,35.25,42.3,397.46094,188.96484,974.60937,-0.0819372742616769,-0.0876661429984231,0.0209172474863764,48.45,13.65,93.75,-591.79687,277.83203,847.16797,-0.0302434143444081,-0.1123138572280122,-0.0702128504784798,49.65,27.15,38.4
-965.33203,201.17187,164.55078,0.0181194846954295,0.3778438863032995,0.1606769308007752,5.4,35.25,40.95,410.64453,166.99219,934.08203,-0.1231057515918688,-0.1596110582265822,0.0992572236267679,49.2,12.9,94.8,-549.80469,263.18359,831.54297,-0.0439662401211387,-0.1259035143828157,-0.085934078248744,51.0,25.65,38.1
-1040.52734,142.08984,134.76562,0.0662158719584876,0.3649204213239824,0.1617428033749681,5.4,35.25,40.95,435.05859,132.32422,892.08984,-0.0766079113907123,-0.2468775208262987,0.0796723604913639,47.7,14.1,93.15,-514.16016,227.05078,832.51953,-0.1173767083221974,-0.080871401687484,-0.0462311538914518,50.55,26.55,38.55
-1016.11328,60.05859,135.25391,0.1923858981180829,0.2819172744881125,0.3132267359396388,3.75,35.1,41.55,471.19141,130.85937,847.16797,-0.041301645952119,-0.1797289449155452,0.1084502218628724,48.6,14.25,93.6,-472.16797,212.89062,843.26172,-0.1248376418086228,-0.1191087730718766,-0.0648836621404404,50.85,26.55,37.95
-1031.25,-49.31641,137.20703,0.4376646973495548,0.3589250408104567,0.3404058757163204,3.45,35.55,41.85,463.86719,123.53516,849.60937,-0.0683476171068735,-0.0544916227082157,0.134430320443434,48.9,14.1,93.45,-460.44922,186.52344,798.82812,-0.1474869540446784,-0.0382373713843925,-0.0672817445326806,50.85,26.55,37.95
-1065.91797,-97.65625,147.46094,0.6700198570687844,0.542650789713069,0.5225329030241059,2.55,36.0,42.75,463.86719,111.81641,865.72266,-0.0868667822010097,-0.0464976656682313,0.1886554313748702,48.9,14.1,93.45,-472.65625,194.33594,816.40625,-0.0949939078629213,-0.0214502710399355,-0.0286446927495813,50.1,26.55,37.95
-1075.19531,-83.98438,154.78516,1.0421347001024126,0.6441731016430752,0.7833997614039148,3.15,35.55,41.55,463.37891,138.18359,878.41797,-0.0397029243572922,-0.0229158240128351,0.1989143021851677,46.35,14.85,94.2,-475.58594,206.05469,801.75781,-0.0872664625997164,-0.0039969785199922,-0.0005328490206338,50.1,26.55,37.95
-1075.19531,-8.30078,134.76562,1.2674287812668483,0.6928025124596923,1.0461316786224049,3.15,35.55,41.55,467.77344,125.0,877.92969,0.0121241041819038,0.0414349891069713,0.2452787992314719,47.4,13.35,94.8,-503.41797,181.64062,782.22656,-0.1393598283827668,0.0155880591483369,-0.0335742006889141,50.1,26.55,37.95
-1044.92188,60.05859,120.60547,1.4043905272573751,0.7551545745201149,1.1608437927755824,2.4,35.1,39.45,464.84375,125.0,883.30078,0.0350397536618137,0.0261132672024887,0.2327550146508613,48.15,15.15,93.75,-504.88281,160.15625,784.66797,-0.1340306400447273,0.060753514998521,-0.0438330714992115,50.55,26.55,38.25
-993.16406,131.34766,93.26172,1.595444215557411,0.7003966145680449,1.2538391241120452,1.65,35.55,39.75,452.63672,120.60547,887.69531,0.0436999028772844,0.0452986244721112,0.232621671496009,48.15,15.15,93.75,-541.99219,167.96875,811.03516,-0.1493521874162847,0.1810613292665177,-0.0487625794385443,50.7,26.4,37.65
-987.79297,244.14062,62.98828,1.6653905542591112,0.863338459139133,1.4571500852159118,1.05,36.9,37.95,427.24609,128.90625,905.76172,0.0095926786348112,0.1128468807815713,0.2817841058661853,47.7,12.9,93.45,-578.61328,139.64844,835.9375,-0.1592113778278755,0.1818606900639311,-0.0381042027624654,50.25,27.15,38.7
-920.89844,351.5625,66.40625,1.6224900121792405,0.7099892932028561,1.4495559831075593,0.6,36.9,39.0,404.78516,109.86328,940.91797,0.0123904414257581,0.1167105161467112,0.2428805423063064,47.55,12.75,93.6,-638.67187,114.74609,848.14453,-0.1568131209027101,0.1747994369762124,-0.0643506385868813,50.85,27.0,38.55
-872.07031,425.29297,62.5,1.5526768420994672,0.3557274230878778,1.454085810648185,0.6,36.9,39.0,368.65234,78.125,977.05078,0.0262466103573411,0.1357627047944065,0.1958498530845161,47.55,12.75,93.6,-644.04297,96.67969,827.14844,-0.1590780346730231,0.1690703937065411,-0.1060521394706322,50.85,27.0,38.55
-893.06641,552.73437,28.32031,1.4018591017102826,-0.061419532641082,1.2590353183610827,-0.15,36.0,37.05,333.49609,70.3125,984.375,0.0090596550812521,0.0968591412345277,0.1704027780575135,47.25,12.0,95.1,-688.47656,76.66016,833.49609,-0.0968591412345277,0.1289677889505422,-0.0730107878023519,51.15,27.0,38.55
-829.10156,651.85547,31.25,1.1408590747085467,-0.0479632186411309,1.257036741834624,0.45,36.0,35.4,330.56641,38.08594,1008.30078,-0.0463644970463041,0.1253706653621819,0.2037106415025733,47.55,13.5,92.55,-676.75781,78.125,852.05078,-0.123238920213796,0.0744763407752516,-0.0783399761403914,51.15,27.0,38.55
-786.13281,694.33594,29.29688,1.0446661256495051,-0.0025314255470925,1.1553812612826906,-0.45,36.75,36.75,297.36328,55.17578,1011.23047,-0.0634181091675407,0.1215068554641168,0.1847917960097304,46.8,13.2,94.65,-663.08594,68.84766,814.94141,-0.1073843492886795,0.0610198522423753,-0.1096492630589925,50.7,26.4,37.35
-787.10937,726.5625,35.15625,0.82923123489666,0.0975253334100139,0.9227595897866816,-0.75,35.7,34.65,315.42969,37.59766,999.51172,-0.0699463387017003,0.059154618870769,0.1596110582265822,46.8,13.2,94.65,-645.01953,108.39844,791.01562,-0.1616094602201157,0.0556906639043358,-0.0628850856139816,50.85,26.25,39.3
-789.0625,761.71875,25.87891,0.5418514289156555,0.2162342515502586,0.7007962949667516,-0.75,35.7,34.65,300.78125,61.52344,970.21484,-0.050228132411444,0.0118575924051242,0.2063752356715931,47.25,13.95,94.05,-631.34766,140.13672,807.12891,-0.1358958734163337,0.0087933178373978,-0.064750318985588,51.15,27.75,37.95
-843.75,809.08203,25.39063,0.3320122382776293,0.2480765620224188,0.509209757646082,-0.45,36.45,34.35,322.26562,62.98828,947.75391,-0.0452986244721112,0.0071944217096458,0.1709356270781474,47.1,13.65,93.15,-616.69922,134.76562,785.15625,-0.2029111061722347,0.0230489926347623,-0.0079939570399844,51.45,25.35,37.35
-918.45703,814.45312,12.20703,0.0722112524720134,0.2372848421914875,0.3158913301086585,-0.15,37.5,34.35,326.66016,71.77734,900.87891,-0.0976585020319411,0.0035972981212855,0.1861240058277777,48.6,13.2,94.35,-599.12109,162.10937,776.85547,-0.2059755552728863,-0.0755420388165193,-0.0005328490206338,50.1,26.25,38.55
-910.64453,801.75781,-4.39453,-0.2363521382392217,0.1177763887209041,0.0819372742616769,-0.45,37.5,34.95,351.07422,70.80078,877.92969,-0.080871401687484,-0.0093261668580317,0.2332878636714952,48.6,13.2,93.6,-583.49609,170.89844,808.59375,-0.2456784796301786,-0.0623522365933478,-0.0214502710399355,50.7,26.4,39.45
-885.25391,779.78516,6.34766,-0.4925558259235521,0.1420244225517865,-0.0634181091675407,-0.45,37.2,35.4,372.55859,78.61328,879.88281,-0.0727442760255724,-0.0211837592631559,0.2278255067115286,46.2,13.2,94.05,-575.19531,143.06641,837.40234,-0.2175666359012311,-0.031309286918601,0.0265129476011954,50.7,26.4,39.45
-925.29297,764.64844,31.25,-0.6568300548456127,-0.0177198042967228,-0.2563368563062576,-0.45,37.2,35.4,395.50781,85.44922,908.20312,-0.0611531953972277,-0.0458314734927451,0.2151683789760657,47.7,13.65,95.55,-556.64062,152.34375,809.08203,-0.2779202959681202,-0.0631515973907612,0.054091942309509,51.15,26.55,37.95
-930.66406,722.65625,32.71484,-0.9111685091583368,-0.060753514998521,-0.4760352373558745,-0.45,37.2,35.4,418.94531,77.63672,896.97266,-0.0262466103573411,-0.0559571756811154,0.2384838833876076,47.7,13.65,95.55,-541.99219,145.01953,807.12891,-0.3514641073240313,-0.0015987215948268,0.0812710820861907,51.15,26.55,37.95
-878.90625,656.25,11.23047,-1.087966348128083,0.0110582316077108,-0.5986079653941844,-0.75,39.0,34.95,427.73437,85.9375,887.69531,-0.0105252080541518,-0.0041301471419193,0.2833828274610121,47.25,13.2,92.85,-540.03906,132.8125,797.85156,-0.3422711090879268,-0.0314426300734534,0.057422728654015,50.85,28.05,38.25
-920.89844,584.96094,30.27344,-1.1781637421406734,-0.164540566165915,-0.7968560754038658,0.45,38.25,34.95,419.43359,89.84375,868.65234,-0.0325085026476463,-0.0046631706954784,0.2983046944338628,47.4,12.9,94.8,-531.25,123.04688,799.80469,-0.3690505684659018,0.0349065850398865,0.0917962901403425,50.85,27.3,38.25
-901.36719,536.62109,48.33984,-1.2834165208138923,-0.1107151356331855,-0.7929924400387259,-0.75,38.55,38.55,422.36328,63.47656,877.92969,-0.039569755735365,0.0053291883380394,0.3289479637099028,48.15,12.6,93.45,-534.17969,115.23438,800.78125,-0.3678515272697816,0.0282450123508746,0.0744763407752516,50.25,26.4,39.45
-1016.60156,478.02734,65.42969,-1.3275161040898833,-0.3200214772505779,-1.0974256836080416,-0.75,38.55,38.55,417.48047,65.91797,881.83594,-0.0968591412345277,0.0382373713843925,0.3464012562298461,48.15,12.6,93.45,-543.94531,100.09766,838.37891,-0.3474671288040391,-0.0009327039522657,0.1007227765996675,51.0,26.7,37.35
-976.5625,462.40234,84.47266,-1.432102690587616,-0.731173052466012,-1.1304672098092472,0.15,38.25,36.75,419.92187,43.94531,915.03906,-0.091529778363563,0.074209828998472,0.3417380855343677,46.35,13.65,93.15,-557.12891,93.75,775.39062,-0.3980949416141898,0.0317089673173077,0.0401026047559989,51.9,25.8,39.3
-889.16016,368.16406,61.03516,-1.4847289053913004,-0.7985881401535451,-1.2503751691456122,-0.3,36.9,36.6,419.92187,42.48047,936.52344,-0.042900542079871,0.0892648645932499,0.352529805365299,48.3,12.75,94.65,-555.17578,108.39844,807.61719,-0.3258835146092512,0.041301645952119,0.1464210814704855,51.45,25.35,39.15
-894.04297,290.03906,83.98438,-1.3955972094199776,-0.7582190236207665,-1.3449693966098266,0.0,36.9,37.95,380.85937,46.875,911.13281,-0.0327748398915007,0.1373614263892333,0.3035007141499751,48.15,14.85,93.75,-583.00781,106.44531,824.70703,-0.3546615505136849,0.0679479367081668,0.1007227765996675,51.45,25.35,39.15
