IMU1_AccX,IMU1_AccY,IMU1_AccZ,IMU1_GyrX,IMU1_GyrY,IMU1_GyrZ,IMU1_MagX,IMU1_MagY,IMU1_MagZ,IMU2_AccX,IMU2_AccY,IMU2_AccZ,IMU2_GyrX,IMU2_GyrY,IMU2_GyrZ,IMU2_MagX,IMU2_MagY,IMU2_MagZ,IMU3_AccX,IMU3_AccY,IMU3_AccZ,IMU3_GyrX,IMU3_GyrY,IMU3_GyrZ,IMU3_MagX,IMU3_MagY,IMU3_MagZ
-1001.46484,205.56641,194.33594,0.0546247913301429,-0.1486859952407985,0.0283781809728018,4.95,31.35,41.55,374.51172,22.94922,898.92578,-0.0959264372822619,0.1794624331387657,0.1917197059425967,48.15,11.85,94.8,-605.95703,81.05469,795.89844,-0.2692603212855747,0.0531592383572432,0.0602204914449619,51.9,24.75,37.5
-1013.18359,224.12109,197.75391,0.0151883787496302,-0.10205516095064,0.031309286918601,5.4,31.65,42.75,354.98047,22.94922,922.36328,-0.0169204434993094,0.1546815502872494,0.2082404690431994,47.7,11.85,93.75,-619.14062,94.72656,803.22266,-0.2256937615631427,0.0903307371674429,0.0018652333716063,51.6,25.5,37.95
-982.42187,211.42578,208.98437,0.0755420388165193,-0.1009892883764471,0.0209172474863764,5.7,31.95,42.3,338.37891,19.04297,918.45703,0.020117886688963,0.1338974714228001,0.182926562638124,47.7,11.85,93.75,-620.11719,80.07813,790.52734,-0.2490092659746846,0.1120475199841579,0.0672817445326806,51.6,25.5,37.95
-945.80078,189.45312,208.98437,0.0814042507081179,-0.0891316959713228,0.0219831200605693,5.7,31.95,42.3,332.03125,23.4375,924.80469,-0.0162542513238231,0.1859908372058505,0.2055758748741797,48.6,12.45,93.6,-637.20703,78.61328,798.82812,-0.2496752836172456,0.0873996312216436,0.0762082309920056,52.35,23.25,37.95
-958.49609,198.73047,222.65625,0.0499617951675896,-0.0035972981212855,-0.0187856768709157,4.35,30.45,41.7,339.84375,62.5,937.5,0.0253139064050753,0.1825268822394173,0.2412818207114797,48.45,12.15,94.2,-645.50781,67.87109,824.21875,-0.2403491167592139,0.0723445956268657,0.0414349891069713,49.95,24.15,38.1
-944.82422,196.28906,208.49609,0.1192419416938038,-0.0855343978500373,0.0723445956268657,5.25,30.3,42.15,340.82031,55.66406,976.5625,-0.011191400229638,0.2022450885296737,0.2351530970431016,48.45,12.15,94.2,-640.625,49.80469,821.77734,-0.2784533195216793,0.0253139064050753,0.087532974376496,51.9,24.0,37.5
-983.39844,195.3125,221.67969,0.1093829258151382,-0.025713586803782,-0.0001331686219271,6.3,31.8,42.15,320.3125,42.48047,985.83984,-0.0153215473715574,0.1754656291516987,0.2162342515502586,48.45,12.15,94.2,-625.97656,80.07813,826.66016,-0.2095726788612467,-0.0282450123508746,0.0442327518979182,51.15,25.05,37.2
-989.74609,196.77734,225.58594,0.0955267568835552,0.0972588216332344,0.0363721380127862,6.45,32.7,40.65,333.00781,18.06641,987.30469,-0.05475795995207,0.1205743260447762,0.2175666359012311,47.7,11.4,94.2,-625.97656,71.28906,827.63672,-0.2983046944338628,0.0095926786348112,0.077540615342978,51.45,25.05,37.2
-993.16406,200.19531,213.37891,0.1370949146124538,0.0193185258915496,0.1068515002680456,6.45,32.7,40.65,346.19141,-11.23047,972.65625,0.0170536121212365,0.0778071271197576,0.1991806394290221,49.35,13.2,92.85,-613.76953,72.26563,880.85937,-0.2733904684274942,-0.0551578148837019,0.0391699008037331,52.5,24.6,39.45
-1013.18359,210.9375,194.33594,0.1472204422678988,0.0387702204050264,0.0877993116203503,6.45,32.7,40.65,379.88281,-14.16016,969.23828,0.0411684773301918,0.0149218669728507,0.1785299037194251,48.6,12.45,95.1,-607.42187,71.77734,857.42187,-0.2891118707306834,-0.0530260697353161,0.0787396565390981,52.5,24.6,38.4
-1026.36719,204.58984,217.77344,0.0919296332951949,0.0314426300734534,0.0354394340605204,5.4,30.45,42.3,409.66797,-5.37109,946.77734,0.0643506385868813,0.0369049870334201,0.2439464148804994,48.6,12.45,95.1,-584.47266,25.87891,825.19531,-0.2644639819681691,-0.0828698036810175,0.0515605167624164,52.5,24.6,38.4
-1003.90625,204.58984,210.44922,0.1057856276938527,0.011191400229638,0.0483628990398376,5.1,32.4,42.3,412.10937,-15.625,935.54687,0.023448673033469,0.0943277156874351,0.2206309104689576,49.2,12.15,94.2,-583.98437,59.08203,894.53125,-0.1979815982329019,-0.0226493122360556,0.0688804661275074,51.45,24.6,38.4
-1004.39453,231.44531,222.16797,0.1592113778278755,0.0019984019935335,0.0796723604913639,6.15,31.2,40.95,416.01562,4.88281,933.59375,0.0660827033365605,0.110981647409965,0.182393539084565,49.5,11.85,93.45,-571.77734,51.75781,876.46484,-0.3169572026828514,-0.0238483534321757,0.074209828998472,51.45,24.6,38.4
-1003.90625,244.14062,243.16406,0.093128674491315,0.0169204434993094,0.0588882816269146,5.4,31.65,41.7,413.57422,16.11328,931.64062,0.0768744231674918,0.1397595087814735,0.1702694349026612,48.9,11.4,93.75,-558.10547,44.92188,856.93359,-0.2500749640159523,-0.0086599746825454,0.0823369546603836,51.45,24.6,36.0
-965.33203,242.67578,232.42187,0.0271791397766816,-0.0057288687367461,0.0959264372822619,5.4,31.65,41.7,416.99219,44.43359,933.10547,0.0654165111610742,0.1470872736459717,0.1594777150717298,48.3,12.75,95.1,-560.54687,31.25,868.16406,-0.2182328280767173,-0.0519601971611231,0.1251041535854023,51.9,23.7,37.5
-934.08203,246.58203,228.02734,0.0984578628293545,-0.0337075438437664,0.1601439072472161,6.0,32.1,41.1,422.36328,47.36328,948.24219,0.0194516945134768,0.0851347174513306,0.2227626556173434,48.3,11.25,95.4,-551.26953,46.875,866.21094,-0.2278255067115286,-0.0066615726890119,0.0764747427687851,51.6,25.05,37.5
-964.84375,248.53516,240.23437,-0.0059953805135257,-0.0174532925199432,0.1112481591867445,4.95,31.35,40.8,406.25,31.25,926.75781,0.03064326927604,0.096459460835821,0.195183835441955,48.9,12.15,94.2,-526.85547,56.15234,844.72656,-0.1564134405040034,-0.0001331686219271,0.1072511806667523,51.6,25.05,38.55
-939.45312,225.58594,255.37109,-0.0103920394322246,-0.0794058487145844,0.1299004929028079,6.0,32.1,41.55,416.01562,12.20703,933.10547,0.0171867807431637,0.0246477142295891,0.1257703457608885,48.9,12.15,94.2,-523.92578,62.01172,853.51562,-0.1949173236651755,-0.041301645952119,0.0688804661275074,50.25,24.15,37.35
-924.31641,201.66016,240.72266,0.0828698036810175,-0.0464976656682313,0.13776110678794,5.4,31.95,41.25,431.15234,1.95312,904.29687,0.0570230482553083,0.0155880591483369,0.1608100994227023,48.9,12.6,92.4,-506.83594,58.10547,865.72266,-0.1878560705774568,0.0023980823922402,0.10205516095064,50.1,24.0,37.5
-904.29687,213.37891,259.27734,0.0159877395470436,0.0222496318373489,0.0590214502488418,5.4,31.95,41.25,442.38281,-12.69531,920.41016,0.0483628990398376,0.0692803210591393,0.1783965605645728,49.35,11.55,93.6,-516.60156,47.36328,849.12109,-0.200779535556774,0.0333078634450597,0.091529778363563,50.1,24.0,37.5
-896.97266,222.65625,253.41797,0.050761155965003,0.0764747427687851,0.1425574461053456,4.5,31.8,40.5,420.41016,-3.41797,913.08594,0.0366386497895657,0.0695466583029936,0.1401591891801802,48.9,11.1,94.2,-507.32422,34.66797,844.23828,-0.1554809110846628,0.1313660458757076,0.1420244225517865,51.45,23.85,38.7
-882.8125,259.27734,249.51172,0.0822036115055313,0.0908637607210019,0.1656064387401079,4.65,32.4,42.75,413.57422,19.04297,896.97266,0.0656830229378538,0.059687642424328,0.1990474708070949,48.9,11.1,94.2,-537.10937,47.36328,890.625,-0.166805479936228,0.1235054319905755,0.1191087730718766,51.45,23.85,38.7
-898.92578,274.90234,260.25391,0.0042633157638465,0.1089830708835063,0.1641408857672083,4.05,31.2,41.7,427.24609,20.01953,893.55469,0.0447657754514773,0.0512940049856369,0.1925190667400101,49.35,13.2,93.6,-538.57422,50.78125,876.95312,-0.2195650378947646,0.0900643999235885,0.0892648645932499,51.45,25.65,37.05
-900.87891,262.69531,246.09375,-0.0190520141147701,0.0675482563094601,0.1095160944370653,5.1,32.4,41.25,440.42969,37.59766,928.22266,0.0640843013430269,0.122173047639603,0.1771975193684527,48.0,11.55,94.05,-549.31641,77.63672,839.84375,-0.1532159973143498,0.0924624823158288,0.1175098769441246,51.15,24.75,39.0
-899.41406,271.48437,234.375,0.0370383301882724,0.0516936853843436,0.131099534098928,5.1,32.4,41.25,413.08594,42.96875,956.05469,0.007860613885132,0.1071178375118999,0.1217733672408963,48.0,11.55,94.05,-569.82422,79.10156,855.95703,-0.1945176432664688,0.0041301471419193,0.0795390173365115,51.15,23.25,38.55
-901.36719,281.25,220.21484,-0.0275788201753884,0.1069846688899728,0.0716784034513795,6.15,31.65,40.95,395.99609,47.85156,952.63672,0.0305099261211876,0.1196416220925105,0.158944866051096,47.25,11.55,94.65,-563.96484,83.00781,869.14062,-0.1549478875311037,0.0309096065198943,0.0820704428836041,52.05,24.6,38.1
-922.85156,275.39062,207.03125,-0.0162542513238231,0.0798055291132911,0.0620857248165682,4.5,32.1,41.1,389.64844,48.33984,946.28906,0.0231821612566894,0.0275788201753884,0.1779968801658661,48.15,12.6,94.8,-571.28906,80.07813,868.65234,-0.2022450885296737,0.1069846688899728,0.0763415741468579,49.8,24.3,38.55
-954.10156,289.0625,208.00781,-0.0370383301882724,0.0571562168772355,0.1365620655918199,4.5,31.05,41.55,385.25391,58.59375,951.66016,0.0592879620256213,-0.0197182062902563,0.1496186991930643,49.35,13.5,95.1,-557.61719,75.68359,865.23437,-0.2192987006509103,0.0668820641339739,0.0691469779042869,49.65,25.35,38.1
-947.26562,277.34375,199.70703,-0.0516936853843436,-0.0225161436141284,0.0963261176809686,4.65,33.0,40.65,399.41406,67.38281,957.51953,0.0494287716140306,-0.0695466583029936,0.1393598283827668,49.35,13.5,95.1,-569.82422,73.24219,863.28125,-0.1783965605645728,0.1180429004976836,0.0879326547752027,49.65,25.35,38.1
-918.94531,266.60156,202.14844,-0.0999234158022541,-0.0378376909856858,0.0426340303030914,4.65,33.0,40.65,391.11328,66.89453,942.38281,0.0831363154577971,-0.0762082309920056,0.1376279381660128,49.05,13.2,94.05,-550.78125,39.55078,842.28516,-0.1801286253142519,0.0411684773301918,0.1368284028356742,51.75,25.35,37.65
-897.46094,247.55859,205.07812,-0.0904640803222952,-0.067015232755901,0.075275701572665,4.2,32.1,41.1,401.36719,32.71484,916.01562,0.086467101802303,-0.0698131700797731,0.1406922127337393,48.6,12.45,94.65,-538.57422,30.76172,876.46484,-0.0583552580733556,0.0321086477160144,0.0651499993842947,51.6,25.05,39.0
-889.16016,270.50781,213.37891,-0.1139127533557643,-0.0707458740320389,0.0572893854991626,5.1,32.7,41.25,399.41406,21.97266,885.25391,0.0824701232823108,-0.0576890658978693,0.0920628019171221,49.5,12.6,94.8,-535.64453,25.87891,852.53906,-0.0654165111610742,0.032375159492794,0.0944608843093623,51.0,24.9,38.1
-893.06641,274.90234,214.35547,-0.0867336135790826,-0.0343737360192527,0.0203843984657425,3.0,33.0,41.25,394.04297,39.55078,876.46484,0.1265697065583019,-0.0050628510941851,0.0285115241276541,49.35,11.25,94.65,-551.26953,41.99219,869.14062,-0.0161209081689708,0.0863337586474507,0.1100489434576992,50.25,25.35,38.1
-888.67187,266.11328,207.03125,-0.0366386497895657,-0.0494287716140306,0.064750318985588,3.6,33.45,40.65,395.99609,30.76172,915.52734,0.1113813278086717,0.0231821612566894,0.0531592383572432,48.6,13.5,94.05,-556.64062,47.36328,850.58594,-0.0059953805135257,0.0467641774450108,0.1056524590719255,50.25,25.35,38.1
-900.39062,265.13672,208.98437,-0.0763415741468579,-0.0249142260063686,0.0536922619108023,3.6,33.45,40.65,392.57812,36.13281,940.42969,0.1338974714228001,0.011191400229638,0.0488959225933967,49.05,12.75,94.05,-565.91797,53.71094,865.23437,0.0383705400063197,0.0330413516682802,0.0221164632154217,52.8,24.6,37.35
-928.71094,271.48437,188.96484,-0.1120475199841579,-0.0830031468358699,0.0043966589186989,5.1,31.95,41.7,389.64844,39.0625,952.14844,0.1402925323350325,-0.0115910806283447,0.0401026047559989,49.05,12.75,94.05,-544.43359,43.94531,841.30859,0.0981913510525749,0.0279785005740951,0.0928621627145355,50.55,23.7,38.55
-937.98828,278.32031,182.61719,-0.0494287716140306,-0.0937948666668012,0.1007227765996675,5.4,32.7,42.0,402.34375,41.50391,943.35937,0.1658729505168874,-0.0095926786348112,-0.0142556747973644,49.05,13.95,95.1,-553.71094,63.47656,869.62891,0.1169770279234907,0.068614128883653,0.0114579120064175,50.55,23.7,38.55
-955.07812,270.99609,193.35937,-0.0751423584178126,-0.0980581824306478,0.0159877395470436,4.65,31.65,41.7,413.57422,62.98828,940.91797,0.175731966395553,-0.0015987215948268,-0.0403691165327784,49.8,13.95,94.35,-562.5,46.875,839.84375,0.1782633919426456,0.0229158240128351,0.060753514998521,49.8,25.05,37.95
-963.37891,284.17969,184.08203,-0.1177763887209041,-0.0924624823158288,0.0335742006889141,5.1,33.0,42.3,405.76172,64.94141,947.75391,0.1885222627529431,-0.0215834396618626,-0.0370383301882724,48.6,13.5,92.85,-574.70703,46.38672,824.70703,0.2151683789760657,0.0662158719584876,0.0889985273493956,49.8,25.05,37.95
-983.39844,295.41016,179.6875,-0.0194516945134768,-0.1097826062138449,0.0746095093971788,5.1,33.0,42.3,377.92969,61.52344,922.85156,0.1460214010717788,-0.0337075438437664,-0.0631515973907612,48.6,13.5,92.85,-579.58984,60.54688,814.45312,0.2276921635566762,0.0462311538914518,0.0366386497895657,51.15,24.75,36.9
-999.51172,292.96875,171.38672,-0.0582220894514284,-0.1452220402743654,0.1079173728422385,5.55,32.85,40.8,370.11719,59.08203,903.80859,0.1914533686987423,-0.0235820161883213,-0.0448989440734045,49.2,14.85,94.5,-578.125,56.15234,786.13281,0.2416815011101863,0.0109248884528585,0.0626187483701273,50.85,24.75,38.25
-1000.97656,295.41016,174.31641,-0.1011224569983742,-0.1152449631738115,0.0827366350590903,4.2,32.1,41.1,341.30859,54.19922,924.80469,0.1633415249697949,-0.031309286918601,-0.0816707624848974,48.3,13.95,93.6,-577.14844,85.44922,825.19531,0.2239616968134635,0.0311761182966739,0.0672817445326806,50.85,24.3,39.0
-1000.0,323.24219,161.13281,-0.1337641282679478,-0.2079739572664199,0.1598775700033617,5.25,33.6,41.55,349.12109,63.96484,929.19922,0.1421577657066389,0.0375711792089063,-0.1217733672408963,48.45,12.9,94.8,-595.21484,100.09766,783.20312,0.1811944978884449,0.0309096065198943,0.1292343007273217,51.15,24.75,37.95
-992.1875,344.72656,157.22656,-0.1239051123892822,-0.1903874961245494,0.1779968801658661,5.25,33.6,41.55,337.89062,78.61328,939.94141,0.1469541050240445,0.0217166082837898,-0.1237717692344298,48.45,12.9,94.8,-609.375,118.16406,815.42969,0.210771894590292,0.0409019655534123,0.073676805444913,50.55,25.05,38.55
-989.74609,335.9375,151.85547,-0.2222296320637844,-0.1572128013014168,0.1725345232058994,5.25,33.6,41.55,329.10156,78.61328,934.08203,0.1448223598756587,0.0030642745677264,-0.0981913510525749,47.25,12.45,94.35,-645.50781,115.72266,775.87891,0.1021883295725672,0.0018652333716063,0.0961929490590414,50.55,24.75,37.2
-970.70312,329.10156,134.76562,-0.2647304937449487,-0.1269693869570086,0.1634746935917221,4.65,32.4,42.3,325.19531,121.58203,941.89453,0.1248376418086228,0.0017320647496791,-0.0756753819713717,48.6,13.95,94.35,-636.23047,143.06641,822.26562,0.1875895588006773,0.0163874199457503,0.0622190679714206,50.55,24.75,37.2
-972.16797,319.33594,156.25,-0.2258269301850698,-0.1604104190239956,0.1733338840033128,5.25,33.3,42.6,340.33203,108.39844,967.28516,0.0909969293429291,-0.0138559943986577,-0.0800720408900706,49.35,12.75,95.1,-658.69141,146.48437,816.89453,0.1594777150717298,-0.0155880591483369,0.0977916706538682,51.45,24.9,38.7
-964.35547,313.47656,157.71484,-0.3101622868389871,-0.1939846197129097,0.1388269793621329,5.4,32.4,41.7,349.60937,102.05078,979.00391,0.1104486238564059,-0.063684446411395,-0.0410353087082646,49.35,12.75,95.1,-627.44141,121.58203,820.3125,0.1938514510909826,-0.0198513749121835,0.1637412053685016,51.45,24.9,38.7
-974.12109,306.64062,154.78516,-0.2765880861500729,-0.1329647674705344,0.0909969293429291,5.4,32.4,41.7,347.16797,103.02734,981.44531,0.1265697065583019,-0.0983246942074273,-0.0405022851547056,48.9,14.4,93.75,-637.20703,124.02344,787.10937,0.1882557509761635,-0.0053291883380394,0.0325085026476463,51.75,25.35,38.1
-984.86328,319.33594,153.32031,-0.1959831962393684,-0.1802617939361791,0.082603291904238,5.4,32.4,41.7,336.91406,107.42188,971.67969,0.1625421641723815,-0.0854012292281101,-0.0799386977352182,49.05,12.75,93.6,-613.76953,98.63281,803.22266,0.250474644414659,0.0293108849250675,0.0772741035661985,50.85,26.25,37.2
-984.86328,329.58984,133.30078,-0.2644639819681691,-0.1329647674705344,0.0299770771005538,4.95,34.05,41.55,315.91797,84.47266,944.82422,0.1369617459905266,-0.0386370517830992,-0.0095926786348112,49.35,12.75,94.05,-638.18359,88.37891,820.3125,0.2969724846158156,0.0143890179522168,0.0739433172216925,50.55,26.25,39.0
-1014.16016,332.03125,138.18359,-0.2602006662043226,-0.0976585020319411,0.0263797789792682,3.75,33.3,41.55,306.15234,84.47266,966.30859,0.1129800494034985,0.0002665117767795,-0.1072511806667523,49.35,12.75,94.05,-647.46094,69.33594,805.17578,0.3028345219744889,-0.0090596550812521,0.0873996312216436,50.55,25.8,37.95
-1002.92969,340.82031,128.90625,-0.24487894429984,-0.2757887253526596,0.0522267089379027,5.25,33.3,43.95,327.63672,83.00781,979.49219,0.1273690673557154,0.0385038831611721,-0.103787051167394,47.7,13.35,94.2,-622.07031,64.94141,807.61719,0.4035574731070817,0.0241148652089552,0.0885988469506889,50.85,25.5,38.55
-990.72266,319.82422,136.71875,-0.3098959495951328,-0.210771894590292,0.0664823837352672,3.45,33.6,42.9,322.75391,71.28906,989.25781,0.1416247421530798,0.0419678381276052,-0.1216401986189692,48.3,13.95,94.65,-656.25,50.29297,790.03906,0.3964962200193629,-0.0042633157638465,0.0327748398915007,49.95,26.1,37.65
-998.53516,353.51562,143.55469,-0.3586585290336772,-0.2290245479076487,0.011191400229638,3.45,33.6,42.9,318.84766,41.50391,970.21484,0.1468207618691921,-0.0322419908708668,-0.146687593247265,48.3,13.95,94.65,-643.55469,0.97656,792.96875,0.4471240328295137,0.0089264864593249,0.0361056262360067,49.95,26.1,37.65
-987.30469,362.79297,145.50781,-0.2771209351707068,-0.2919096335216304,0.1023216727274195,3.75,34.05,43.65,320.3125,42.48047,957.51953,0.1685375446859072,-0.0349065850398865,-0.2347534166443949,48.6,13.2,93.3,-639.16016,16.11328,824.70703,0.491356784727432,0.0017320647496791,0.0043966589186989,51.0,24.9,36.6
-935.05859,362.30469,171.38672,-0.4246080637483105,-0.358125505480118,0.0924624823158288,5.4,33.0,42.75,327.63672,43.94531,957.51953,0.1524164619840112,-0.0333078634450597,-0.2288912047527963,49.95,13.65,95.25,-618.16406,7.8125,794.43359,0.4456584798566141,-0.020117886688963,-0.0102588708102974,51.0,24.9,36.6
-888.18359,341.79687,200.68359,-0.4535190937417461,-0.4094196849986802,0.0520933657830503,4.95,34.8,42.15,335.44922,37.59766,940.42969,0.1564134405040034,-0.0261132672024887,-0.3158913301086585,49.05,13.5,94.05,-606.44531,38.08594,814.94141,0.5041470810848221,0.0381042027624654,-0.0595542992694757,51.0,24.9,36.6
-865.72266,343.26172,229.98047,-0.3735803960065278,-0.3751791176013546,0.1416247421530798,4.2,34.35,43.95,340.82031,50.29297,947.26562,0.0839356762552105,-0.0129234649793172,-0.3618559722233307,49.05,13.5,94.05,-601.07422,60.54688,785.64453,0.4669755822746224,0.0191853572696224,-0.0945942274642146,51.75,26.7,37.05
-865.72266,317.87109,251.46484,-0.4637779645520436,-0.3706492900607286,0.1211071750654101,4.2,34.35,43.95,346.67969,71.28906,941.89453,0.1396263401595463,-0.0205175670876697,-0.343603318905974,49.2,14.85,94.2,-576.66016,75.68359,814.45312,0.4555176702682049,0.0213169278850831,-0.0891316959713228,50.7,26.4,37.05
-861.81641,305.17578,272.46094,-0.4379310345934092,-0.3276155793589304,0.0616860444178615,6.45,34.95,43.35,370.60547,95.70313,937.98828,0.1350965126189202,-0.0049295079393327,-0.3717151626349215,49.05,13.95,92.55,-585.44922,130.85937,814.94141,0.4617795625585101,0.032908183046353,-0.0927289940926083,52.8,26.4,36.0
-834.96094,284.66797,298.33984,-0.3557274230878778,-0.325750345987324,0.0778071271197576,5.7,35.25,43.05,394.04297,106.93359,931.64062,0.0791393369378048,-0.0363721380127862,-0.384238947215532,48.9,14.85,93.45,-590.33203,132.8125,798.33984,0.3924992414993708,0.0179861415405771,-0.1075176924435318,50.7,26.7,37.35
-816.40625,283.69141,309.08203,-0.3511975955472518,-0.334010814804088,0.0571562168772355,6.0,33.3,44.25,390.625,109.86328,918.94531,0.0850015488294034,0.0033307863445059,-0.3972955808167764,49.5,14.4,94.2,-592.28516,144.53125,780.76172,0.3382741305679345,-0.0197182062902563,-0.134430320443434,51.45,26.4,36.3
-793.94531,273.4375,312.98828,-0.3899678159522782,-0.3241516243924973,0.0490290912153239,4.65,33.75,43.35,349.12109,121.09375,872.55859,0.054091942309509,-0.0026645941690197,-0.3759784783987681,48.9,15.15,93.75,-593.75,150.87891,721.19141,0.2867136138055181,-0.1314992144976347,-0.1055191159170731,51.45,26.1,37.05
-780.76172,267.08984,336.91406,-0.2435467344817927,-0.3547948936685373,0.0735436368229858,4.65,33.75,43.35,353.02734,121.58203,859.86328,0.0679479367081668,-0.0436999028772844,-0.357459487837557,49.05,13.95,93.6,-598.14453,168.45703,777.34375,0.3080307162235264,-0.1565467836588557,-0.0909969293429291,51.45,26.1,37.05
-865.23437,274.90234,342.28516,-0.161209779821409,-0.2304901008805483,0.0992572236267679,4.95,34.05,45.0,364.74609,130.37109,866.69922,0.107650861065459,0.0298437339457014,-0.4625789233559235,49.05,13.95,93.6,-597.65625,179.6875,835.9375,0.3292143009537572,-0.1047197551196597,-0.0877993116203503,50.55,25.05,37.2
-981.44531,285.15625,331.05469,-0.1104486238564059,-0.0169204434993094,0.045165455850184,4.05,35.25,45.45,370.11719,115.23438,951.17187,0.0822036115055313,0.1472204422678988,-0.4272726579173302,49.35,15.45,93.6,-605.95703,183.59375,876.46484,0.3394731717640546,-0.1148452827751048,-0.0446324322966249,50.25,27.45,36.6
-1094.23828,307.12891,367.1875,0.0135896571548034,-0.0932618431132422,0.0667488955120467,5.55,34.8,45.0,363.76953,97.16797,1024.90234,0.1196416220925105,0.0815375938629702,-0.4838958512410067,50.25,13.65,91.65,-606.93359,190.91797,798.33984,0.3478668092027458,-0.0535589187559499,-0.0526263893366094,49.95,27.15,37.35
-1106.93359,285.15625,356.93359,0.0422343499043847,0.013456313999951,0.0851347174513306,5.55,33.6,43.65,366.21094,97.65625,987.79297,0.1072511806667523,0.0127901218244648,-0.4491224348230472,50.1,15.45,92.85,-598.63281,186.52344,782.71484,0.3771776941278134,-0.1100489434576992,-0.0583552580733556,50.85,27.75,37.2
-1034.17969,306.64062,329.58984,0.0427671989250186,0.2126371279618983,0.0011990411961201,5.55,33.6,43.65,341.30859,118.65234,936.52344,0.1461547442266311,0.0067947413109391,-0.4617795625585101,50.1,15.45,92.85,-587.40234,206.05469,814.45312,0.3320122382776293,-0.0476967068643514,-0.0474303696204971,49.35,27.3,36.45
-1004.39453,340.82031,347.16797,0.1585451856523893,0.3585251858788247,0.0807380585326316,5.25,35.1,44.7,341.30859,151.85547,919.92187,0.1044532433428802,0.0143890179522168,-0.4648438371262365,49.35,14.7,94.05,-587.40234,200.68359,765.13672,0.3062986514738472,-0.0700796818565527,-0.077540615342978,50.25,27.45,37.35
-1003.41797,374.02344,331.54297,0.1193751103157309,0.2416815011101863,0.1075176924435318,5.7,34.95,45.15,353.51562,168.45703,918.45703,0.0896645449919567,0.0414349891069713,-0.4063552358980286,50.85,13.95,93.6,-582.51953,202.14844,796.875,0.2669954075152617,-0.0050628510941851,-0.0297105653237742,50.25,27.45,37.35
-922.36328,353.02734,295.89844,0.0771409349442713,0.2592679622520568,0.0551578148837019,5.7,36.0,44.1,365.23437,199.21875,903.32031,0.0548913031069224,0.0622190679714206,-0.3825068824658528,50.85,13.95,93.6,-614.74609,227.53906,790.52734,0.2296907400831349,-0.0353062654385932,-0.059154618870769,49.95,26.4,37.35
-899.90234,348.63281,294.92187,0.1480199775982374,0.3096294378183532,-0.0006661921754862,5.4,35.7,44.1,337.40234,205.56641,894.53125,-0.0117244237831971,0.0935283548900217,-0.3274824107370032,49.2,12.9,93.75,-607.91016,236.81641,789.0625,0.1285681085518354,-0.0917962901403425,-0.0337075438437664,49.95,26.4,37.35
-926.26953,369.62891,287.10937,0.1039203943222463,0.3061653083189948,-0.0118575924051242,5.4,35.7,44.1,320.80078,240.23437,920.41016,-0.023981696587028,0.1803951370910315,-0.2623322368197833,48.6,14.25,94.35,-587.40234,224.60937,816.89453,0.1131133925583509,-0.0984578628293545,-0.0514271736075641,51.6,25.8,36.45
-941.40625,361.81641,291.01562,0.0664823837352672,0.3020351611770755,-0.1032542021467601,5.4,34.2,42.3,328.61328,204.10156,947.75391,-0.0712787230526728,0.1473537854227512,-0.2300904204818416,50.7,14.1,93.45,-558.10547,214.35547,808.10547,0.0631515973907612,-0.04849624219469,-0.0359724576140795,50.7,27.15,37.35
-950.19531,362.79297,279.78516,0.0488959225933967,0.2327550146508613,-0.1103154552344788,4.5,34.8,43.95,342.77344,202.63672,924.80469,-0.0933951862680945,0.0796723604913639,-0.2218299516650776,50.7,14.1,93.45,-544.43359,208.98437,834.96094,0.0207840788644492,-0.0091929982361045,-0.091529778363563,51.15,27.0,37.5
-953.61328,352.53906,272.46094,0.0030642745677264,0.2290245479076487,-0.0727442760255724,5.4,35.7,43.8,384.76562,171.38672,941.40625,-0.0959264372822619,-0.0205175670876697,-0.2123706161851188,50.7,14.1,93.45,-541.01562,187.98828,839.84375,0.0003996803987067,-0.0126569532025376,-0.0622190679714206,50.1,27.75,37.2
-927.24609,363.28125,290.03906,-0.1248376418086228,0.1493521874162847,-0.123238920213796,5.25,34.35,43.65,409.17969,164.0625,912.10937,-0.080871401687484,-0.0357059458372999,-0.2094395102393195,50.1,13.95,92.55,-541.50391,147.46094,827.63672,-0.0303767574992605,0.0171867807431637,-0.0575558972759422,50.55,27.0,36.15
-902.34375,330.07812,280.27344,-0.1364287224369675,0.1474869540446784,-0.1750657742200668,5.25,34.35,43.65,420.89844,125.48828,915.03906,-0.1047197551196597,-0.0062618922903052,-0.1973154060574157,50.25,13.35,94.2,-529.78516,169.92187,817.38281,0.0267794593779749,0.0658161915597809,-0.071944915228159,50.55,26.25,37.2
-889.64844,294.43359,277.34375,-0.1322985752950481,0.1176432200989769,-0.1684043760639801,4.95,35.55,44.7,401.85547,118.65234,882.32422,-0.0919296332951949,-0.0029311059457992,-0.1989143021851677,50.7,14.1,93.45,-538.57422,189.94141,867.67578,0.0704793622552594,0.0066615726890119,-0.0087933178373978,50.55,26.25,37.2
-849.60937,259.76562,272.46094,-0.1644073975439878,0.032908183046353,-0.2255604184082903,4.05,34.2,43.05,412.59766,130.85937,895.01953,-0.071944915228159,-0.0394364125805126,-0.1831928998819784,49.35,14.25,94.65,-544.92187,181.64062,848.63281,0.0935283548900217,0.011191400229638,-0.0471638578437175,50.55,26.25,37.2
-841.79687,239.25781,283.20312,-0.1392266597608396,0.0896645449919567,-0.2935083551164572,5.25,33.3,45.3,428.71094,127.92969,926.75781,-0.0218499514386422,-0.06634921511334,-0.1641408857672083,49.95,14.1,92.7,-537.59766,228.51562,848.63281,0.0924624823158288,0.025713586803782,-0.0247810573844414,51.75,27.15,37.05
-864.25781,220.70312,267.57812,-0.0438330714992115,0.0434333911005048,-0.2753890449539529,4.95,35.1,44.7,422.36328,159.66797,918.94531,0.0039969785199922,-0.0564900247017492,-0.1217733672408963,49.2,14.1,93.15,-536.13281,215.33203,869.14062,0.029044373148288,-0.0005328490206338,-0.0309096065198943,51.75,27.15,37.05
-873.04687,223.63281,267.57812,-0.1334976164911682,0.0877993116203503,-0.2893782079745378,4.95,35.1,44.7,398.92578,169.43359,949.21875,-0.0065284040670847,-0.0331745202902074,-0.1271025555789358,49.2,14.1,93.15,-532.71484,241.21094,875.97656,0.0322419908708668,0.0123904414257581,-0.0278453319521679,49.65,26.1,36.6
-900.87891,215.82031,274.41406,-0.0710122112758932,0.1484196579969441,-0.2412818207114797,4.95,34.35,43.65,410.15625,184.08203,928.71094,0.0121241041819038,-0.0548913031069224,-0.0795390173365115,50.7,12.9,92.4,-527.34375,245.60547,870.11719,0.0165205885676775,-0.0407687969314851,0.0011990411961201,51.15,26.55,36.15
-916.99219,226.07422,256.34766,-0.0452986244721112,0.0511608363637097,-0.1593445464498027,5.25,34.35,43.95,431.64062,182.12891,950.68359,0.0370383301882724,-0.0598208110462552,-0.1039203943222463,51.15,13.5,93.6,-519.04297,266.11328,876.95312,0.0014655529728996,-0.0275788201753884,-0.0110582316077108,49.8,26.25,37.5
-893.55469,241.69922,281.73828,-0.0944608843093623,0.0358392889921523,-0.1200413024912172,5.1,34.95,44.4,426.75781,194.82422,930.66406,0.0249142260063686,-0.0767412545455646,-0.0079939570399844,51.6,12.45,93.3,-504.39453,256.34766,855.46875,-0.0269126279999021,-0.0675482563094601,0.0153215473715574,50.25,26.1,37.35
-891.60156,221.67969,267.57812,-0.0883323351739094,0.0444992636746978,-0.1498852109698438,5.1,35.25,43.35,421.875,206.05469,896.97266,-0.0062618922903052,-0.0911300979648563,0.023981696587028,51.6,12.45,93.3,-479.00391,255.37109,842.28516,-0.1376279381660128,-0.0499617951675896,-0.036238969390859,50.85,26.55,37.2
-886.71875,210.44922,270.99609,-0.0891316959713228,-0.0007993607974134,-0.1204409828899239,5.1,35.25,43.35,430.66406,218.75,866.21094,-0.046897346066938,-0.1083170532409452,0.0586217698501351,51.0,12.9,93.15,-469.23828,250.0,853.02734,-0.1520167815853045,-0.0221164632154217,0.0203843984657425,51.15,27.75,37.5
-874.51172,210.9375,279.78516,-0.0919296332951949,0.0389035635598788,0.0029311059457992,5.1,35.25,43.35,465.82031,184.08203,861.81641,-0.0754088701945922,-0.061419532641082,0.1097826062138449,48.9,14.1,93.75,-492.1875,236.32812,844.72656,-0.2560705190624032,0.0049295079393327,-0.0321086477160144,51.15,27.75,37.5
-883.30078,199.21875,266.60156,-0.1007227765996675,0.0371714988101996,-0.0556906639043358,4.65,34.2,44.1,451.17187,182.12891,898.92578,-0.1169770279234907,-0.0678147680862396,0.1481531462201646,51.3,13.65,93.45,-477.53906,210.44922,833.49609,-0.2430137109282336,0.0387702204050264,-0.0126569532025376,50.1,27.3,37.2
-862.30469,198.24219,265.625,-0.071944915228159,-0.0081271256619115,0.0357059458372999,4.2,34.35,42.9,461.91406,178.22266,862.79297,-0.1116478395854512,-0.0514271736075641,0.1758653095504054,50.85,13.95,92.85,-484.86328,195.80078,856.44531,-0.2246278889889497,-0.0037304667432126,-0.0091929982361045,50.1,27.3,37.2
-881.34766,211.91406,270.99609,-0.0631515973907612,0.0014655529728996,-0.0007993607974134,4.65,34.95,43.35,425.78125,151.36719,855.46875,-0.1091164140383586,-0.064750318985588,0.2657963663191416,50.4,12.75,92.55,-504.88281,159.17969,844.23828,-0.2038438101245005,0.0667488955120467,-0.041301645952119,50.7,26.4,38.1
-890.13672,235.83984,268.55469,-0.0740764858436197,0.0137228257767306,-0.0295773967018471,5.1,34.95,43.8,417.96875,133.78906,907.71484,-0.1263031947815224,-0.0514271736075641,0.2142358495567251,50.7,12.9,92.4,-510.25391,170.89844,884.76562,-0.1633415249697949,0.0270459711547545,-0.0195850376683291,51.0,25.65,37.65
-895.50781,234.375,259.27734,-0.0671485759107534,-0.0350397536618137,0.0534257501340228,5.1,34.95,43.8,424.31641,116.21094,927.24609,-0.0881991665519822,-0.0716784034513795,0.229290885151503,50.7,12.9,92.4,-522.94922,157.22656,864.25781,-0.1945176432664688,0.0619525561946411,-0.0107917198309313,51.75,26.7,37.05
-881.34766,221.67969,259.27734,-0.077540615342978,-0.0772741035661985,0.0458314734927451,5.1,33.75,43.05,418.94531,101.07422,941.89453,-0.0852680606061829,0.0051960197161123,0.2499417953940251,50.85,12.75,93.6,-514.64844,137.69531,874.02344,-0.1521501247401568,0.0050628510941851,-0.0532925815120956,51.75,27.15,36.6
-887.20703,191.89453,253.41797,-0.1381607871866467,-0.0294440535469947,-0.0043966589186989,4.95,35.55,44.7,395.01953,86.91406,961.42578,-0.0193185258915496,0.0069280844657914,0.229290885151503,49.2,13.35,93.45,-526.36719,141.60156,853.51562,-0.2500749640159523,0.0343737360192527,-0.0358392889921523,51.75,26.4,38.7
-903.80859,203.61328,250.0,-0.0707458740320389,-0.0330413516682802,0.0595542992694757,4.95,33.3,44.7,394.53125,104.98047,939.45312,-0.0398360929792193,-0.0447657754514773,0.3361423854195487,48.45,14.85,94.2,-563.96484,146.97266,842.28516,-0.2371516735695603,0.0185191650941362,-0.045165455850184,50.55,27.3,36.45
-911.62109,220.21484,250.48828,-0.0528927265804637,-0.070346019100407,0.0634181091675407,6.0,33.3,45.0,387.69531,134.27734,945.3125,-0.0528927265804637,0.0019984019935335,0.2733904684274942,49.35,13.5,94.05,-573.24219,140.13672,833.49609,-0.3193552850750916,0.0642174699649541,-0.1256370026060362,50.55,27.3,36.45
-905.76172,232.91016,257.32422,-0.1075176924435318,-0.0350397536618137,0.0158545709251164,6.0,33.3,45.0,385.74219,96.67969,949.21875,-0.0983246942074273,-0.0009327039522657,0.2983046944338628,49.05,12.75,92.55,-602.05078,129.39453,857.42187,-0.2995039101629081,0.0746095093971788,-0.0810045703094112,51.0,25.65,39.9
-909.66797,246.09375,245.11719,-0.0231821612566894,-0.0656830229378538,0.1025880099712739,5.55,33.6,45.0,390.625,117.1875,980.46875,-0.1128468807815713,-0.0054625314928918,0.3198883086286507,50.4,13.2,92.55,-592.77344,100.09766,839.35547,-0.2885788471771244,0.0740764858436197,-0.0782068075184643,51.0,26.7,38.7
-945.3125,259.27734,246.09375,-0.0482297304179105,-0.0109248884528585,0.1381607871866467,4.5,34.8,43.2,381.34766,101.5625,980.95703,-0.1438898304563181,0.011191400229638,0.2403491167592139,50.4,13.2,92.55,-613.76953,101.5625,818.35937,-0.2290245479076487,0.0892648645932499,-0.0957932686603347,51.6,27.0,37.95
-968.75,264.16016,222.65625,-0.0365053066347134,0.0863337586474507,0.0066615726890119,4.35,34.95,43.05,354.49219,80.56641,979.00391,-0.1457548892949992,0.0062618922903052,0.3116278398118867,50.25,14.4,93.45,-618.65234,85.44922,849.60937,-0.2334212068263476,0.1176432200989769,-0.1123138572280122,50.55,25.8,39.0
-1017.08984,271.48437,235.83984,-0.05475795995207,0.0071944217096458,0.0567565364785288,4.35,34.95,43.05,337.89062,39.0625,995.60547,-0.1593445464498027,0.0087933178373978,0.2282251871102353,49.5,13.35,93.15,-615.23437,65.91797,817.87109,-0.1498852109698438,0.0952604196397009,-0.0784731447623186,50.55,25.8,39.0
-1015.13672,296.875,223.63281,-0.0682144484849463,-0.0716784034513795,0.1032542021467601,4.65,36.0,43.35,342.77344,16.60156,1000.48828,-0.1633415249697949,-0.0231821612566894,0.2379510343669737,49.35,13.95,92.85,-622.07031,83.98438,791.50391,-0.1620091406188224,0.1047197551196597,-0.1280352595312016,51.0,25.35,37.65
-1020.01953,296.38672,220.21484,-0.1394931715376192,-0.0389035635598788,0.0446324322966249,5.1,34.95,43.35,330.07812,-0.48828,990.72266,-0.0981913510525749,-0.0417013263508257,0.1393598283827668,49.35,13.95,92.85,-615.72266,62.5,774.90234,-0.0977916706538682,0.1448223598756587,-0.0576890658978693,52.35,26.25,37.2
-1026.85547,274.90234,226.07422,-0.1061853080925594,-0.1177763887209041,0.0427671989250186,5.7,34.2,43.35,306.64062,-0.97656,946.77734,-0.0724777642487929,0.0033307863445059,0.1526829737607907,50.1,12.45,92.85,-628.90625,96.19141,764.64844,-0.1517504443414501,0.1063184767144865,-0.0391699008037331,52.35,26.25,37.2
-1030.76172,283.20312,230.46875,-0.1068515002680456,-0.095393588261628,0.0619525561946411,5.1,34.5,44.4,315.42969,41.01563,922.36328,-0.004529827540626,0.0105252080541518,0.1289677889505422,49.8,13.5,93.6,-621.58203,95.70313,786.13281,-0.1405590441118121,0.0734104682010586,-0.0634181091675407,51.0,26.7,37.65
-1026.85547,249.02344,238.28125,-0.1346968322202135,-0.1373614263892333,0.0466310088230837,5.1,34.5,44.4,320.3125,69.33594,927.24609,-0.0231821612566894,-0.0081271256619115,0.1536156777130565,48.0,12.0,94.05,-632.32422,120.60547,764.64844,-0.1136462415789847,0.0679479367081668,-0.0173201238980161,51.0,26.7,37.65
-991.21094,221.67969,230.95703,-0.1184425808963904,-0.1613431229762614,0.0149218669728507,4.05,35.25,43.8,328.125,91.79688,922.85156,-0.0242480338308824,0.0446324322966249,0.1915865373206695,49.35,13.95,93.6,-619.62891,128.41797,791.01562,-0.1561469287272238,0.073676805444913,-0.0494287716140306,52.05,26.1,39.45
-987.79297,214.84375,251.46484,-0.0217166082837898,-0.1538820149569108,0.0011990411961201,4.35,34.5,44.1,328.125,85.44922,942.87109,-0.0297105653237742,0.0656830229378538,0.1448223598756587,50.7,12.6,93.45,-625.0,118.16406,795.89844,-0.1248376418086228,0.0957932686603347,-0.0103920394322246,49.2,25.65,37.05
-970.70312,229.00391,266.60156,0.0011990411961201,-0.0880658233971298,-0.0307764378979672,5.1,34.95,46.2,350.58594,83.00781,952.63672,0.0213169278850831,0.029044373148288,0.2017120649761146,49.35,13.2,93.6,-632.32422,140.13672,790.52734,-0.1914533686987423,0.1610766111994818,0.0357059458372999,51.0,24.9,37.65
-972.16797,250.97656,248.04687,0.0131899767560967,-0.1293674693492489,-0.0358392889921523,5.55,34.35,42.9,324.70703,89.84375,966.30859,-0.0097258472567384,0.0397029243572922,0.242081181508893,49.35,13.2,93.6,-641.60156,135.25391,791.50391,-0.2183659966986445,0.1088499022615791,0.0319754790940873,52.35,25.5,37.2
-969.72656,252.92969,253.41797,0.0932618431132422,-0.114312433754471,0.0010658725741929,5.55,34.35,42.9,318.35937,95.70313,962.89062,0.0142556747973644,0.0550244717288496,0.1842587724561713,49.35,13.2,93.6,-633.78906,139.64844,791.99219,-0.1859908372058505,0.1228392398150893,0.0277121633302407,50.25,25.35,37.05
-958.00781,254.88281,255.37109,0.0067947413109391,-0.0511608363637097,-0.0359724576140795,4.35,35.25,43.8,334.96094,59.57031,955.56641,-0.0169204434993094,0.0326416712695735,0.2159679143064043,49.35,13.2,92.85,-638.67187,115.23438,767.08984,-0.2268928027592628,0.1079173728422385,0.1025880099712739,50.7,24.9,37.05
-967.28516,261.23047,256.83594,0.0082602942838387,-0.0510274932088574,-0.0708790426539661,6.3,33.3,45.3,326.66016,78.125,968.26172,0.0115910806283447,0.0254472495599277,0.2188988457192784,49.05,13.2,93.6,-626.95312,122.55859,793.45703,-0.2102388710367329,0.1055191159170731,0.0106585512090041,50.7,24.9,37.05
-959.96094,253.41797,256.83594,0.0317089673173077,-0.0893982077481023,-0.0337075438437664,5.4,33.75,44.4,342.28516,73.73047,949.21875,-0.0229158240128351,0.0582220894514284,0.2648636623668758,48.15,13.35,93.75,-599.12109,112.79297,791.50391,-0.2841821882584255,0.1306998537002213,0.1017886491738605,52.65,26.25,38.25
-965.33203,245.11719,268.06641,0.0137228257767306,-0.0191853572696224,-0.050761155965003,4.5,34.05,44.25,366.69922,69.33594,962.89062,0.018385996472209,0.0615528757959344,0.2304901008805483,48.15,13.35,93.75,-619.62891,110.35156,785.64453,-0.2711255546571811,0.1484196579969441,0.0450321126953316,52.65,26.25,38.25
-951.17187,255.85937,254.88281,0.0552909835056291,-0.0286446927495813,-0.0807380585326316,4.5,34.05,44.25,311.03516,72.26563,945.80078,0.0149218669728507,0.0620857248165682,0.2073077650909336,48.6,13.5,93.6,-638.67187,115.72266,759.27734,-0.2210305908676643,0.1794624331387657,0.0615528757959344,51.45,25.35,37.05
-962.89062,280.76172,242.1875,0.0835359958565038,-0.0033307863445059,-0.0106585512090041,4.2,35.55,44.7,304.19922,63.96484,949.70703,-0.0110582316077108,0.1147121141531777,0.3094960946635008,49.35,12.45,94.35,-651.85547,91.30859,776.36719,-0.2809847450687719,0.1293674693492489,0.1021883295725672,50.85,27.0,37.5
-975.09766,267.57812,239.25781,0.050761155965003,0.0715452348294523,0.0170536121212365,5.4,34.5,44.85,313.47656,77.14844,938.96484,0.0371714988101996,0.0415681577288985,0.2344869048676153,49.35,12.45,94.35,-662.59766,105.46875,831.54297,-0.2575358975023777,0.1438898304563181,0.0532925815120956,51.9,26.55,36.15
-974.12109,291.50391,233.39844,0.0117244237831971,0.0856677410048896,-0.0508943245869302,5.55,35.55,44.25,324.21875,68.35938,957.51953,-0.0021317451483858,0.1068515002680456,0.2555374955088442,49.5,13.65,92.4,-653.80859,99.12109,789.0625,-0.3003032709603215,0.1096492630589925,0.1081837100860929,50.7,24.9,36.6
-976.5625,283.20312,251.95312,0.0644839817417337,0.0190520141147701,0.0479632186411309,5.4,33.75,44.1,327.63672,69.33594,968.26172,0.0333078634450597,0.1469541050240445,0.2491424345966117,50.25,14.1,94.8,-645.50781,97.65625,850.58594,-0.2208974222457371,0.0869999508229369,0.0655498543159266,50.1,26.25,37.95
-948.73047,260.25391,241.21094,-0.0570230482553083,0.0406354537766327,0.0066615726890119,5.4,33.75,44.1,347.16797,80.07813,994.14062,0.0330413516682802,0.0989908863829135,0.2208974222457371,49.8,13.5,91.8,-624.02344,97.16797,836.42578,-0.2492756032185389,0.0508943245869302,0.1171101965454179,49.95,26.4,37.35
-939.45312,271.48437,254.88281,-0.0097258472567384,0.0425006871482391,-0.0091929982361045,3.6,33.75,44.4,359.86328,88.37891,967.28516,0.0315757986953806,0.0788728251610253,0.2804517215152128,49.8,13.5,91.8,-603.51562,92.28516,815.42969,-0.2780536391229726,0.0723445956268657,0.0985910314512816,49.95,26.4,37.35
-948.24219,264.64844,269.53125,-0.0158545709251164,-0.0425006871482391,0.0186523337160634,3.75,35.85,44.25,371.58203,78.61328,954.58984,0.0271791397766816,0.0361056262360067,0.246477840427592,48.9,12.6,94.2,-605.46875,86.42578,851.5625,-0.2888453589539039,0.064750318985588,0.0790061683158777,50.55,24.0,37.2
-944.33594,262.20703,275.39062,-0.0478300500192038,0.0275788201753884,0.0391699008037331,7.05,35.1,43.95,364.74609,84.96094,945.80078,0.0141225061754373,0.0098591904115907,0.2602006662043226,49.2,11.85,94.2,-585.44922,76.66016,809.08203,-0.2813844254674786,0.0385038831611721,0.0460979852695246,51.45,26.7,38.1
-961.42578,269.53125,275.39062,-0.0774072721881257,0.0690138092823597,-0.0138559943986577,4.95,34.8,44.7,358.39844,59.08203,892.57812,0.0158545709251164,0.0054625314928918,0.2336875440702019,48.9,14.85,94.5,-594.72656,93.26172,861.81641,-0.2179663162999378,0.043566559722432,0.078606487917171,51.45,26.7,38.1
-937.5,275.87891,291.01562,-0.0166539317225298,-0.0422343499043847,0.074209828998472,4.95,34.8,44.7,395.01953,65.91797,875.48828,-0.0238483534321757,0.0490290912153239,0.2629984289952695,49.2,12.6,94.2,-595.21484,67.38281,804.6875,-0.2332878636714952,-0.0892648645932499,0.0375711792089063,50.55,24.75,37.2
-956.54297,276.85547,284.66797,-0.0103920394322246,-0.0174532925199432,0.043566559722432,4.95,34.8,44.7,378.41797,23.4375,865.23437,-0.0179861415405771,0.1159111553492978,0.2306232695024755,50.25,13.35,92.7,-562.5,21.97266,862.30469,-0.2893782079745378,-0.2122374475631916,0.1161776671260773,52.35,24.0,37.95
-975.58594,279.29687,269.04297,-0.0889985273493956,0.0383705400063197,0.0169204434993094,5.55,35.1,45.3,412.10937,4.88281,920.89844,-0.0185191650941362,0.0956601000384076,0.1692037368613934,49.8,13.2,94.05,-556.15234,3.41797,922.36328,-0.2416815011101863,-0.1001899275790336,0.0804717212887773,51.45,25.35,37.65
-960.44922,272.94922,288.08594,-0.0135896571548034,0.0307764378979672,0.0511608363637097,4.35,34.95,44.1,437.98828,-31.25,992.67578,0.011191400229638,0.0844685252758443,0.1722680114291199,49.8,13.2,94.05,-543.94531,-73.24219,875.97656,-0.1382939558085739,-0.0811377389313384,0.0921959705390492,51.45,24.9,37.35
-936.03516,260.25391,290.52734,-0.0054625314928918,0.0106585512090041,0.0231821612566894,5.25,35.1,44.25,430.66406,-58.59375,1015.625,0.0193185258915496,0.0639509581881746,0.1083170532409452,49.2,13.65,95.55,-557.12891,-48.82813,885.25391,-0.0294440535469947,0.020117886688963,0.0977916706538682,51.45,24.9,37.35
-909.17969,254.39453,290.03906,-0.0029311059457992,0.067015232755901,-0.0023980823922402,4.65,36.75,44.1,412.10937,-73.73047,965.33203,0.0315757986953806,-0.0515605167624164,0.0102588708102974,49.2,12.9,93.45,-564.94141,-38.08594,848.63281,-0.0089264864593249,-0.0139893375535101,0.068081105330094,51.75,25.65,37.35
-904.78516,270.99609,310.05859,0.05475795995207,0.005595700114819,0.0480965617959833,4.65,36.75,44.1,398.92578,-59.08203,927.24609,0.0470306892217904,-0.0600873228230347,0.0037304667432126,49.95,12.15,94.2,-541.01562,-22.94922,848.63281,0.0750091897958855,0.0033307863445059,0.0916631215184153,51.75,25.65,37.35
-919.92187,279.29687,299.80469,0.0343737360192527,0.0699463387017003,0.1160443239712249,5.7,34.95,44.1,410.15625,-32.22656,900.39062,0.0523598775598298,-0.0640843013430269,-0.0287778613715085,49.95,12.15,94.2,-545.89844,11.23047,867.67578,0.071944915228159,-0.0225161436141284,0.0794058487145844,51.6,24.75,36.45
-909.17969,262.69531,295.41016,-0.0327748398915007,0.1256370026060362,0.0494287716140306,4.35,34.5,43.35,429.19922,-10.25391,902.34375,0.0622190679714206,-0.0081271256619115,-0.0678147680862396,48.9,13.35,92.4,-525.87891,22.46094,821.77734,0.0651499993842947,0.0117244237831971,0.0592879620256213,51.6,26.25,37.95
-899.90234,258.30078,318.84766,0.0122572728038309,0.0442327518979182,0.0744763407752516,6.0,35.1,44.25,439.94141,20.99609,906.73828,0.0704793622552594,0.0213169278850831,-0.0178529729186499,50.25,13.35,93.45,-521.97266,86.91406,845.21484,0.0740764858436197,0.0154548905264097,0.0980581824306478,51.0,24.9,37.05
-887.20703,246.58203,295.89844,0.0819372742616769,-0.0059953805135257,0.0743429976203992,5.25,35.1,43.65,428.71094,27.34375,887.20703,0.0586217698501351,0.0002665117767795,-0.0094593354799588,50.25,13.35,93.45,-530.27344,97.65625,824.21875,-0.0390367321818059,0.0011990411961201,0.1083170532409452,51.75,24.6,38.1
-907.71484,229.00391,263.67187,0.079272505559732,0.0965926294577481,0.0831363154577971,5.25,35.1,43.65,415.52734,84.47266,878.41797,0.0726111074036452,-0.0341072242424731,-0.055823832526263,50.1,14.25,93.6,-526.85547,127.44141,846.19141,0.0455651362488907,0.0682144484849463,0.0722112524720134,49.35,25.8,36.9
-880.85937,248.04687,264.64844,0.0951270764848485,0.0258469299586344,0.0327748398915007,4.05,35.25,44.1,382.32422,108.88672,897.94922,0.0831363154577971,-0.0177198042967228,-0.0393032439585855,48.3,13.5,94.05,-533.20312,136.23047,826.17187,-0.0363721380127862,0.0651499993842947,0.103787051167394,50.55,24.3,36.45
-854.49219,259.27734,265.13672,0.1133797298022052,0.079272505559732,-0.0059953805135257,6.45,33.45,42.3,395.01953,93.75,916.01562,0.1029876903699806,-0.0965926294577481,-0.0205175670876697,48.3,13.95,92.85,-530.27344,136.23047,845.21484,-0.0250473946282958,0.0470306892217904,0.1148452827751048,50.55,24.3,36.45
-860.83984,274.90234,255.85937,0.1027213531261262,0.1484196579969441,0.0788728251610253,4.65,36.0,43.35,378.41797,128.41797,903.80859,0.0255804181818548,-0.1044532433428802,0.0369049870334201,48.3,13.95,92.85,-533.20312,166.99219,852.53906,-0.0238483534321757,0.1341638086666545,0.0499617951675896,50.85,27.3,37.95
-870.11719,291.01562,239.74609,0.0907304175661496,0.158944866051096,0.0378376909856858,5.25,34.35,44.7,373.53516,136.23047,904.29687,0.0582220894514284,-0.086467101802303,0.067015232755901,48.3,14.7,93.6,-538.08594,137.69531,831.05469,-0.04849624219469,0.049162259837251,0.1477534658214579,50.85,27.3,37.95
-917.48047,311.03516,256.34766,0.1171101965454179,0.1112481591867445,0.0722112524720134,5.25,34.35,44.7,376.46484,130.37109,903.32031,0.0370383301882724,-0.0616860444178615,0.0650168307623675,48.15,12.9,93.45,-538.08594,124.51172,838.86719,-0.0603538345998143,0.0366386497895657,0.0690138092823597,49.8,25.8,37.5
-905.27344,292.48047,251.46484,0.0783399761403914,0.10205516095064,0.0583552580733556,3.3,34.5,44.4,388.18359,122.07031,917.48047,0.0318423104721601,-0.0602204914449619,0.0598208110462552,48.45,12.9,93.45,-533.20312,123.53516,858.39844,-0.0249142260063686,0.0101255276554451,0.0594211306475485,51.45,26.4,36.0
-921.38672,306.64062,251.95312,0.0838025076332833,0.0386370517830992,0.0309096065198943,4.05,34.95,43.35,406.73828,128.41797,918.45703,0.0381042027624654,-0.0654165111610742,0.0375711792089063,49.8,13.5,94.35,-556.64062,126.46484,864.25781,-0.0811377389313384,0.0370383301882724,0.0976585020319411,50.7,26.7,37.35
-922.36328,304.19922,238.76953,0.1084502218628724,0.0057288687367461,0.0690138092823597,4.65,34.5,43.8,417.48047,133.30078,945.80078,0.0444992636746978,-0.0446324322966249,0.0535589187559499,47.7,14.4,92.4,-548.33984,138.18359,845.21484,-0.0814042507081179,0.0690138092823597,0.0623522365933478,50.25,26.4,37.65
-919.43359,288.57422,231.44531,0.0679479367081668,0.0508943245869302,0.0795390173365115,5.55,35.1,43.2,416.99219,127.44141,950.68359,0.0514271736075641,-0.0242480338308824,0.0850015488294034,49.5,14.1,92.7,-553.22266,152.34375,857.42187,-0.1084502218628724,0.068081105330094,0.0952604196397009,49.8,25.5,37.95
