IMU1_AccX,IMU1_AccY,IMU1_AccZ,IMU1_GyrX,IMU1_GyrY,IMU1_GyrZ,IMU1_MagX,IMU1_MagY,IMU1_MagZ,IMU2_AccX,IMU2_AccY,IMU2_AccZ,IMU2_GyrX,IMU2_GyrY,IMU2_GyrZ,IMU2_MagX,IMU2_MagY,IMU2_MagZ,IMU3_AccX,IMU3_AccY,IMU3_AccZ,IMU3_GyrX,IMU3_GyrY,IMU3_GyrZ,IMU3_MagX,IMU3_MagY,IMU3_MagZ
-847.16797,9.76562,-552.24609,-0.1077840296873862,0.1173767083221974,-0.0263797789792682,-13.95,26.4,13.65,-111.32813,-189.45312,1010.74219,-0.0361056262360067,0.0157212277702641,0.1107151356331855,73.35,-4.65,89.55,-917.48047,-25.39063,391.60156,-0.1087167336396519,0.015055210127703,-0.0666155523571943,61.2,16.2,10.8
-848.63281,9.76562,-557.12891,-0.0538254305327295,0.0401026047559989,0.023981696587028,-13.95,26.4,13.65,-106.44531,-204.58984,979.98047,-0.0010658725741929,0.0303767574992605,0.0583552580733556,73.35,-4.65,89.55,-920.89844,-19.04297,394.04297,-0.0828698036810175,-0.0214502710399355,-0.0692803210591393,59.7,14.25,10.35
-861.81641,6.83594,-537.59766,-0.0827366350590903,0.1001899275790336,-0.0263797789792682,-13.95,26.4,13.65,-107.91016,-214.84375,999.02344,-0.0021317451483858,0.0231821612566894,0.110981647409965,74.7,-3.3,88.35,-916.01562,-13.18359,388.18359,-0.146687593247265,-0.0203843984657425,-0.0381042027624654,59.7,14.25,10.35
-815.91797,3.41797,-533.20312,-0.0976585020319411,0.0816707624848974,-0.0659495347146333,-13.5,26.4,14.7,-102.05078,-179.6875,999.02344,0.0359724576140795,0.0043966589186989,0.0734104682010586,74.4,-5.4,88.5,-913.08594,-22.94922,411.62109,-0.0933951862680945,-0.0350397536618137,-0.059154618870769,61.2,14.7,9.0
-832.03125,11.23047,-532.71484,-0.0511608363637097,0.0213169278850831,-0.0221164632154217,-13.2,27.9,14.4,-103.02734,-184.08203,988.76953,-0.0021317451483858,0.0309096065198943,0.0935283548900217,74.7,-3.3,88.95,-916.99219,-9.27734,396.48437,-0.1164441789028568,-0.0582220894514284,-0.0868667822010097,61.2,14.7,9.0
-835.44922,22.94922,-528.32031,-0.0891316959713228,0.0751423584178126,-0.0618192130397887,-14.1,25.8,12.9,-110.35156,-166.99219,993.16406,0.0251807377831481,0.020117886688963,0.0599539796681824,74.7,-3.3,88.95,-891.11328,-21.97266,396.48437,-0.1181760691196108,0.0186523337160634,-0.0618192130397887,60.9,16.2,11.25
-835.44922,28.80859,-545.41016,-0.1195084534705833,0.1023216727274195,0.0289112045263608,-13.95,25.65,14.7,-104.00391,-163.57422,981.93359,-0.0026645941690197,-0.0050628510941851,0.0759418937481512,73.5,-5.25,87.9,-916.99219,-15.625,403.32031,-0.1105819670112583,0.0070612530877186,-0.0464976656682313,60.15,16.2,9.75
-856.93359,22.94922,-561.52344,-0.0728774446474996,0.0823369546603836,0.05475795995207,-13.95,25.65,14.7,-109.375,-159.66797,996.09375,-0.0054625314928918,0.0330413516682802,0.0920628019171221,74.85,-3.45,88.8,-911.62109,-13.67187,416.01562,-0.1119141768293056,-0.0616860444178615,-0.0690138092823597,60.3,14.55,9.3
-849.12109,23.92578,-544.92187,-0.0660827033365605,0.0774072721881257,-0.0062618922903052,-13.8,27.0,12.9,-124.02344,-172.36328,994.62891,0.0342403928644003,0.0514271736075641,0.1452220402743654,74.4,-4.2,89.85,-926.26953,-2.92969,420.89844,-0.1292343007273217,-0.0138559943986577,-0.0796723604913639,60.75,15.3,10.95
-843.26172,13.67187,-542.96875,-0.0921959705390492,0.114312433754471,-0.0017320647496791,-13.8,26.25,13.2,-120.11719,-164.0625,1021.48437,-0.0002665117767795,0.0007993607974134,0.1167105161467112,75.0,-5.25,88.95,-930.17578,0.0,418.94531,-0.1116478395854512,-0.0059953805135257,-0.0850015488294034,61.05,14.85,9.6
-847.16797,11.23047,-537.10937,-0.0612863640191548,0.0671485759107534,0.068614128883653,-13.8,26.25,14.25,-119.62891,-171.875,1023.4375,0.0254472495599277,0.0342403928644003,0.1236386006125027,72.9,-6.0,88.65,-925.29297,-13.67187,417.48047,-0.1073843492886795,-0.0852680606061829,-0.0399694361340717,61.65,15.15,10.5
-857.91016,16.60156,-538.57422,-0.1233720888357231,0.0455651362488907,-0.0051960197161123,-13.8,26.25,14.25,-109.375,-180.66406,996.09375,0.0097258472567384,0.0314426300734534,0.1541485267336904,75.0,-4.5,87.9,-918.94531,-30.76172,418.94531,-0.0989908863829135,-0.086467101802303,-0.0691469779042869,61.65,15.15,10.5
-835.9375,16.11328,-522.94922,-0.0877993116203503,0.015055210127703,0.0411684773301918,-14.4,26.25,13.5,-104.00391,-181.64062,1002.44141,0.0367718184114929,0.015055210127703,0.1059187963157798,75.0,-4.5,87.9,-931.15234,-21.97266,422.85156,-0.1604104190239956,-0.0194516945134768,-0.0933951862680945,60.3,14.85,9.9
-828.61328,10.74219,-540.52734,-0.0732771250462063,-0.0023980823922402,0.0439662401211387,-13.95,26.1,14.4,-112.30469,-189.94141,1014.16016,0.0375711792089063,0.0715452348294523,0.1257703457608885,75.0,-6.0,88.65,-928.22266,-34.66797,430.17578,-0.1268362183350815,-0.0023980823922402,-0.0720780838500862,61.05,14.55,9.6
-831.54297,27.83203,-534.17969,-0.0885988469506889,0.0869999508229369,0.0604870032217414,-14.55,26.4,13.35,-106.93359,-178.71094,1012.20703,0.0049295079393327,0.0003996803987067,0.1474869540446784,74.85,-4.2,89.1,-921.875,-37.10938,423.33984,-0.1481531462201646,-0.0403691165327784,-0.0743429976203992,61.05,15.3,10.95
-837.89062,24.90234,-538.08594,-0.1265697065583019,0.0784731447623186,-0.0067947413109391,-14.25,25.65,13.35,-93.75,-185.54687,1014.16016,0.0361056262360067,0.0115910806283447,0.1148452827751048,74.25,-4.8,88.65,-928.71094,-48.82813,426.75781,-0.1388269793621329,-0.0315757986953806,-0.0530260697353161,60.9,15.15,11.55
-828.125,37.59766,-532.22656,-0.094860564708069,-0.0030642745677264,0.0562235129249697,-14.25,25.65,13.35,-96.67969,-185.54687,1004.88281,0.032908183046353,0.0047963393174056,0.1716018192536337,74.25,-4.8,88.65,-934.08203,-37.10938,437.98828,-0.0624854052152749,-0.022382800459276,-0.0049295079393327,60.9,15.15,11.55
-823.73047,36.13281,-535.64453,-0.1546815502872494,0.0182526533173567,-0.0214502710399355,-12.9,27.9,14.4,-98.14453,-181.15234,998.53516,0.0354394340605204,-0.0225161436141284,0.1393598283827668,74.7,-4.5,88.65,-927.24609,-38.08594,433.10547,-0.0660827033365605,-0.0706125308771865,-0.0351730968166661,61.95,15.15,10.05
-840.33203,40.52734,-537.59766,-0.1914533686987423,0.0169204434993094,0.0053291883380394,-13.8,26.25,13.95,-99.60938,-199.21875,992.67578,0.0186523337160634,0.0046631706954784,0.1658729505168874,74.1,-2.7,88.5,-916.99219,-29.78516,432.61719,-0.094860564708069,-0.0464976656682313,0.0018652333716063,60.6,14.4,10.8
-829.58984,28.80859,-550.78125,-0.103787051167394,-0.0655498543159266,0.0219831200605693,-13.95,26.4,13.65,-119.14063,-180.17578,1008.78906,0.0638177895662474,-0.0010658725741929,0.1081837100860929,74.1,-2.7,88.5,-911.13281,-54.19922,427.24609,-0.0819372742616769,-0.0594211306475485,-0.0106585512090041,60.6,14.4,10.8
-836.91406,47.85156,-541.01562,-0.1572128013014168,0.0178529729186499,0.0407687969314851,-15.3,26.1,12.6,-108.88672,-190.42969,1007.8125,0.0528927265804637,0.0085268060606182,0.1291011321053945,75.0,-3.75,88.65,-920.89844,-46.875,447.26562,-0.0612863640191548,-0.0815375938629702,0.0325085026476463,61.05,14.55,10.65
-824.70703,40.52734,-536.13281,-0.184658452854878,0.023448673033469,-0.0334410320669869,-15.3,26.1,12.6,-123.53516,-170.41016,1016.60156,0.0961929490590414,-0.0181194846954295,0.1525498051388636,74.7,-4.5,88.95,-924.80469,-21.97266,437.01172,-0.078606487917171,-0.0728774446474996,0.0011990411961201,61.05,14.55,10.65
-811.52344,34.17969,-527.34375,-0.1416247421530798,-0.0165205885676775,0.0237151848102485,-15.15,27.75,13.95,-98.63281,-180.66406,1015.625,0.080871401687484,-0.0229158240128351,0.1249709849634751,74.1,-3.45,88.8,-916.01562,-18.06641,441.89453,-0.0955267568835552,-0.0254472495599277,0.0243813769857347,62.25,14.7,10.8
-811.03516,34.66797,-529.29687,-0.1618759719968953,0.0057288687367461,-0.0063950609122324,-13.5,27.45,13.05,-104.00391,-182.61719,1005.85937,0.0980581824306478,-0.0374380105869791,0.1786630723413523,74.1,-3.45,88.8,-916.99219,-22.94922,422.36328,-0.0846018684306967,-0.0430337107017981,-0.0147886983509235,60.3,15.6,10.35
-833.00781,23.4375,-527.83203,-0.1548147189091766,0.0127901218244648,-0.0209172474863764,-14.85,27.3,13.5,-111.32813,-195.3125,1021.97266,0.0683476171068735,-0.0620857248165682,0.1257703457608885,75.0,-5.25,90.0,-897.94922,-13.18359,418.45703,-0.0823369546603836,-0.0791393369378048,-0.0265129476011954,60.0,15.3,9.9
-840.82031,33.69141,-538.57422,-0.1171101965454179,-0.0555574952824086,0.051827028539196,-14.85,27.3,13.5,-69.33594,-178.22266,1007.32422,0.0423675185263119,-0.1099157748357721,0.118842261295097,75.15,-3.9,89.85,-908.20312,1.46484,424.80469,-0.10205516095064,-0.0210505906412288,-0.034640073263107,60.6,15.15,10.05
-849.60937,13.67187,-546.875,-0.1576124817001235,-0.0799386977352182,-0.0310429496747467,-14.55,26.7,14.4,-110.83984,-174.31641,971.67969,0.1397595087814735,-0.1113813278086717,0.1360290420382608,75.3,-3.75,88.65,-916.01562,-10.74219,416.99219,-0.143356806902759,-0.0073277648644981,-0.0151883787496302,61.05,15.6,10.95
-860.83984,20.99609,-555.17578,-0.1765313271929664,-0.0803383781339249,-0.1041869060990259,-14.85,26.55,14.25,-104.98047,-200.19531,987.30469,0.1161776671260773,-0.0499617951675896,0.1536156777130565,74.1,-3.45,88.8,-919.92187,9.76562,422.36328,-0.1682710329091277,-0.0345069046411798,-0.045165455850184,60.6,14.4,10.5
-847.16797,20.01953,-544.43359,-0.1430902951259795,-0.1386936362072806,-0.0070612530877186,-14.85,27.75,13.95,-85.9375,-157.71484,989.25781,0.0814042507081179,-0.0510274932088574,0.105385947295146,74.4,-3.9,90.3,-897.94922,3.90625,432.12891,-0.1814610096652244,-0.1440229990782452,-0.0269126279999021,60.6,14.4,10.5
-848.63281,8.78906,-534.66797,-0.1538820149569108,-0.1432236382808319,0.0035972981212855,-14.25,27.45,13.65,-117.67578,-191.89453,995.60547,0.0888651841945432,-0.0371714988101996,0.1468207618691921,74.7,-4.8,88.35,-908.69141,10.25391,439.94141,-0.1649402465646217,-0.0536922619108023,-0.0516936853843436,61.2,14.4,11.25
-845.70312,22.46094,-537.10937,-0.1566799522807829,-0.0889985273493956,-0.0274456515534612,-14.25,27.45,13.65,-108.39844,-142.57812,1013.67187,0.1438898304563181,-0.0690138092823597,0.1614762915981885,74.7,-4.8,88.35,-918.94531,-5.85937,436.03516,-0.1389601479840601,-0.0536922619108023,-0.0222496318373489,61.05,14.55,10.65
-840.82031,39.55078,-536.62109,-0.1445558480988791,-0.1265697065583019,0.0370383301882724,-13.05,27.3,15.0,-107.42188,-145.01953,998.04687,0.2338208872250543,-0.0955267568835552,0.1336309596460206,73.95,-3.75,89.7,-923.33984,-13.67187,444.82422,-0.1482863148420918,-0.1079173728422385,0.0281118437289474,60.9,14.4,11.55
-839.84375,30.27344,-520.99609,-0.17346705262524,-0.1448223598756587,0.050761155965003,-13.5,27.15,14.4,-95.70313,-150.87891,1027.83203,0.077007591789419,-0.027312482931534,0.216367594705111,73.95,-1.5,89.4,-926.75781,-27.83203,416.01562,-0.2101057024148057,-0.0011990411961201,0.0161209081689708,60.15,13.95,10.8
-847.65625,12.69531,-522.46094,-0.2050428513206206,-0.0650168307623675,-0.0436999028772844,-13.35,27.75,13.2,-104.98047,-174.80469,1016.60156,0.0626187483701273,-0.1152449631738115,0.2347534166443949,74.25,-3.0,91.2,-938.96484,-39.0625,432.12891,-0.2175666359012311,-0.0862005900255235,0.0271791397766816,61.05,14.55,10.95
-858.39844,20.01953,-517.08984,-0.1582786738756097,-0.1362955538150403,0.0640843013430269,-13.95,27.45,14.7,-94.72656,-129.39453,1001.46484,0.0575558972759422,-0.1041869060990259,0.1981147668548291,74.25,-3.0,91.2,-918.45703,-33.69141,418.45703,-0.2311562930560345,-0.1088499022615791,-0.0006661921754862,60.9,14.7,11.25
-841.30859,36.62109,-523.92578,-0.143356806902759,-0.1299004929028079,0.0335742006889141,-13.95,27.45,14.7,-111.81641,-152.83203,993.65234,0.0774072721881257,-0.0827366350590903,0.2440795835024266,73.2,-1.8,89.7,-929.6875,-16.60156,408.20312,-0.2896447197513174,-0.0195850376683291,-0.0245145456076619,60.9,14.7,11.25
-859.86328,43.45703,-518.55469,-0.2111715749889987,-0.0944608843093623,0.018385996472209,-13.05,28.05,13.2,-99.12109,-120.11719,994.62891,0.0822036115055313,-0.1510842521659639,0.216367594705111,73.95,-3.3,88.95,-913.57422,-33.20313,416.01562,-0.2887120157990516,-0.1091164140383586,-0.0255804181818548,60.75,14.55,10.65
-857.42187,54.6875,-511.71875,-0.1704027780575135,-0.0764747427687851,0.1434899755246862,-13.05,28.8,15.3,-85.9375,-149.41406,1006.34766,0.0571562168772355,-0.1422909343285661,0.2624655799746356,73.95,-3.3,88.95,-950.19531,-33.20313,402.83203,-0.3153583065550994,-0.0655498543159266,0.0455651362488907,60.75,14.55,10.65
-855.46875,54.19922,-505.85937,-0.1863905176045572,-0.1164441789028568,0.0798055291132911,-13.95,27.9,13.05,-78.125,-108.88672,982.42187,0.1337641282679478,-0.0510274932088574,0.2419480128869659,73.95,-3.3,88.95,-919.43359,-47.36328,395.99609,-0.3456018954324327,-0.0303767574992605,0.0283781809728018,60.75,15.6,11.7
-836.42578,76.66016,-507.8125,-0.2534057503604583,-0.0377045223637587,0.0355727772153728,-13.95,27.9,13.05,-124.02344,-166.99219,949.21875,0.1140459219776914,-0.070346019100407,0.1950504922871027,74.85,-1.95,89.85,-911.13281,-45.41016,390.625,-0.3421377659330744,-0.0209172474863764,-0.015055210127703,60.3,14.85,10.35
-844.72656,89.84375,-505.85937,-0.2268928027592628,-0.1069846688899728,0.0903307371674429,-13.95,27.9,13.05,-101.07422,-123.04688,994.14062,0.0812710820861907,-0.0527595579585365,0.2651301741436554,74.4,-1.2,90.6,-916.99219,-40.52734,410.64453,-0.3790429274994197,-0.071944915228159,-0.0037304667432126,60.3,14.85,10.35
-834.47266,83.00781,-498.53516,-0.2376845225901941,-0.0347734164179594,0.0822036115055313,-13.8,28.5,15.3,-90.82031,-145.50781,1031.25,0.0002665117767795,-0.1079173728422385,0.2294242283063554,73.95,-1.8,90.0,-933.10547,-41.99219,405.76172,-0.4099525340193141,0.0073277648644981,0.0490290912153239,61.05,14.55,10.65
-850.58594,86.91406,-510.74219,-0.3048330985009476,0.052493046181757,0.0628850856139816,-14.4,28.8,14.25,-99.12109,-116.69922,1041.50391,0.0089264864593249,-0.2352864401979539,0.2568698798598167,73.95,-1.8,90.0,-904.29687,-35.64453,434.57031,-0.3964962200193629,-0.0720780838500862,-0.0011990411961201,60.75,15.6,11.4
-846.19141,81.05469,-514.16016,-0.2575358975023777,0.0258469299586344,0.0486294108166172,-12.9,29.4,15.15,-110.83984,-149.90234,999.51172,-0.0371714988101996,-0.2528729013398244,0.2586017700765706,74.4,-2.4,89.55,-932.12891,-35.15625,437.98828,-0.4218101264244384,-0.1021883295725672,0.0247810573844414,60.0,15.6,10.95
-826.17187,83.00781,-533.20312,-0.2470106894482258,0.0118575924051242,0.0684807857288007,-12.3,28.8,13.5,-116.69922,-158.69141,988.28125,0.04849624219469,-0.1871898784019706,0.3060321396970677,73.5,-1.8,89.4,-915.03906,-40.03906,404.78516,-0.4204777420734659,-0.0342403928644003,0.0487625794385443,61.35,15.3,11.4
-836.42578,98.14453,-522.94922,-0.2729907880287874,0.1029876903699806,0.0556906639043358,-12.3,28.8,13.5,-130.37109,-163.57422,932.61719,0.1867901980032639,-0.104320074720953,0.2149020417322114,73.95,-2.55,90.75,-933.10547,-60.05859,423.33984,-0.4246080637483105,-0.071944915228159,0.0326416712695735,61.35,15.3,11.4
-837.89062,108.39844,-542.48047,-0.2330213518947157,0.0197182062902563,0.0174532925199432,-12.9,28.65,14.4,-140.13672,-125.97656,960.9375,0.1338974714228001,0.0041301471419193,0.2243613772121702,73.5,-1.5,91.2,-927.73437,-63.47656,439.94141,-0.4227426558437789,-0.0646171503636608,0.04849624219469,60.9,15.9,10.8
-832.51953,103.51563,-530.76172,-0.216367594705111,0.0494287716140306,0.0005328490206338,-14.4,28.05,15.0,-107.42188,-128.90625,1006.34766,0.1025880099712739,-0.0241148652089552,0.2334212068263476,72.45,-1.05,91.2,-910.15625,-76.17188,423.82812,-0.4114180869922137,-0.0888651841945432,0.0476967068643514,59.4,14.4,12.3
-820.3125,127.92969,-530.76172,-0.2680612800894547,0.1141790905996186,-0.0087933178373978,-13.35,29.25,15.3,-106.44531,-133.30078,1041.50391,0.070346019100407,-0.0624854052152749,0.2575358975023777,72.0,-0.9,90.3,-917.48047,-74.21875,409.66797,-0.4332680384308559,-0.011191400229638,0.0556906639043358,60.6,15.9,11.85
-819.82422,118.16406,-552.24609,-0.2354196088198811,0.1275022359776425,0.0294440535469947,-13.35,29.55,13.5,-122.07031,-155.27344,992.1875,0.0691469779042869,-0.1265697065583019,0.2450122874546923,72.0,-0.9,90.3,-933.10547,-82.03125,422.36328,-0.371981674411701,-0.0057288687367461,0.0576890658978693,60.0,15.6,13.5
-827.63672,116.69922,-550.78125,-0.2078407886444927,0.1108484787880378,-0.0450321126953316,-13.35,29.55,13.5,-125.97656,-148.4375,982.42187,0.0544916227082157,-0.1554809110846628,0.2150352103541385,72.45,-1.8,91.2,-924.80469,-85.44922,425.78125,-0.3330781108518222,-0.0832694840797242,0.0378376909856858,60.3,16.05,11.7
-824.70703,117.67578,-535.64453,-0.2712587232791083,0.1019218177957876,-0.0618192130397887,-14.85,27.3,13.95,-106.44531,-155.27344,985.83984,0.0203843984657425,-0.1561469287272238,0.1982481100096814,73.5,-1.5,90.0,-933.59375,-85.44922,418.94531,-0.3130933927847864,-0.0871332939777893,0.0592879620256213,61.05,15.6,12.75
-818.35937,122.07031,-547.85156,-0.2928423374738961,0.1000565844241813,-0.0389035635598788,-14.1,29.55,14.25,-125.48828,-152.83203,1007.8125,0.023981696587028,-0.1033873707686873,0.2151683789760657,72.45,-0.75,90.0,-911.62109,-95.21484,419.92187,-0.2836493392377916,-0.1450888716524382,0.0627519169920545,61.05,15.6,12.75
-815.42969,102.05078,-557.12891,-0.2183659966986445,0.1057856276938527,-0.0173201238980161,-13.5,30.15,14.1,-114.25781,-149.90234,980.46875,0.0338407124656936,-0.0955267568835552,0.17346705262524,72.9,-1.05,89.7,-905.76172,-102.05078,431.64062,-0.2881791667784177,-0.1394931715376192,0.0610198522423753,61.05,16.8,11.4
-816.89453,117.1875,-561.52344,-0.2161010829283315,0.1083170532409452,-0.059154618870769,-13.5,30.15,14.1,-112.79297,-100.58594,1003.90625,0.1017886491738605,0.0278453319521679,0.1506845717672572,72.45,-1.5,90.45,-924.80469,-101.07422,450.19531,-0.2228958242392706,-0.1641408857672083,0.0430337107017981,61.05,16.8,11.4
-815.42969,118.65234,-558.10547,-0.2322219910973023,0.0983246942074273,-0.0195850376683291,-14.85,31.05,14.55,-112.79297,-142.57812,1009.27734,0.0892648645932499,-0.0235820161883213,0.0869999508229369,72.6,-0.45,89.85,-900.39062,-104.00391,419.92187,-0.2159679143064043,-0.0554241521275563,0.0023980823922402,59.7,14.55,12.0
-796.875,122.55859,-560.54687,-0.1521501247401568,0.0945942274642146,0.068614128883653,-15.0,29.4,15.15,-91.30859,-133.30078,1013.67187,0.0892648645932499,-0.0077274452632048,0.0763415741468579,72.6,-0.45,89.85,-912.10937,-99.60938,444.33594,-0.1621424837736748,-0.058088746296576,-0.0018652333716063,61.2,15.45,11.55
-809.08203,115.72266,-571.28906,-0.167871352510421,0.0993905667816202,0.0246477142295891,-13.5,29.7,14.4,-78.125,-117.1875,1036.62109,0.0590214502488418,-0.0691469779042869,0.1485528266188713,73.2,-0.75,90.75,-900.87891,-105.95703,460.44922,-0.1618759719968953,-0.0723445956268657,0.0149218669728507,60.75,15.6,12.75
-849.60937,120.60547,-555.66406,-0.1754656291516987,0.1421577657066389,-0.015055210127703,-13.95,28.95,13.65,-82.03125,-135.25391,1025.39063,0.0779402957416847,-0.1100489434576992,0.0754088701945922,72.45,-2.55,90.0,-888.18359,-97.65625,450.19531,-0.1136462415789847,-0.0804717212887773,0.0274456515534612,60.75,16.35,13.5
-855.46875,118.16406,-557.12891,-0.1223062162615302,0.0508943245869302,0.0735436368229858,-13.95,28.95,13.65,-95.21484,-147.46094,1016.11328,0.0381042027624654,-0.1087167336396519,0.1252373222073295,73.5,-0.75,89.4,-892.57812,-84.96094,438.96484,-0.0985910314512816,0.0243813769857347,0.002264913770313,61.2,15.15,12.3
-860.83984,107.42188,-555.17578,-0.1705359466794407,0.0456983048708179,0.0141225061754373,-14.1,30.3,15.0,-81.54297,-151.36719,993.65234,0.0748760211739583,-0.0734104682010586,0.0458314734927451,73.5,-0.75,89.4,-902.34375,-71.28906,446.28906,-0.0411684773301918,-0.0233155044115418,0.0007993607974134,60.9,16.2,11.85
-856.93359,144.04297,-548.82812,-0.1624088210175291,0.0241148652089552,0.0343737360192527,-15.0,28.95,15.15,-75.19531,-144.04297,1000.0,0.0233155044115418,-0.0927289940926083,0.0523598775598298,72.6,-1.95,90.9,-900.87891,-62.98828,457.03125,-0.0504946441882235,-0.0866002704242302,0.0590214502488418,60.9,16.2,11.85
-843.75,137.69531,-540.03906,-0.1016554805519333,-0.0470306892217904,0.1089830708835063,-15.6,29.4,13.65,-70.80078,-141.11328,993.16406,0.0822036115055313,-0.0105252080541518,0.0391699008037331,72.45,-1.05,90.0,-904.29687,-65.91797,453.61328,-0.0579555776746489,-0.0235820161883213,0.0399694361340717,60.6,16.95,12.9
-855.95703,145.01953,-525.39062,-0.1468207618691921,0.0069280844657914,0.0527595579585365,-15.6,29.4,13.65,-67.38281,-133.30078,1000.48828,0.1117810082073784,-0.0171867807431637,0.0325085026476463,74.25,-0.3,90.75,-880.37109,-62.01172,424.31641,-0.0385038831611721,-0.0009327039522657,-0.004529827540626,61.2,15.9,12.3
-837.89062,123.53516,-527.34375,-0.0960597804371143,-0.0189188454928429,0.0386370517830992,-14.55,30.45,14.1,-75.19531,-138.67187,1001.46484,0.10205516095064,0.0051960197161123,0.0170536121212365,73.35,-1.2,92.4,-877.44141,-45.41016,437.01172,-0.0414349891069713,0.0229158240128351,0.016787100344457,62.25,16.2,12.3
-846.19141,125.97656,-511.71875,-0.0510274932088574,-0.0350397536618137,0.0881991665519822,-14.1,31.8,14.25,-58.10547,-131.83594,1024.90234,0.0787396565390981,-0.0255804181818548,0.0094593354799588,72.0,-0.15,90.6,-884.76562,-63.96484,438.47656,-0.0802052095119978,0.0806048899107045,0.0174532925199432,60.9,16.2,12.9
-856.93359,120.11719,-509.27734,-0.0939280352887284,0.0107917198309313,0.0370383301882724,-13.2,30.45,14.1,-53.22266,-134.27734,1013.67187,0.1160443239712249,-0.0247810573844414,-0.0318423104721601,72.3,-1.2,90.6,-892.08984,-66.40625,412.59766,-0.0471638578437175,0.0345069046411798,-0.0051960197161123,60.9,16.65,12.3
-853.51562,123.53516,-501.95312,-0.0231821612566894,-0.0394364125805126,0.0534257501340228,-15.45,31.05,13.5,-66.89453,-117.1875,1000.0,0.0840688448771376,-0.0141225061754373,0.0149218669728507,72.3,-1.2,90.6,-888.67187,-76.66016,436.52344,-0.0131899767560967,0.1474869540446784,0.0446324322966249,61.35,16.05,13.8
-836.42578,145.99609,-509.27734,-0.0439662401211387,-0.0149218669728507,0.0074609334864253,-15.45,31.05,13.5,-62.5,-118.65234,967.77344,0.0731439564242791,0.0409019655534123,-0.0235820161883213,73.2,0.0,88.95,-899.41406,-86.42578,427.73437,0.0006661921754862,0.075275701572665,0.0401026047559989,61.65,16.65,12.9
-852.53906,141.11328,-506.83594,0.0057288687367461,-0.0944608843093623,0.0807380585326316,-14.55,31.2,14.1,-61.52344,-140.13672,998.53516,0.0834028272345766,0.0146553551960711,0.0377045223637587,72.6,-0.15,91.35,-894.04297,-70.3125,434.08203,0.0483628990398376,0.0572893854991626,0.0503614755662963,61.65,16.65,12.9
-836.91406,143.06641,-512.20703,-0.0307764378979672,0.0037304667432126,0.0019984019935335,-14.25,30.15,14.1,-68.84766,-144.53125,1008.78906,0.0095926786348112,0.0474303696204971,0.0249142260063686,72.9,0.0,89.7,-878.90625,-77.63672,430.66406,0.023448673033469,0.1633415249697949,0.0186523337160634,61.8,16.05,13.05
-835.9375,149.90234,-518.55469,-0.0013323843509724,-0.0282450123508746,-0.0085268060606182,-13.35,29.55,13.95,-90.33203,-138.67187,1001.46484,0.059687642424328,0.0464976656682313,-0.0178529729186499,72.3,0.15,89.1,-905.27344,-78.61328,440.42969,0.0772741035661985,0.1256370026060362,0.0389035635598788,61.8,16.05,13.05
-836.42578,148.4375,-527.34375,0.0030642745677264,-0.049162259837251,0.0410353087082646,-14.4,31.35,15.3,-90.33203,-139.64844,981.93359,0.0774072721881257,0.0480965617959833,-0.0714118916745999,71.7,-1.05,90.45,-896.48437,-84.47266,433.10547,0.0628850856139816,0.1272358987337882,0.0787396565390981,60.3,15.3,13.5
-844.23828,133.30078,-518.55469,-0.0482297304179105,0.0642174699649541,-0.0371714988101996,-14.4,31.35,15.3,-90.82031,-132.8125,988.76953,0.082603291904238,0.0911300979648563,-0.0504946441882235,72.0,-1.2,89.85,-894.53125,-71.77734,425.78125,0.1069846688899728,0.1397595087814735,0.0632847660126884,60.6,16.95,11.85
-843.75,138.67187,-535.64453,0.0530260697353161,-0.059687642424328,0.0066615726890119,-15.0,30.45,14.7,-84.96094,-131.34766,1019.04297,0.0602204914449619,0.0635512777894679,-0.0787396565390981,72.0,-1.2,89.85,-925.78125,-85.9375,433.10547,0.1584120170304621,0.1263031947815224,0.1016554805519333,60.6,16.95,12.6
-827.63672,124.51172,-532.71484,0.0274456515534612,-0.0169204434993094,0.0519601971611231,-15.45,30.6,14.55,-94.72656,-103.51563,1009.76562,0.0579555776746489,0.0463644970463041,-0.0838025076332833,72.0,-1.2,89.85,-924.80469,-75.68359,432.61719,0.1336309596460206,0.1404257009569597,0.0599539796681824,60.6,16.2,12.3
-834.96094,136.23047,-531.73828,0.0034639549664331,0.0057288687367461,-0.0415681577288985,-15.3,29.7,15.45,-73.73047,-108.88672,996.09375,0.0815375938629702,0.0295773967018471,-0.0667488955120467,72.45,0.0,91.2,-921.875,-80.07813,423.82812,0.1260366830047429,0.2155680593747724,0.0455651362488907,61.8,16.35,12.45
-828.61328,133.78906,-544.43359,0.0410353087082646,-0.0351730968166661,0.0434333911005048,-15.3,29.7,15.45,-91.79688,-127.92969,1010.25391,0.0530260697353161,0.0690138092823597,-0.0712787230526728,73.05,0.45,89.85,-917.48047,-78.125,423.33984,0.1362955538150403,0.1572128013014168,0.0984578628293545,59.4,16.2,11.55
-828.125,120.11719,-549.31641,-0.0439662401211387,-0.0003996803987067,-0.0189188454928429,-15.3,29.7,15.45,-103.02734,-133.78906,990.23437,-0.0090596550812521,0.1107151356331855,-0.116577347524784,73.95,-0.3,90.0,-930.66406,-58.10547,433.10547,0.1855911568071438,0.1898544725709904,0.0001331686219271,59.4,16.2,11.55
-845.21484,123.53516,-559.57031,0.0101255276554451,0.0121241041819038,-0.0470306892217904,-15.45,30.3,12.9,-97.16797,-125.97656,1011.23047,0.0608866836204481,0.0652833425391471,-0.077540615342978,73.95,-0.3,90.0,-936.52344,-70.80078,425.29297,0.2202312300702509,0.1117810082073784,0.0195850376683291,60.3,16.35,13.05
-831.54297,129.88281,-541.01562,0.0746095093971788,0.0365053066347134,0.0487625794385443,-14.85,30.6,14.25,-89.84375,-142.57812,1007.8125,-0.0065284040670847,0.078606487917171,-0.1235054319905755,72.9,-0.3,89.7,-939.45312,-63.47656,423.33984,0.1931852589154963,0.1309663654770009,0.0263797789792682,61.95,16.95,11.85
-829.58984,130.37109,-548.82812,0.0448989440734045,-0.0297105653237742,-0.0448989440734045,-13.35,30.6,13.95,-114.74609,-127.92969,1007.8125,0.0137228257767306,0.0503614755662963,-0.1264363634034496,73.5,0.0,91.2,-921.38672,-58.10547,409.17969,0.2031776179490143,0.1185757495183175,0.0592879620256213,60.9,16.95,12.6
-833.49609,126.95313,-531.25,0.0173201238980161,-0.0624854052152749,0.034640073263107,-14.25,30.15,14.1,-112.30469,-128.41797,1013.18359,0.0932618431132422,-0.006128723668378,-0.150018379591771,71.55,-0.9,90.3,-921.875,-43.45703,416.99219,0.1981147668548291,0.0996569040254746,0.0147886983509235,60.6,18.0,12.6
-849.60937,125.48828,-552.24609,0.1136462415789847,-0.0315757986953806,0.0002665117767795,-14.25,30.15,14.1,-95.21484,-114.74609,1004.39453,0.025713586803782,0.0475635382424242,-0.1127137121596442,73.05,0.15,90.3,-917.96875,-35.15625,436.52344,0.1958498530845161,0.1028545217480534,0.0319754790940873,61.35,16.35,12.0
-846.19141,113.28125,-549.80469,0.032375159492794,-0.0227824808579827,0.023448673033469,-15.3,31.2,15.45,-103.02734,-135.74219,999.51172,0.0162542513238231,0.0262466103573411,-0.1269693869570086,72.6,-1.2,89.85,-931.64062,-20.01953,414.55078,0.1781302233207184,0.1217733672408963,0.0237151848102485,60.0,17.55,10.65
-853.02734,105.46875,-550.29297,0.0981913510525749,-0.0443659205198454,0.0170536121212365,-14.1,29.85,15.6,-119.62891,-135.74219,1005.37109,0.0542251109314362,0.0692803210591393,-0.107650861065459,73.8,-0.9,89.1,-925.78125,-10.25391,397.46094,0.1751991173749191,0.0917962901403425,0.0199847180670358,60.0,17.55,10.65
-827.63672,99.60938,-548.82812,0.1374945950111605,-0.0500949637895168,0.0652833425391471,-14.85,29.85,14.55,-128.41797,-115.23438,995.11719,0.0460979852695246,0.0622190679714206,-0.1160443239712249,73.8,-0.9,89.1,-925.78125,-19.53125,403.80859,0.2251607380095836,0.0711455544307456,0.0097258472567384,61.05,17.55,12.0
-847.16797,107.42188,-547.36328,0.0830031468358699,-0.0476967068643514,0.0135896571548034,-13.95,30.45,14.7,-117.1875,-107.42188,991.21094,0.0062618922903052,0.0270459711547545,-0.1306998537002213,73.2,0.0,89.7,-918.94531,-15.13672,405.76172,0.1771975193684527,0.0246477142295891,0.0426340303030914,61.05,17.55,12.0
-833.00781,118.65234,-542.96875,0.113246561180278,-0.0027979373238721,-0.0639509581881746,-13.95,30.45,14.7,-126.95313,-109.86328,986.81641,0.0487625794385443,0.0648836621404404,-0.1212403436873373,73.8,-0.9,89.1,-923.82812,-9.27734,401.36719,0.1656064387401079,0.0422343499043847,0.0266462907560478,60.75,16.8,11.4
-819.82422,128.41797,-536.62109,0.1227058966602369,-0.057422728654015,0.0151883787496302,-13.2,30.45,13.65,-135.74219,-115.23438,994.62891,0.0440995832759911,0.0222496318373489,-0.0814042507081179,73.05,-0.9,90.3,-932.61719,2.92969,409.66797,0.125503833984109,0.0287778613715085,-0.0005328490206338,59.85,16.95,12.3
-828.125,109.86328,-527.83203,0.1151117945518844,-0.0101255276554451,-0.0496952833908101,-13.95,30.9,15.15,-104.00391,-108.88672,995.11719,-0.0085268060606182,-0.0071944217096458,-0.0913966097416358,73.05,-0.9,90.3,-938.47656,-9.27734,419.43359,0.0888651841945432,0.0107917198309313,0.0494287716140306,59.85,16.95,12.3
-833.00781,115.72266,-519.04297,0.1417580853079322,0.0230489926347623,-0.0277121633302407,-14.1,29.55,15.0,-101.5625,-119.62891,1024.41406,-0.0206509102425221,0.0238483534321757,-0.1750657742200668,73.8,-0.45,90.6,-929.19922,-16.11328,407.71484,0.0965926294577481,0.0562235129249697,0.0382373713843925,61.05,16.35,11.7
-837.89062,102.53906,-527.34375,0.1609432680446295,-0.039569755735365,-0.0459648166475974,-14.1,29.55,15.0,-113.28125,-104.98047,991.69922,0.0093261668580317,0.0522267089379027,-0.1384272989634262,74.85,-0.15,89.85,-931.15234,-14.64844,404.29687,0.0616860444178615,0.0009327039522657,0.0498284520127373,60.6,15.9,10.5
-821.28906,109.375,-533.20312,0.1372282577673061,0.0074609334864253,-0.0774072721881257,-13.95,28.2,14.4,-116.69922,-119.14063,994.14062,0.0353062654385932,0.0579555776746489,-0.0916631215184153,74.85,-0.15,89.85,-936.03516,-22.94922,402.34375,0.0695466583029936,-0.0025314255470925,0.0579555776746489,60.0,16.35,11.4
-826.66016,120.60547,-540.03906,0.1277687477544221,0.0458314734927451,-0.0114579120064175,-13.8,29.55,14.25,-115.72266,-101.5625,997.55859,0.0130566336012443,0.0452986244721112,-0.0924624823158288,73.95,0.75,90.45,-933.10547,-19.53125,397.94922,0.0919296332951949,0.0198513749121835,0.0828698036810175,61.35,17.55,11.7
-821.77734,111.81641,-546.38672,0.1385604675853534,-0.0189188454928429,-0.0161209081689708,-13.35,29.85,15.0,-117.1875,-112.79297,1006.34766,-0.0233155044115418,0.0397029243572922,-0.0971256530113072,73.35,0.15,89.85,-936.03516,-23.92578,413.08594,0.068614128883653,0.031309286918601,0.1171101965454179,61.35,17.55,11.7
-830.56641,94.23828,-553.22266,0.0989908863829135,0.0138559943986577,-0.1346968322202135,-13.8,31.05,14.55,-122.07031,-105.46875,1000.0,0.0147886983509235,0.0409019655534123,-0.0999234158022541,74.1,-1.2,90.6,-933.10547,-30.76172,415.52734,0.1184425808963904,-0.0281118437289474,0.0694134896810664,61.35,16.8,11.7
-825.19531,109.86328,-551.26953,0.050228132411444,-0.0135896571548034,-0.0823369546603836,-13.8,31.05,14.55,-118.65234,-111.81641,1000.48828,0.0205175670876697,-0.0098591904115907,-0.0556906639043358,74.1,-1.2,90.6,-929.19922,-38.08594,409.66797,0.0810045703094112,0.0227824808579827,0.0448989440734045,60.0,17.55,12.75
-838.37891,108.39844,-550.29297,0.1248376418086228,-0.0277121633302407,-0.0398360929792193,-12.9,30.9,14.4,-107.42188,-106.93359,1001.46484,-0.0281118437289474,-0.006128723668378,-0.118842261295097,72.3,-0.9,90.3,-925.78125,-34.17969,420.89844,0.0923293136939016,0.0138559943986577,0.052493046181757,60.75,17.55,10.95
-833.00781,103.02734,-560.54687,0.105385947295146,-0.0277121633302407,-0.0506278128101507,-14.1,29.55,12.9,-115.23438,-109.86328,1005.37109,-0.005595700114819,0.0059953805135257,-0.1115144964305989,73.35,-1.2,89.55,-931.15234,-32.71484,407.22656,0.1201746456460695,0.0155880591483369,0.0309096065198943,60.75,16.8,10.35
-837.89062,87.40234,-551.75781,0.057422728654015,-0.0031976177225788,-0.0555574952824086,-14.4,30.6,15.3,-104.49219,-108.88672,1003.41797,-0.0085268060606182,0.0498284520127373,-0.1283017713079811,72.6,-1.65,89.1,-931.64062,-27.83203,428.71094,0.1101822866125516,-0.0341072242424731,0.0975253334100139,60.9,16.2,11.85
-853.51562,83.98438,-560.54687,0.1392266597608396,-0.0270459711547545,-0.0475635382424242,-14.4,30.6,15.3,-89.84375,-96.19141,1004.39453,0.0107917198309313,0.0222496318373489,-0.1328315988486072,74.25,-1.5,89.7,-923.33984,-39.0625,405.27344,0.1249709849634751,-0.0259800985805615,0.0434333911005048,60.9,18.0,11.85
-852.05078,91.30859,-554.19922,0.0831363154577971,-0.0401026047559989,-0.0575558972759422,-13.35,29.25,13.5,-108.39844,-105.46875,996.09375,-0.0110582316077108,0.0057288687367461,-0.1173767083221974,73.8,-1.65,88.5,-947.75391,-35.15625,425.29297,0.091529778363563,0.054091942309509,0.0001331686219271,60.9,18.0,11.85
-854.00391,80.56641,-545.41016,0.0578224090527217,0.0494287716140306,-0.0536922619108023,-13.35,29.85,14.25,-100.58594,-110.35156,1012.20703,0.0109248884528585,0.031309286918601,-0.087532974376496,72.15,-0.3,89.7,-924.31641,-20.50781,416.01562,0.1442895108550248,-0.0095926786348112,0.0474303696204971,60.3,16.35,10.95
-859.375,68.35938,-523.4375,0.0873996312216436,-0.0331745202902074,0.0250473946282958,-12.6,30.6,14.55,-100.09766,-104.98047,990.72266,-0.0033307863445059,0.0207840788644492,-0.0959264372822619,72.15,-0.3,89.7,-933.59375,-3.90625,422.36328,0.1101822866125516,-0.0097258472567384,-0.0213169278850831,60.3,16.35,10.95
-866.69922,78.125,-521.48437,0.1116478395854512,-0.0830031468358699,-0.0361056262360067,-13.95,28.2,15.15,-87.40234,-88.37891,996.58203,0.0118575924051242,0.0039969785199922,-0.0949939078629213,73.2,-1.05,90.45,-921.875,-13.67187,427.73437,0.1317657262744143,0.0015987215948268,0.0041301471419193,60.6,16.65,11.25
-835.44922,95.21484,-499.02344,0.0527595579585365,0.0158545709251164,-0.0245145456076619,-13.95,28.2,15.15,-102.53906,-99.60938,1006.34766,0.020117886688963,0.0871332939777893,-0.0862005900255235,73.5,-1.8,90.45,-931.15234,-23.4375,419.92187,0.1352296812408474,-0.0173201238980161,0.0110582316077108,59.85,16.2,11.85
-829.10156,83.00781,-509.27734,0.0975253334100139,-0.006128723668378,-0.0237151848102485,-14.25,29.4,14.4,-99.12109,-107.91016,988.76953,-0.0550244717288496,0.078606487917171,-0.10205516095064,73.05,-1.65,89.1,-912.10937,-22.94922,410.15625,0.1803951370910315,0.0109248884528585,-0.0005328490206338,60.15,16.2,12.3
-838.37891,93.26172,-527.83203,0.0679479367081668,-0.0154548905264097,0.0266462907560478,-13.8,28.8,12.15,-92.77344,-105.46875,997.07031,-0.0135896571548034,0.0876661429984231,-0.080871401687484,73.05,-1.65,89.1,-915.52734,-30.27344,430.17578,0.1518836129633773,-0.0034639549664331,0.0054625314928918,60.0,17.1,11.4
-846.67969,88.86719,-530.76172,0.0479632186411309,0.0013323843509724,-0.0013323843509724,-14.55,28.95,15.45,-89.35547,-115.23438,996.09375,0.0162542513238231,0.0947273960861418,-0.1308330223221485,73.2,-2.55,90.0,-919.92187,-19.53125,429.19922,0.1412250617543731,0.0415681577288985,0.0034639549664331,60.0,17.1,11.4
-848.14453,87.89063,-508.30078,0.0608866836204481,0.0298437339457014,0.0143890179522168,-13.2,29.4,13.65,-105.46875,-133.30078,1030.27344,-0.0119907610270514,0.1251041535854023,-0.0911300979648563,74.1,-1.65,89.1,-913.57422,-29.29688,399.90234,0.1381607871866467,-0.0202512298438154,0.0051960197161123,60.9,16.2,11.25
-855.95703,90.82031,-516.11328,0.0899310567687362,0.0098591904115907,0.0086599746825454,-13.2,29.4,13.65,-87.40234,-132.8125,1012.69531,-0.052493046181757,0.1064518198693389,-0.0446324322966249,72.6,-2.4,90.6,-918.94531,-21.97266,401.36719,0.1418912539298594,0.0369049870334201,0.0053291883380394,60.9,16.2,11.25
-852.53906,99.12109,-518.06641,0.016787100344457,0.0758085505932989,-0.015055210127703,-14.1,29.55,15.0,-94.23828,-129.88281,1002.92969,-0.0734104682010586,0.0555574952824086,-0.0766079113907123,72.6,-2.4,90.6,-939.45312,-9.76562,413.08594,0.1345634890653612,-0.0382373713843925,-0.0550244717288496,60.75,16.8,13.8
-852.53906,92.28516,-519.04297,0.0315757986953806,0.0566231933236764,0.0571562168772355,-12.45,30.15,13.05,-103.51563,-114.25781,1002.92969,-0.0687472975055802,0.036238969390859,-0.0500949637895168,73.35,-0.45,89.1,-924.80469,-12.69531,406.25,0.1346968322202135,-0.0530260697353161,-0.068614128883653,60.15,17.4,12.3
-840.82031,96.67969,-512.69531,0.0475635382424242,0.0427671989250186,0.0299770771005538,-13.95,28.95,16.2,-122.07031,-106.44531,998.53516,-0.0101255276554451,0.0109248884528585,-0.1354961930176269,73.35,-1.65,89.55,-899.41406,-19.53125,403.32031,0.1605435876459228,-0.0281118437289474,-0.005595700114819,60.15,17.4,12.3
-812.01172,108.88672,-515.13672,0.0063950609122324,0.0799386977352182,-0.0899310567687362,-13.95,28.95,16.2,-101.5625,-124.51172,980.46875,-0.0283781809728018,0.0093261668580317,-0.1093829258151382,73.8,-2.7,89.55,-923.33984,-27.34375,428.71094,0.1803951370910315,-0.0407687969314851,0.0207840788644492,59.25,16.35,12.0
-813.96484,105.95703,-517.57812,0.0262466103573411,0.0860674214035963,-0.0338407124656936,-13.95,28.95,16.2,-92.77344,-116.21094,996.58203,-0.0924624823158288,0.023448673033469,-0.1085833904847996,73.8,-2.7,89.55,-919.92187,-31.25,433.10547,0.1685375446859072,-0.0662158719584876,-0.0095926786348112,60.15,15.9,11.55
-829.58984,104.98047,-533.69141,0.0471638578437175,0.1465544246253378,-0.0330413516682802,-13.5,30.45,14.4,-97.16797,-138.67187,998.53516,-0.0883323351739094,0.0107917198309313,-0.079272505559732,74.4,-2.7,91.35,-914.0625,-22.94922,398.4375,0.1741332448007262,0.0852680606061829,0.0211837592631559,60.75,16.35,11.7
-844.72656,88.86719,-547.85156,0.03064326927604,0.1574793130781963,-0.1147121141531777,-13.05,29.85,13.5,-95.21484,-147.46094,1006.34766,-0.114312433754471,0.0342403928644003,-0.1004564393558132,74.1,-0.9,89.85,-952.14844,-37.10938,413.08594,0.1664057995375213,0.0598208110462552,0.0083936374386911,60.9,17.4,10.5
-844.72656,92.28516,-562.01172,0.1067181571131932,0.1248376418086228,-0.0317089673173077,-14.4,29.25,12.9,-117.67578,-167.48047,1008.30078,-0.1013889687751538,0.0243813769857347,-0.132165406673121,74.1,-1.95,89.85,-903.80859,-43.45703,420.41016,0.2166339319489653,0.0767412545455646,-0.0071944217096458,60.9,17.4,10.5
-855.46875,61.52344,-561.52344,0.074209828998472,0.096459460835821,-0.0039969785199922,-14.25,29.7,14.7,-104.00391,-166.99219,989.25781,-0.0738101485997654,0.0033307863445059,-0.1352296812408474,73.5,-3.0,89.7,-937.01172,-32.22656,404.78516,0.2031776179490143,0.1036538825454668,-0.0017320647496791,60.15,16.65,11.85
-852.53906,58.10547,-566.40625,0.040235773377926,0.1295008125041012,-0.0570230482553083,-14.25,29.7,14.7,-120.60547,-172.36328,998.53516,-0.0269126279999021,0.0230489926347623,-0.1201746456460695,73.05,-1.95,90.3,-949.70703,-40.52734,409.17969,0.2247610576108769,-0.0135896571548034,0.0310429496747467,61.05,16.8,10.95
-844.23828,68.84766,-554.19922,0.1295008125041012,0.0309096065198943,-0.0365053066347134,-14.1,29.25,14.55,-110.83984,-154.29687,1020.99609,-0.0131899767560967,0.0098591904115907,-0.1295008125041012,75.6,-3.15,89.55,-916.01562,-18.55469,425.78125,0.2899112315280969,-0.0470306892217904,0.0205175670876697,59.85,17.4,10.8
-833.00781,81.05469,-551.26953,0.0873996312216436,0.0706125308771865,-0.0214502710399355,-14.25,28.2,15.15,-105.95703,-160.64453,989.74609,0.0267794593779749,0.0631515973907612,-0.1231057515918688,75.6,-3.15,89.55,-930.66406,3.90625,447.75391,0.2462113286508125,-0.0735436368229858,-0.0117244237831971,61.05,17.1,10.65
-837.40234,77.63672,-553.71094,0.103787051167394,0.0969923098564548,0.0498284520127373,-13.95,28.2,14.4,-108.39844,-167.48047,1022.94922,0.0226493122360556,0.0512940049856369,-0.1546815502872494,74.1,-2.7,88.8,-916.99219,19.04297,453.61328,0.2194318692728375,0.0233155044115418,0.0203843984657425,60.0,16.35,12.45
-819.82422,76.17188,-557.12891,0.0863337586474507,0.0951270764848485,-0.0374380105869791,-15.6,28.2,15.45,-88.37891,-125.0,1004.88281,0.0321086477160144,0.0526263893366094,-0.1525498051388636,73.8,-2.4,89.1,-922.36328,33.20313,459.47266,0.1858576685839233,0.0251807377831481,-0.013456313999951,60.3,16.05,10.65
-823.73047,69.33594,-549.80469,0.1380276185647195,0.0784731447623186,-0.023981696587028,-15.6,28.2,15.45,-118.16406,-128.41797,1008.30078,0.0205175670876697,0.0426340303030914,-0.1449555284975858,74.4,-1.65,89.55,-937.01172,24.41406,487.30469,0.1364287224369675,0.0333078634450597,0.0326416712695735,60.3,16.05,10.65
-824.70703,57.12891,-557.61719,0.0969923098564548,0.1195084534705833,-0.0339738810876208,-16.35,28.95,13.05,-88.37891,-140.625,1030.27344,0.0159877395470436,0.0403691165327784,-0.1257703457608885,74.4,-1.65,89.55,-906.73828,20.01953,444.82422,0.1774640311452322,-0.0401026047559989,-0.0091929982361045,60.75,16.35,10.95
-838.37891,47.36328,-534.17969,0.0654165111610742,0.0726111074036452,-0.025713586803782,-15.3,28.65,13.65,-76.17188,-141.11328,1040.03906,-0.0079939570399844,-0.0077274452632048,-0.0667488955120467,73.5,-3.3,88.35,-932.61719,22.46094,448.73047,0.1107151356331855,0.0847350370526239,-0.0010658725741929,60.75,16.35,10.95
-819.33594,52.73438,-533.20312,0.1417580853079322,0.0110582316077108,-0.0455651362488907,-14.4,28.8,12.15,-88.86719,-135.74219,1007.8125,-0.0315757986953806,0.0126569532025376,-0.1064518198693389,73.5,-3.3,89.4,-930.17578,14.64844,463.37891,0.1313660458757076,-0.0552909835056291,0.0531592383572432,59.4,15.45,10.5
-821.28906,54.6875,-529.29687,0.0800720408900706,0.0627519169920545,-0.074209828998472,-14.4,28.8,12.15,-68.84766,-129.88281,1009.27734,-0.037970859607613,-0.0409019655534123,-0.074209828998472,73.5,-3.3,89.4,-909.17969,23.4375,452.14844,0.0683476171068735,-0.0215834396618626,0.0584886012282079,60.75,16.35,10.65
-818.84766,51.26953,-511.71875,0.0973919902551615,0.0474303696204971,-0.0285115241276541,-15.3,28.65,14.1,-80.07813,-162.10937,1019.04297,-0.0542251109314362,-0.0162542513238231,-0.1245711300318432,74.25,-1.5,89.4,-891.11328,-0.97656,423.82812,0.1087167336396519,0.0366386497895657,0.0446324322966249,61.35,16.05,10.95
-809.57031,64.94141,-507.32422,0.1815941782871516,0.0417013263508257,-0.0177198042967228,-13.95,29.4,14.1,-73.73047,-143.06641,999.02344,-0.0652833425391471,-0.0383705400063197,-0.1129800494034985,73.95,-2.25,89.7,-911.13281,-12.69531,427.73437,0.0666155523571943,0.0425006871482391,0.0202512298438154,60.6,15.9,10.5
-802.73437,52.73438,-532.22656,0.1217733672408963,0.0466310088230837,-0.0772741035661985,-15.45,27.3,13.95,-74.70703,-150.39062,991.69922,-0.1113813278086717,-0.1171101965454179,-0.0868667822010097,74.4,-2.4,89.85,-891.11328,-16.11328,442.38281,0.0768744231674918,0.0162542513238231,0.0695466583029936,60.9,15.45,12.6
-804.6875,47.36328,-546.875,0.1276355791324949,0.0834028272345766,-0.1365620655918199,-14.85,29.25,13.5,-86.91406,-159.66797,985.83984,-0.0723445956268657,-0.0650168307623675,-0.1003230962009608,74.4,-2.4,89.85,-881.34766,-42.48047,446.28906,0.0855343978500373,0.0302434143444081,0.0925956509377559,61.8,16.8,11.4
-822.75391,42.48047,-543.45703,0.1384272989634262,-0.0030642745677264,-0.061419532641082,-14.85,29.25,13.5,-72.26563,-176.26953,997.55859,-0.041301645952119,-0.0802052095119978,-0.091529778363563,73.5,-3.0,89.7,-882.32422,-36.62109,424.80469,0.1175098769441246,0.0559571756811154,0.0901975685455157,61.8,16.8,11.4
-835.9375,30.27344,-541.50391,0.1135130729570576,0.0351730968166661,-0.0704793622552594,-14.25,27.9,13.05,-76.66016,-179.19922,990.72266,-0.0679479367081668,-0.0514271736075641,-0.03064326927604,73.8,-1.95,88.8,-891.11328,-60.54688,432.12891,0.1341638086666545,-0.0098591904115907,0.0913966097416358,60.3,16.8,11.4
-836.91406,24.41406,-549.31641,0.094860564708069,0.0410353087082646,-0.0462311538914518,-14.1,28.8,12.45,-77.63672,-199.70703,988.76953,-0.0720780838500862,-0.0631515973907612,-0.1280352595312016,74.1,-3.45,89.1,-896.48437,-53.22266,458.49609,0.192918921671642,-0.031309286918601,0.0956601000384076,61.35,17.55,10.95
-831.54297,29.29688,-552.73437,0.1382939558085739,-0.0301102457224809,-0.0046631706954784,-14.85,29.25,13.2,-81.05469,-199.21875,1005.85937,0.0269126279999021,-0.0271791397766816,-0.1161776671260773,73.8,-3.45,90.3,-895.01953,-16.11328,439.45312,0.2075742768677131,-0.0583552580733556,0.0654165111610742,61.35,17.55,10.95
-836.91406,25.39063,-522.94922,0.1045865864977326,0.0087933178373978,-0.0115910806283447,-14.85,29.25,13.2,-80.07813,-181.64062,1017.08984,-0.0454317930940384,-0.0856677410048896,-0.1708024584562202,75.3,-3.3,89.7,-898.4375,-6.34766,433.10547,0.2046431709219139,-0.0222496318373489,0.0851347174513306,60.6,15.9,11.55
-837.40234,36.62109,-532.71484,0.1191087730718766,-0.0365053066347134,0.0042633157638465,-14.55,28.2,14.4,-65.42969,-178.71094,1002.92969,-0.0389035635598788,0.1333644478692411,-0.1260366830047429,74.1,-2.7,88.8,-903.32031,-1.46484,434.57031,0.2057090434961068,0.0243813769857347,0.0345069046411798,60.15,16.65,10.05
-828.125,31.25,-540.03906,0.1660061191388146,-0.0425006871482391,-0.020117886688963,-14.55,28.2,13.35,-70.80078,-161.13281,1029.78516,0.0287778613715085,-0.0373046674321268,-0.1303001733015146,74.1,-2.7,88.8,-924.80469,35.15625,426.75781,0.162275652395602,-0.0287778613715085,0.045165455850184,61.2,18.0,12.3
-821.77734,27.34375,-541.99219,0.0937948666668012,-0.0074609334864253,-0.0439662401211387,-14.4,28.8,14.25,-54.19922,-150.87891,1031.25,0.0190520141147701,-0.0590214502488418,-0.1979815982329019,74.1,-3.9,89.85,-915.03906,40.03906,420.41016,0.1478866344433851,0.006128723668378,0.0098591904115907,59.85,17.4,11.85
-835.44922,36.13281,-561.03516,0.0932618431132422,-0.0399694361340717,-0.0520933657830503,-14.4,27.75,13.5,-81.54297,-145.99609,995.11719,0.0147886983509235,-0.0387702204050264,-0.1786630723413523,73.5,-2.55,89.4,-902.83203,57.12891,408.20312,0.1342971518215068,0.0370383301882724,0.0566231933236764,59.85,17.4,11.85
-843.26172,17.57813,-556.64062,0.1448223598756587,-0.0456983048708179,0.0333078634450597,-14.4,27.75,13.5,-87.40234,-129.39453,978.51562,0.0287778613715085,-0.0422343499043847,-0.1354961930176269,73.05,-3.15,89.55,-916.99219,53.71094,419.43359,0.1187090926731699,-0.0075941021083525,0.0470306892217904,60.3,17.55,10.95
-845.70312,24.90234,-549.31641,0.0796723604913639,0.0051960197161123,-0.032908183046353,-14.55,27.45,13.35,-88.86719,-127.44141,1006.83594,-0.0034639549664331,-0.0768744231674918,-0.0880658233971298,73.05,-3.15,89.55,-902.83203,48.33984,413.08594,0.1040535629441735,0.0246477142295891,0.0463644970463041,60.3,17.55,10.95
-852.53906,20.99609,-549.80469,0.0486294108166172,-0.0094593354799588,-0.054091942309509,-13.95,26.7,13.05,-100.58594,-142.57812,1013.67187,0.0381042027624654,-0.0768744231674918,-0.1205743260447762,73.05,-3.15,89.55,-920.41016,48.82813,410.64453,0.0679479367081668,0.022382800459276,0.0712787230526728,60.6,15.9,12.6
-850.09766,30.76172,-545.89844,0.075275701572665,-0.0608866836204481,0.023448673033469,-14.55,27.9,13.05,-98.14453,-138.18359,1009.76562,0.0490290912153239,-0.063684446411395,-0.0583552580733556,73.95,-3.3,89.7,-918.94531,50.29297,406.73828,0.0563568560798221,0.0511608363637097,0.0363721380127862,61.35,17.55,10.95
-837.40234,16.60156,-554.19922,0.0851347174513306,-0.0787396565390981,-0.0099923590335179,-13.5,27.45,14.7,-81.05469,-141.11328,1013.18359,0.0314426300734534,-0.0732771250462063,-0.0702128504784798,73.35,-3.15,89.85,-916.01562,39.55078,408.20312,0.0094593354799588,0.0206509102425221,0.0470306892217904,60.3,16.8,11.4
-853.02734,21.97266,-563.47656,0.0604870032217414,-0.0627519169920545,-0.0727442760255724,-13.5,27.45,14.7,-99.60938,-152.83203,1020.01953,-0.0299770771005538,-0.0106585512090041,-0.0161209081689708,73.35,-3.15,89.85,-917.96875,21.97266,400.39062,-0.0233155044115418,0.1035207139235396,0.0482297304179105,60.6,17.4,11.55
