IMU1_AccX,IMU1_AccY,IMU1_AccZ,IMU1_GyrX,IMU1_GyrY,IMU1_GyrZ,IMU1_MagX,IMU1_MagY,IMU1_MagZ,IMU2_AccX,IMU2_AccY,IMU2_AccZ,IMU2_GyrX,IMU2_GyrY,IMU2_GyrZ,IMU2_MagX,IMU2_MagY,IMU2_MagZ,IMU3_AccX,IMU3_AccY,IMU3_AccZ,IMU3_GyrX,IMU3_GyrY,IMU3_GyrZ,IMU3_MagX,IMU3_MagY,IMU3_MagZ
-836.91406,163.57422,-551.26953,0.0369049870334201,0.0539585991546566,0.0155880591483369,-15.45,31.05,13.95,-133.78906,-188.47656,989.74609,0.0025314255470925,0.0602204914449619,0.0407687969314851,75.6,-1.95,88.8,-917.48047,-134.76562,379.39453,-0.0347734164179594,0.1272358987337882,-0.0225161436141284,60.3,17.1,10.95
-855.46875,171.875,-544.92187,0.041834669505678,0.007860613885132,0.077540615342978,-16.05,30.9,15.15,-150.39062,-182.12891,971.67969,0.0319754790940873,0.0526263893366094,0.0255804181818548,74.1,0.15,89.1,-913.57422,-125.0,378.90625,-0.0142556747973644,0.1542816953556175,-0.0499617951675896,61.05,15.6,10.35
-835.44922,185.05859,-562.5,0.1157779867273706,0.0322419908708668,0.0743429976203992,-14.25,30.45,14.7,-147.46094,-173.33984,993.16406,0.0103920394322246,0.0305099261211876,0.0178529729186499,74.1,-0.45,89.1,-919.92187,-127.92969,387.20703,-0.0070612530877186,0.1763981585710393,0.0219831200605693,60.15,15.9,11.55
-823.24219,161.62109,-552.24609,0.036238969390859,0.041834669505678,-0.0195850376683291,-14.25,30.45,14.7,-151.85547,-176.26953,999.51172,-0.0049295079393327,0.0724777642487929,-0.0054625314928918,74.1,-0.45,89.1,-934.57031,-145.01953,379.39453,0.0082602942838387,0.1517504443414501,0.0464976656682313,58.35,15.9,12.3
-832.51953,163.57422,-564.94141,0.1545482071323971,0.0699463387017003,0.0616860444178615,-13.95,30.9,14.4,-163.08594,-174.80469,998.04687,-0.0067947413109391,0.0764747427687851,-0.0768744231674918,74.25,0.3,88.65,-942.87109,-122.07031,382.8125,0.1016554805519333,0.1617428033749681,0.0377045223637587,61.8,14.85,10.95
-804.6875,165.03906,-556.15234,0.1437564873014657,0.0722112524720134,-0.0375711792089063,-15.0,30.45,15.15,-164.0625,-153.80859,995.11719,0.0439662401211387,0.1089830708835063,-0.0452986244721112,74.85,-0.15,88.8,-944.82422,-138.18359,389.64844,0.096459460835821,0.1233720888357231,0.0415681577288985,61.8,14.85,10.95
-813.47656,154.78516,-547.85156,0.1334976164911682,0.1229724084370164,-0.0353062654385932,-15.45,31.35,14.25,-166.99219,-167.96875,1015.13672,-0.0089264864593249,0.1128468807815713,-0.1184425808963904,75.75,-1.05,88.95,-945.80078,-127.44141,387.20703,0.1276355791324949,0.1654732701181807,0.036238969390859,59.7,14.85,10.95
-800.29297,158.20312,-542.96875,0.1408253813556664,0.0937948666668012,0.0359724576140795,-14.4,31.05,14.55,-167.96875,-160.64453,997.07031,0.0110582316077108,0.0790061683158777,-0.0973919902551615,74.25,0.3,87.9,-943.84766,-101.07422,381.83594,0.1810613292665177,0.1866570293813367,0.0587549384720623,59.7,14.85,10.95
-805.17578,149.90234,-564.45312,0.1906538333684037,0.0644839817417337,-0.0215834396618626,-14.4,31.05,14.55,-169.92187,-167.96875,979.49219,-0.0339738810876208,0.0567565364785288,-0.1139127533557643,75.6,-1.2,88.8,-954.10156,-109.375,372.55859,0.1562802718820762,0.1552143993078833,-0.0117244237831971,60.6,16.65,10.8
-806.15234,136.71875,-561.52344,0.1366952342137471,0.1532159973143498,-0.1044532433428802,-15.0,31.2,13.05,-160.15625,-162.59766,998.04687,0.0086599746825454,0.0723445956268657,-0.1240382810112094,75.75,0.3,90.75,-941.89453,-109.375,375.97656,0.211437912232853,0.060753514998521,0.0631515973907612,61.05,15.6,9.6
-810.05859,138.67187,-564.94141,0.182926562638124,0.071944915228159,-0.039569755735365,-15.3,31.95,13.35,-154.29687,-156.25,1014.64844,0.0277121633302407,0.0452986244721112,-0.1528161423827179,75.75,0.3,90.75,-942.38281,-99.60938,398.4375,0.2061087238948135,0.1207074946667034,0.0327748398915007,60.0,16.35,10.35
-797.36328,132.32422,-571.77734,0.2026447689283804,0.0534257501340228,-0.0414349891069713,-14.85,30.6,14.55,-150.87891,-149.90234,1009.27734,-0.0007993607974134,0.002264913770313,-0.1737335644020195,75.75,-1.5,90.0,-935.54687,-79.58984,383.78906,0.2363521382392217,0.1139127533557643,0.0436999028772844,61.05,16.05,10.35
-810.54687,122.55859,-561.52344,0.1236386006125027,0.1502848913685505,-0.0726111074036452,-14.85,31.8,13.95,-140.625,-153.32031,998.53516,0.0058622118915985,-0.0478300500192038,-0.1677381838884938,75.9,-0.9,88.8,-929.19922,-76.17188,377.44141,0.2199647182934713,0.1083170532409452,0.0222496318373489,61.05,16.05,10.35
-800.78125,125.48828,-575.19531,0.1873230470238978,0.0155880591483369,0.0030642745677264,-14.85,31.8,13.95,-137.20703,-175.29297,1002.92969,-0.0129234649793172,0.0031976177225788,-0.1970490688135614,74.25,-1.05,88.95,-940.42969,-64.45313,389.16016,0.2611331956236632,0.1215068554641168,0.0295773967018471,60.9,15.9,10.8
-807.61719,96.19141,-576.66016,0.2083736376651266,0.0222496318373489,-0.0065284040670847,-14.1,30.6,12.9,-143.55469,-150.87891,996.09375,-0.0039969785199922,0.0337075438437664,-0.1613431229762614,74.25,-1.05,88.95,-945.80078,-76.17188,406.73828,0.2627320917514152,0.0708790426539661,0.0695466583029936,60.9,15.9,10.8
-812.5,107.42188,-567.38281,0.17346705262524,0.0544916227082157,-0.0662158719584876,-14.25,30.45,13.05,-134.76562,-162.59766,972.16797,0.0342403928644003,0.0847350370526239,-0.1749326055981396,74.4,0.45,90.3,-939.94141,-54.6875,396.97266,0.23981626773858,0.2015788963541875,0.0353062654385932,60.6,16.95,9.45
-835.9375,105.46875,-575.68359,0.1753322859968463,0.0043966589186989,-0.0146553551960711,-16.05,30.9,14.1,-138.18359,-124.02344,987.79297,0.058088746296576,0.0838025076332833,-0.2005130237799945,73.95,-0.3,88.95,-937.01172,-46.875,382.8125,0.2391500755630938,0.023981696587028,0.0667488955120467,60.0,17.1,10.65
-807.12891,102.53906,-567.87109,0.207441108245786,-0.0618192130397887,-0.0146553551960711,-16.05,30.9,14.1,-151.85547,-117.1875,1006.83594,0.0692803210591393,0.036238969390859,-0.2228958242392706,73.95,-0.3,88.95,-920.89844,-20.50781,382.8125,0.2656630231642893,0.0650168307623675,0.0377045223637587,58.8,17.4,10.05
-812.98828,113.28125,-558.10547,0.1613431229762614,-0.0245145456076619,-0.0147886983509235,-16.2,29.25,14.55,-136.23047,-113.76953,1001.95312,0.0622190679714206,0.0503614755662963,-0.1716018192536337,74.25,-1.05,88.35,-903.32031,-22.94922,396.97266,0.2767212547720001,0.0893982077481023,0.0203843984657425,61.95,15.45,9.0
-820.80078,121.09375,-564.94141,0.1713353074768541,-0.1019218177957876,0.0608866836204481,-15.9,29.55,12.9,-130.85937,-109.86328,1009.27734,0.0081271256619115,0.1136462415789847,-0.2146355299554318,74.4,-0.9,87.45,-936.52344,1.95312,412.10937,0.302301672953855,0.0106585512090041,0.057422728654015,60.15,15.9,10.5
-827.63672,99.12109,-550.78125,0.1490856756395052,-0.0973919902551615,0.0350397536618137,-14.25,30.15,15.15,-144.04297,-105.46875,1011.23047,0.0053291883380394,0.0804717212887773,-0.1957166844625889,74.7,-1.5,88.95,-924.80469,-4.88281,402.34375,0.2867136138055181,0.0023980823922402,0.0495619402359577,59.1,15.9,10.05
-812.01172,97.65625,-552.24609,0.1386936362072806,-0.0782068075184643,-0.0157212277702641,-16.2,31.05,15.15,-145.99609,-114.74609,1002.44141,0.0427671989250186,0.0620857248165682,-0.1468207618691921,74.7,-1.5,88.95,-934.57031,-10.74219,392.57812,0.2447457756779128,0.079272505559732,0.071944915228159,59.1,15.9,10.05
-814.45312,107.42188,-535.15625,0.1225727280383097,-0.0747426780191059,0.0015987215948268,-16.2,31.05,13.95,-154.78516,-93.75,1002.92969,0.0361056262360067,0.05475795995207,-0.1390934911389125,75.15,-1.2,88.05,-953.61328,11.71875,408.69141,0.2264931223605561,0.0423675185263119,0.0634181091675407,59.4,15.45,9.75
-818.84766,112.79297,-537.10937,0.1552143993078833,-0.1272358987337882,-0.0117244237831971,-16.2,31.05,13.95,-139.64844,-90.82031,1009.76562,0.0289112045263608,0.0846018684306967,-0.1249709849634751,74.25,-1.8,87.6,-947.26562,5.85937,395.99609,0.2045100022999867,0.0230489926347623,-0.0129234649793172,60.3,15.3,9.75
-816.40625,117.67578,-532.71484,0.1136462415789847,-0.0880658233971298,-0.0398360929792193,-13.8,28.8,13.95,-148.4375,-79.10156,1033.69141,0.0235820161883213,0.0298437339457014,-0.1357627047944065,74.1,0.15,87.45,-944.82422,16.60156,408.69141,0.1264363634034496,0.0623522365933478,0.0250473946282958,60.3,15.3,10.35
-830.56641,112.79297,-522.46094,0.094860564708069,-0.0410353087082646,0.0114579120064175,-14.85,28.5,13.2,-136.71875,-73.73047,1031.25,0.0071944217096458,0.0309096065198943,-0.0671485759107534,74.1,0.15,87.45,-946.77734,-9.76562,406.73828,0.0969923098564548,0.0335742006889141,0.0419678381276052,61.8,16.35,9.3
-841.30859,111.32813,-507.8125,0.0927289940926083,-0.1485528266188713,-0.0117244237831971,-14.4,30.3,13.2,-139.16016,-74.70703,1020.50781,-0.0091929982361045,0.0049295079393327,-0.0840688448771376,74.85,-1.65,89.55,-943.84766,-0.97656,415.52734,0.0666155523571943,0.0358392889921523,0.0427671989250186,61.05,15.3,9.6
-829.58984,106.93359,-521.48437,0.0961929490590414,-0.0544916227082157,-0.0503614755662963,-14.55,28.95,14.1,-124.02344,-75.68359,999.51172,-0.0043966589186989,-0.0033307863445059,-0.0363721380127862,76.2,-2.7,89.85,-950.68359,-8.30078,372.55859,0.0570230482553083,0.0293108849250675,0.0141225061754373,59.1,15.9,10.5
-821.77734,94.23828,-514.64844,0.0727442760255724,-0.0406354537766327,-0.0698131700797731,-14.55,28.95,14.1,-122.07031,-77.63672,1001.46484,-0.0149218669728507,0.0025314255470925,-0.0211837592631559,76.5,-1.5,87.6,-928.22266,1.95312,399.41406,0.0283781809728018,0.0479632186411309,0.0170536121212365,60.0,16.35,9.3
-835.44922,104.49219,-514.64844,0.0746095093971788,-0.0568897051004559,-0.025713586803782,-14.4,29.25,13.2,-126.46484,-88.37891,996.09375,0.0053291883380394,0.0054625314928918,-0.0550244717288496,76.5,-1.5,87.6,-932.12891,-28.80859,393.55469,0.0422343499043847,0.0367718184114929,-0.0125237845806105,60.0,16.35,9.3
-838.86719,125.0,-524.41406,0.0802052095119978,-0.0839356762552105,0.0009327039522657,-15.0,29.7,13.35,-144.04297,-101.07422,994.14062,-0.0458314734927451,0.0203843984657425,-0.0153215473715574,73.95,0.0,87.9,-934.57031,-26.85547,375.97656,0.0407687969314851,0.0748760211739583,-0.0005328490206338,59.7,15.6,8.55
-838.37891,121.09375,-516.60156,0.0333078634450597,-0.068614128883653,0.0029311059457992,-13.5,27.9,13.65,-127.92969,-104.98047,1015.625,-0.0563568560798221,0.0526263893366094,0.0480965617959833,74.85,-1.2,89.85,-934.57031,-31.25,365.72266,0.0389035635598788,0.0466310088230837,-0.0237151848102485,59.7,15.6,8.55
-832.03125,119.14063,-521.48437,-0.0610198522423753,0.004529827540626,-0.0073277648644981,-13.5,27.9,13.65,-140.13672,-120.11719,984.86328,-0.0390367321818059,0.0265129476011954,-0.0218499514386422,75.3,-0.75,87.15,-930.17578,-49.80469,383.30078,0.0877993116203503,0.0584886012282079,0.0110582316077108,60.75,17.1,10.95
-854.00391,124.51172,-532.22656,0.0258469299586344,0.0366386497895657,0.0155880591483369,-14.1,31.35,13.95,-127.92969,-119.62891,993.65234,-0.0503614755662963,0.0270459711547545,-0.0527595579585365,75.3,-0.75,87.15,-943.35937,-61.03516,391.11328,0.0450321126953316,0.0720780838500862,0.0314426300734534,60.6,15.9,9.45
-848.14453,118.16406,-529.78516,-0.0041301471419193,-0.0355727772153728,0.014522186574144,-15.9,29.85,13.2,-134.27734,-122.07031,984.375,-0.0302434143444081,0.1574793130781963,-0.0251807377831481,74.85,-1.65,88.05,-939.45312,-48.82813,375.97656,0.0822036115055313,0.1028545217480534,-0.0019984019935335,60.0,17.55,8.85
-841.30859,122.55859,-532.71484,-0.0767412545455646,0.04849624219469,0.0393032439585855,-13.95,29.7,12.3,-161.13281,-127.44141,985.83984,0.0058622118915985,0.1083170532409452,-0.0207840788644492,75.9,-0.45,88.05,-930.17578,-38.57422,380.85937,0.1032542021467601,0.0311761182966739,0.0110582316077108,60.15,16.65,8.7
-828.125,118.16406,-534.66797,-0.0466310088230837,-0.0023980823922402,0.0215834396618626,-15.9,29.55,13.95,-139.16016,-149.90234,991.21094,-0.0526263893366094,0.1512174207878911,-0.0027979373238721,75.3,-0.3,87.9,-948.24219,-59.57031,380.85937,0.1265697065583019,-0.0035972981212855,0.0535589187559499,60.15,16.65,8.7
-822.75391,108.88672,-539.0625,-0.0764747427687851,0.0514271736075641,-0.0029311059457992,-15.9,29.55,13.95,-154.78516,-134.76562,1005.37109,0.0103920394322246,0.0912634411197086,-0.0099923590335179,73.95,-2.25,88.95,-918.94531,-23.4375,373.04687,0.1412250617543731,0.0227824808579827,0.0153215473715574,60.15,16.65,9.45
-825.19531,108.88672,-538.57422,-0.0868667822010097,0.0654165111610742,-0.0033307863445059,-14.55,29.4,14.1,-174.80469,-133.78906,1011.71875,0.0381042027624654,0.0560903443030425,-0.0311761182966739,75.9,-0.45,89.85,-958.49609,-37.10938,375.48828,0.1303001733015146,0.0756753819713717,0.0135896571548034,60.15,16.65,9.45
-832.03125,118.16406,-548.33984,-0.0341072242424731,0.0385038831611721,0.0321086477160144,-15.9,29.25,14.25,-155.27344,-129.39453,984.86328,-0.005595700114819,0.0616860444178615,-0.0514271736075641,76.5,-0.3,87.9,-948.24219,-57.12891,395.99609,0.1360290420382608,0.0506278128101507,-0.0331745202902074,60.75,16.35,8.85
-826.17187,109.86328,-557.12891,-0.0651499993842947,0.1041869060990259,-0.0053291883380394,-13.5,29.4,14.4,-168.45703,-109.86328,984.375,-0.037970859607613,0.0872664625997164,-0.0241148652089552,76.5,-0.3,87.9,-953.61328,-49.80469,381.34766,0.1068515002680456,-0.002264913770313,-0.0007993607974134,58.95,16.35,9.9
-818.84766,115.72266,-553.71094,-0.0436999028772844,0.1161776671260773,-0.0389035635598788,-15.9,30.6,13.5,-174.31641,-154.78516,971.67969,-0.0205175670876697,0.0730107878023519,-0.0130566336012443,76.8,-1.5,88.35,-959.96094,-22.46094,372.55859,0.064750318985588,0.0353062654385932,-0.0203843984657425,60.3,16.35,9.9
-828.125,120.11719,-556.15234,0.0425006871482391,0.0552909835056291,-0.0114579120064175,-15.9,30.6,13.5,-165.52734,-160.64453,993.16406,-0.0325085026476463,0.0835359958565038,-0.0358392889921523,75.15,-1.95,88.5,-969.72656,-29.29688,390.625,0.1417580853079322,-0.0839356762552105,-0.0185191650941362,61.35,17.1,8.85
-810.54687,140.625,-556.15234,-0.0295773967018471,0.0659495347146333,-0.0118575924051242,-14.1,30.6,14.25,-176.75781,-126.95313,1009.76562,-0.0286446927495813,0.0920628019171221,0.0225161436141284,75.75,-1.5,88.35,-950.19531,-46.875,409.17969,0.1950504922871027,-0.036238969390859,-0.064750318985588,62.25,15.9,11.55
-813.47656,148.4375,-568.84766,-0.0253139064050753,0.055823832526263,0.0203843984657425,-13.95,29.7,14.1,-158.20312,-135.74219,1010.25391,-0.0739433172216925,0.0298437339457014,-0.0361056262360067,75.3,-2.55,88.65,-974.60937,-57.61719,390.625,0.1203078142679967,-0.089797888146809,-0.0206509102425221,60.3,16.05,9.3
-833.98437,139.64844,-554.19922,0.0082602942838387,0.0684807857288007,0.0382373713843925,-13.8,28.8,15.0,-163.08594,-143.06641,1017.57812,-0.1080505414641657,0.0205175670876697,0.0117244237831971,76.65,-0.15,88.05,-953.125,-43.45703,420.89844,0.1781302233207184,-0.0526263893366094,-0.0410353087082646,60.3,16.05,9.3
-816.89453,128.90625,-550.29297,-0.0011990411961201,0.103787051167394,-0.0098591904115907,-13.8,28.8,15.0,-165.52734,-132.8125,1009.27734,-0.0442327518979182,0.0021317451483858,0.0114579120064175,76.05,-1.5,87.9,-960.44922,-31.73828,423.82812,0.1749326055981396,-0.0086599746825454,-0.0648836621404404,61.2,15.9,8.4
-833.49609,123.53516,-537.10937,-0.0065284040670847,0.0640843013430269,-0.0651499993842947,-14.85,28.5,13.95,-136.71875,-157.22656,1011.71875,-0.0142556747973644,-0.0214502710399355,-0.050228132411444,76.05,-1.5,87.9,-942.87109,-33.69141,415.03906,0.1510842521659639,0.0087933178373978,0.0011990411961201,61.2,15.9,8.4
-812.01172,118.16406,-508.30078,0.050761155965003,0.0253139064050753,-0.0038636353651398,-15.3,30.45,13.65,-126.95313,-140.13672,1001.46484,-0.0578224090527217,-0.0510274932088574,-0.0422343499043847,76.2,-1.65,87.45,-931.64062,-24.41406,389.64844,0.1369617459905266,0.0410353087082646,-0.0102588708102974,61.2,15.9,8.4
-803.22266,140.625,-514.64844,0.0243813769857347,0.0480965617959833,-0.0555574952824086,-16.05,30.45,13.35,-100.09766,-113.76953,1012.20703,-0.0671485759107534,-0.0945942274642146,0.0190520141147701,75.3,-1.5,88.35,-916.01562,-2.92969,390.13672,0.1171101965454179,0.0097258472567384,0.0073277648644981,60.75,16.35,11.4
-807.61719,141.11328,-512.20703,0.0219831200605693,0.0516936853843436,-0.0827366350590903,-14.1,29.85,13.2,-119.14063,-120.60547,976.07422,-0.0748760211739583,-0.1267028751802291,-0.0046631706954784,74.85,-1.65,89.1,-917.48047,3.41797,390.625,0.1320322380511938,0.0211837592631559,-0.0438330714992115,60.75,17.1,8.25
-795.41016,135.74219,-527.34375,0.0326416712695735,0.0446324322966249,0.0075941021083525,-14.1,29.85,13.2,-114.25781,-129.88281,958.00781,-0.050761155965003,-0.0939280352887284,-0.0467641774450108,74.85,-1.65,89.1,-898.4375,-16.60156,377.44141,0.0815375938629702,0.029044373148288,-0.0221164632154217,60.15,16.2,10.05
-821.77734,137.69531,-538.08594,-0.0050628510941851,0.0229158240128351,-0.0690138092823597,-15.0,30.45,14.4,-116.69922,-130.37109,988.28125,-0.0563568560798221,-0.0552909835056291,-0.040235773377926,75.75,-1.8,88.95,-895.99609,-34.17969,378.90625,0.0904640803222952,0.17346705262524,0.0267794593779749,61.35,14.85,9.3
-835.9375,138.18359,-552.73437,0.0230489926347623,0.0327748398915007,-0.0771409349442713,-15.15,28.8,14.25,-114.25781,-157.22656,1019.53125,-0.0710122112758932,-0.0487625794385443,-0.0448989440734045,75.9,-1.65,88.05,-910.64453,-46.38672,387.69531,0.1005896079777403,0.1131133925583509,0.0494287716140306,61.35,14.85,9.3
-833.00781,127.92969,-556.15234,0.0732771250462063,-0.0277121633302407,-0.0560903443030425,-15.3,29.7,14.1,-120.60547,-165.52734,1035.64453,-0.1454885520511449,-0.0592879620256213,-0.0309096065198943,74.4,-2.4,87.45,-911.13281,-46.38672,365.23437,0.077540615342978,0.1664057995375213,0.041301645952119,60.3,16.35,7.8
-847.16797,120.11719,-570.3125,0.004529827540626,-0.0190520141147701,-0.0739433172216925,-16.2,29.25,13.5,-126.95313,-175.29297,972.65625,-0.0648836621404404,-0.0354394340605204,-0.0694134896810664,75.0,-2.25,86.85,-919.43359,-70.80078,350.58594,0.1654732701181807,0.1934517706922759,0.0622190679714206,60.3,16.35,7.8
-845.21484,117.1875,-570.80078,0.0539585991546566,0.0422343499043847,-0.0603538345998143,-16.2,29.25,13.5,-143.06641,-190.91797,999.51172,-0.0175864611418704,0.0002665117767795,-0.1392266597608396,75.9,-3.15,87.0,-919.43359,-89.84375,385.25391,0.2488759228198322,0.1057856276938527,0.0787396565390981,61.05,14.85,9.3
-833.00781,114.74609,-568.35937,0.0904640803222952,-0.0702128504784798,0.0182526533173567,-15.3,29.4,14.7,-161.62109,-221.19141,996.58203,-0.0062618922903052,0.0209172474863764,-0.1047197551196597,74.4,-2.4,88.05,-949.21875,-69.82422,402.34375,0.2991042297642014,0.0991240550048407,0.1205743260447762,60.6,17.4,9.0
-848.14453,104.49219,-561.52344,0.0578224090527217,-0.0385038831611721,-0.0101255276554451,-15.0,30.15,14.7,-139.16016,-228.02734,1017.08984,-0.0194516945134768,-0.0158545709251164,-0.1140459219776914,74.4,-2.4,88.05,-931.64062,-64.94141,380.37109,0.3048330985009476,-0.037970859607613,0.107650861065459,60.15,15.45,9.0
-841.30859,110.83984,-542.96875,0.0746095093971788,-0.0050628510941851,0.0458314734927451,-15.9,30.15,14.7,-151.85547,-235.35156,1002.44141,-0.0628850856139816,0.0143890179522168,-0.1716018192536337,76.2,-2.7,88.05,-966.30859,-31.25,387.69531,0.2768545979268525,0.164540566165915,0.0730107878023519,60.0,16.8,8.25
-830.56641,88.86719,-558.10547,0.1552143993078833,-0.04849624219469,0.0417013263508257,-15.9,28.05,15.0,-170.41016,-208.00781,965.82031,0.0447657754514773,0.0550244717288496,-0.240882140312773,76.2,-1.2,88.05,-974.12109,-30.27344,423.82812,0.2931086747177505,-0.0460979852695246,0.093128674491315,60.0,15.6,10.35
-828.125,104.49219,-536.13281,0.1061853080925594,0.0122572728038309,-0.0171867807431637,-15.9,28.05,15.0,-147.46094,-176.75781,1015.13672,0.0756753819713717,-0.039569755735365,-0.2641974701913896,74.85,-1.95,88.05,-940.42969,-3.90625,413.08594,0.29337518649453,-0.0512940049856369,-0.0138559943986577,59.85,16.65,9.0
-817.38281,96.67969,-529.78516,0.1436233186795386,-0.0163874199457503,-0.0391699008037331,-16.2,29.85,12.45,-157.71484,-145.50781,1015.13672,0.082603291904238,-0.0165205885676775,-0.2813844254674786,74.85,-1.95,88.05,-964.84375,-5.37109,401.36719,0.3053659475215814,0.0694134896810664,-0.0226493122360556,59.85,16.65,9.0
-812.01172,89.84375,-529.78516,0.1674716721117143,0.0202512298438154,0.0723445956268657,-15.15,29.25,13.2,-144.53125,-146.48437,993.65234,0.0598208110462552,-0.0105252080541518,-0.2228958242392706,76.05,-2.25,88.35,-991.69922,19.53125,413.57422,0.3081638848454536,-0.0043966589186989,0.0226493122360556,60.6,16.65,9.45
-814.45312,101.5625,-530.76172,0.1755987977736259,0.068614128883653,0.0090596550812521,-14.85,30.6,13.95,-149.41406,-164.55078,1013.67187,0.04849624219469,-0.0543582795533633,-0.2039769787464277,75.75,-2.55,86.85,-960.9375,19.53125,427.24609,0.3161576673525128,0.0836691644784309,0.0440995832759911,60.6,16.65,9.45
-818.35937,95.70313,-526.36719,0.1649402465646217,0.1012558001532266,0.0559571756811154,-15.6,28.65,14.4,-157.22656,-141.11328,1001.95312,0.0860674214035963,-0.1023216727274195,-0.2550046464882103,75.15,-3.9,88.5,-970.21484,29.29688,390.625,0.2957734434196954,0.1064518198693389,-0.0047963393174056,60.9,15.9,8.7
-823.24219,97.65625,-544.92187,0.2388835637863142,0.0604870032217414,-0.0171867807431637,-15.6,28.65,14.4,-134.27734,-130.85937,1000.0,0.049162259837251,-0.0608866836204481,-0.2564701994611099,75.15,-3.9,88.5,-950.19531,2.92969,380.37109,0.2034441297257938,0.0235820161883213,0.0342403928644003,60.3,16.35,8.55
-834.96094,77.14844,-544.92187,0.2825834666635987,0.1027213531261262,0.0436999028772844,-15.15,28.05,12.9,-125.48828,-151.85547,1006.83594,0.0241148652089552,-0.107650861065459,-0.2558040072856237,75.9,-4.2,88.5,-937.98828,-5.85937,394.04297,0.2328881832727885,0.0251807377831481,-0.0274456515534612,60.15,16.95,8.7
-824.70703,83.98438,-544.92187,0.1983812786316086,0.1065849884912661,0.0098591904115907,-15.15,29.25,12.15,-125.0,-145.99609,984.375,0.0154548905264097,-0.1350965126189202,-0.1747994369762124,75.3,-2.55,88.65,-921.38672,10.25391,387.20703,0.176797838969746,0.0283781809728018,0.0724777642487929,61.05,16.8,9.9
-826.66016,79.58984,-548.82812,0.2495421149953184,0.0211837592631559,0.0149218669728507,-16.5,28.5,13.95,-123.53516,-146.48437,987.79297,0.0582220894514284,-0.1243047927879889,-0.1779968801658661,74.25,-3.0,88.95,-906.25,0.0,353.02734,0.182393539084565,0.071944915228159,0.0349065850398865,59.4,15.45,8.7
-822.75391,83.98438,-548.33984,0.2506079875695113,0.0450321126953316,0.0230489926347623,-16.5,28.5,13.95,-125.97656,-148.92578,969.23828,0.0135896571548034,-0.1007227765996675,-0.1662726309155942,74.25,-3.0,88.95,-890.13672,-11.71875,371.58203,0.2141026809347979,-0.0041301471419193,0.0433002224785777,60.75,15.6,8.85
-815.42969,72.26563,-562.5,0.1726676918278266,0.060753514998521,0.0073277648644981,-15.45,27.0,14.55,-128.90625,-163.08594,984.375,0.020117886688963,-0.077540615342978,-0.200779535556774,75.3,-3.0,89.4,-900.39062,-8.78906,383.30078,0.1990474708070949,0.0405022851547056,0.0676814249313873,60.75,15.6,8.85
-834.47266,90.33203,-561.52344,0.2283583557321624,0.0175864611418704,0.0117244237831971,-16.05,28.65,12.3,-94.72656,-156.25,1036.62109,0.0194516945134768,-0.2103722141915853,-0.1901209843477699,75.6,-3.45,89.1,-901.36719,-1.95312,375.0,0.2077074454896403,0.061419532641082,0.078606487917171,60.75,15.6,8.85
-828.61328,67.38281,-552.73437,0.213036808360605,0.0608866836204481,0.0087933178373978,-14.25,27.9,13.05,-135.25391,-162.10937,972.65625,-0.0013323843509724,-0.0658161915597809,-0.1947841550432483,74.25,-4.05,87.9,-903.32031,17.08984,339.35547,0.177330862523305,0.0772741035661985,0.0583552580733556,60.15,15.15,8.4
-833.98437,56.15234,-548.33984,0.1851914764084371,0.0830031468358699,-0.0090596550812521,-16.2,28.5,12.9,-115.23438,-136.23047,1001.95312,-0.0105252080541518,-0.0030642745677264,-0.1785299037194251,75.0,-3.3,88.95,-908.20312,20.01953,358.39844,0.1997136629825811,0.0622190679714206,0.0676814249313873,60.15,16.65,7.65
-817.38281,73.73047,-556.15234,0.2133031456044594,0.032908183046353,0.0730107878023519,-16.2,28.5,12.9,-123.53516,-152.34375,1015.625,-0.0175864611418704,-0.0307764378979672,-0.1859908372058505,74.25,-3.0,88.65,-920.41016,30.27344,370.60547,0.1995803198277287,0.1061853080925594,0.1167105161467112,60.15,14.7,7.65
-833.49609,82.51953,-545.89844,0.1753322859968463,0.0215834396618626,0.0929953313364626,-15.0,29.4,13.05,-113.28125,-121.58203,984.375,-0.0206509102425221,-0.0017320647496791,-0.1236386006125027,75.15,-1.95,88.5,-950.19531,41.50391,344.23828,0.1148452827751048,0.0604870032217414,0.0583552580733556,59.4,15.9,8.7
-834.96094,83.98438,-550.78125,0.1244379614099161,0.0129234649793172,0.0267794593779749,-15.0,26.7,12.6,-104.00391,-132.32422,975.09766,0.0158545709251164,-0.0326416712695735,-0.1205743260447762,75.15,-1.95,88.5,-918.94531,38.08594,354.00391,0.1279019163763492,0.105385947295146,0.0759418937481512,59.85,17.7,10.05
-820.80078,88.86719,-552.73437,0.1421577657066389,-0.0103920394322246,0.0492956029921034,-15.3,28.65,13.35,-117.67578,-134.27734,962.40234,-0.064750318985588,-0.0270459711547545,-0.1318988948963414,76.5,-3.75,88.95,-947.75391,60.54688,343.75,0.1131133925583509,0.1015221373970809,0.0715452348294523,60.6,16.65,8.7
-827.14844,79.10156,-555.66406,0.0873996312216436,-0.0247810573844414,0.0415681577288985,-15.45,27.75,13.5,-145.50781,-134.76562,953.125,0.0083936374386911,-0.0115910806283447,-0.1634746935917221,75.15,-3.15,88.05,-930.66406,49.80469,326.66016,0.1101822866125516,0.1196416220925105,0.034640073263107,60.6,16.65,8.7
-827.63672,76.66016,-579.10156,0.0544916227082157,0.0215834396618626,0.0059953805135257,-15.45,27.75,13.5,-135.74219,-141.60156,977.05078,0.042900542079871,0.0014655529728996,-0.0450321126953316,76.5,-4.8,88.95,-928.71094,41.99219,314.94141,0.0571562168772355,0.125503833984109,0.0039969785199922,60.6,16.2,8.7
-804.19922,62.98828,-581.54297,0.0679479367081668,-0.0053291883380394,0.0127901218244648,-16.35,27.15,12.6,-145.01953,-139.64844,982.91016,0.0640843013430269,0.0651499993842947,-0.1490856756395052,75.0,-4.8,87.9,-939.94141,31.73828,343.75,0.0075941021083525,0.1648070779426945,-0.0470306892217904,60.6,16.2,8.7
-812.01172,60.05859,-586.42578,0.0405022851547056,0.0370383301882724,0.0426340303030914,-15.9,28.05,13.2,-163.08594,-141.11328,975.09766,-0.0325085026476463,0.0458314734927451,-0.0969923098564548,74.25,-3.75,88.35,-934.57031,38.08594,325.19531,0.0039969785199922,0.1325650870718277,0.0895313763700295,59.85,15.9,7.95
-812.5,51.75781,-592.28516,0.0043966589186989,0.0816707624848974,-0.0426340303030914,-15.9,27.0,12.9,-169.92187,-135.74219,994.14062,0.0691469779042869,0.0177198042967228,-0.0688804661275074,74.85,-3.15,88.5,-960.44922,42.96875,330.07812,-0.004529827540626,0.1560137601052967,0.067015232755901,60.75,16.05,8.85
-840.33203,54.6875,-599.12109,0.0499617951675896,-0.0194516945134768,0.0539585991546566,-15.9,27.0,12.9,-176.26953,-148.4375,1011.23047,-0.0057288687367461,0.0592879620256213,-0.0707458740320389,74.85,-3.15,88.5,-952.14844,26.36719,329.58984,0.0799386977352182,0.0873996312216436,0.0834028272345766,61.2,16.95,6.9
-811.52344,52.24609,-594.72656,0.0463644970463041,-0.0335742006889141,-0.0019984019935335,-15.6,28.95,13.35,-163.08594,-122.07031,991.69922,-0.0090596550812521,0.0454317930940384,-0.0155880591483369,75.0,-2.55,88.35,-956.54297,11.71875,340.33203,0.0297105653237742,0.0197182062902563,0.0903307371674429,59.1,16.65,8.7
-806.64062,49.31641,-578.61328,-0.0341072242424731,0.0215834396618626,-0.032375159492794,-15.0,27.9,12.6,-160.15625,-120.11719,992.67578,-0.0405022851547056,0.0871332939777893,-0.0426340303030914,74.25,-4.05,88.35,-958.00781,23.92578,337.89062,0.0692803210591393,0.0271791397766816,0.0318423104721601,61.35,17.1,7.5
-813.96484,51.75781,-591.79687,-0.0550244717288496,0.0511608363637097,-0.0343737360192527,-15.9,26.55,13.5,-190.42969,-117.1875,992.67578,-0.0480965617959833,0.2767212547720001,-0.075275701572665,73.5,-3.0,88.35,-967.28516,20.01953,350.58594,0.0527595579585365,0.0177198042967228,0.0171867807431637,60.15,16.65,8.4
-810.54687,84.47266,-587.89062,-0.0198513749121835,-0.023981696587028,0.0131899767560967,-15.0,28.65,13.05,-145.50781,-124.51172,1009.76562,0.0442327518979182,0.0937948666668012,-0.0514271736075641,73.5,-3.0,88.35,-965.82031,35.15625,344.72656,0.0538254305327295,0.0708790426539661,0.0662158719584876,60.15,16.65,8.4
-804.6875,79.10156,-571.77734,-0.0933951862680945,0.0712787230526728,-0.0848683802074762,-15.0,28.65,13.05,-166.01562,-125.97656,1007.32422,0.0165205885676775,0.0879326547752027,-0.0089264864593249,76.2,-3.45,87.0,-961.42578,29.29688,339.35547,-0.0359724576140795,0.0326416712695735,-0.0013323843509724,60.9,16.2,7.65
-811.52344,63.96484,-575.19531,-0.1059187963157798,0.0006661921754862,-0.0049295079393327,-14.4,28.05,12.15,-154.29687,-133.30078,1008.78906,0.0039969785199922,0.0603538345998143,0.0005328490206338,73.35,-3.15,87.75,-979.00391,48.82813,357.91016,0.025713586803782,0.0171867807431637,0.0578224090527217,60.75,16.35,7.2
-798.33984,57.61719,-589.35547,-0.075275701572665,0.0433002224785777,0.0287778613715085,-16.5,27.75,12.9,-161.13281,-137.69531,1014.16016,-0.0447657754514773,0.0527595579585365,0.027312482931534,73.35,-3.15,87.75,-958.98437,27.34375,356.44531,-0.0094593354799588,0.0177198042967228,-0.0367718184114929,60.75,16.05,7.8
-804.6875,62.5,-591.30859,-0.1325650870718277,0.0672817445326806,0.0319754790940873,-16.35,27.45,13.05,-168.94531,-127.92969,990.23437,-0.0174532925199432,0.0500949637895168,0.0258469299586344,75.6,-3.9,88.5,-970.21484,56.15234,357.42187,0.0353062654385932,0.0019984019935335,0.0042633157638465,60.75,15.6,7.5
-814.94141,41.50391,-594.72656,-0.1441561677001724,0.0267794593779749,-0.0075941021083525,-15.15,28.05,13.2,-151.85547,-130.85937,1001.95312,-0.014522186574144,0.013456313999951,0.0819372742616769,73.95,-4.5,87.9,-952.63672,62.5,356.44531,-0.0330413516682802,0.0139893375535101,-0.0932618431132422,60.3,17.1,7.8
-822.75391,65.91797,-600.09766,-0.0823369546603836,0.0415681577288985,0.0470306892217904,-15.15,28.05,13.2,-168.94531,-129.88281,992.67578,-0.0305099261211876,0.0347734164179594,0.0843353566539172,75.3,-4.5,87.9,-944.82422,64.45313,348.14453,-0.0798055291132911,-0.0401026047559989,-0.0243813769857347,61.95,16.95,7.95
-821.28906,54.6875,-587.89062,-0.0854012292281101,0.0466310088230837,-0.0464976656682313,-15.0,27.9,12.0,-164.55078,-148.92578,980.46875,-0.0303767574992605,0.0385038831611721,0.0995237354035474,75.3,-4.5,87.9,-944.82422,73.73047,356.93359,-0.0790061683158777,0.0151883787496302,-0.0355727772153728,61.95,16.95,7.95
-810.05859,54.19922,-582.51953,-0.0331745202902074,0.0421010067495324,0.0163874199457503,-15.3,27.15,13.05,-172.36328,-156.25,1002.44141,-0.0143890179522168,0.0492956029921034,0.0504946441882235,75.0,-3.3,87.9,-951.17187,70.80078,355.46875,-0.0873996312216436,0.0664823837352672,-0.0615528757959344,61.95,16.95,7.95
-820.80078,55.17578,-579.58984,-0.0317089673173077,0.0514271736075641,0.0779402957416847,-14.85,27.75,13.2,-141.11328,-135.25391,998.53516,0.0215834396618626,0.0186523337160634,0.0872664625997164,76.2,-3.9,87.75,-939.45312,52.24609,362.79297,-0.1465544246253378,0.0010658725741929,-0.079272505559732,59.85,16.2,8.4
-827.63672,56.15234,-573.24219,-0.0682144484849463,0.0698131700797731,0.0038636353651398,-14.85,27.75,13.2,-161.62109,-135.74219,1021.97266,0.050228132411444,0.0141225061754373,0.1421577657066389,76.5,-3.3,88.95,-949.21875,49.80469,364.25781,-0.1352296812408474,-0.1249709849634751,-0.0291777163031404,59.85,16.2,8.4
-836.42578,78.125,-566.40625,0.0652833425391471,0.0480965617959833,0.0622190679714206,-14.85,27.75,13.2,-134.76562,-132.32422,1023.92578,-0.0099923590335179,0.0041301471419193,0.1501515482136981,76.5,-3.3,88.95,-910.64453,55.66406,359.375,-0.15561407970659,-0.042900542079871,-0.0095926786348112,61.05,17.1,7.5
-827.14844,78.61328,-568.35937,0.0763415741468579,0.0373046674321268,0.0498284520127373,-15.15,28.05,11.4,-132.32422,-130.37109,988.28125,-0.0218499514386422,0.014522186574144,0.145621720673072,75.0,-4.5,90.45,-945.3125,50.78125,371.09375,-0.201845408130967,-0.0687472975055802,-0.10205516095064,61.2,16.65,9.0
-838.86719,83.98438,-562.01172,0.0582220894514284,0.0893982077481023,0.0695466583029936,-14.25,27.45,11.55,-117.67578,-149.41406,981.44531,-0.0030642745677264,0.0383705400063197,0.195183835441955,75.3,-3.75,88.65,-934.57031,34.66797,370.11719,-0.2632649407720491,-0.0576890658978693,-0.0824701232823108,61.8,16.05,8.25
-836.42578,88.37891,-549.31641,0.0692803210591393,0.042900542079871,0.1061853080925594,-15.45,27.3,13.5,-124.02344,-148.4375,982.91016,-0.0326416712695735,0.0031976177225788,0.1408253813556664,74.25,-3.0,87.6,-924.31641,20.99609,367.67578,-0.2687274722649409,-0.0034639549664331,-0.0850015488294034,60.9,15.15,7.35
-841.30859,94.72656,-548.82812,0.0446324322966249,0.0594211306475485,0.114312433754471,-13.8,27.75,12.9,-124.51172,-144.53125,985.83984,0.0373046674321268,0.068614128883653,0.1618759719968953,74.25,-3.0,87.6,-929.19922,20.01953,377.92969,-0.2901775687719512,0.0149218669728507,-0.1067181571131932,60.3,17.1,9.3
-843.26172,90.82031,-554.19922,-0.052493046181757,0.0646171503636608,0.0764747427687851,-13.8,27.75,12.9,-115.72266,-161.62109,981.93359,0.0149218669728507,0.1093829258151382,0.1597442268485094,75.15,-3.45,88.8,-940.42969,18.06641,374.02344,-0.2720582586094469,-0.0138559943986577,-0.0683476171068735,59.1,16.65,8.7
-832.51953,102.05078,-550.29297,-0.0492956029921034,0.0638177895662474,0.0448989440734045,-16.95,28.5,12.9,-127.92969,-124.02344,1026.36719,0.0035972981212855,0.0960597804371143,0.182926562638124,76.2,-3.9,88.05,-923.82812,0.0,386.23047,-0.2423476932856726,-0.0560903443030425,-0.0639509581881746,59.1,16.65,8.7
-807.61719,106.44531,-518.55469,-0.0504946441882235,0.0694134896810664,0.1597442268485094,-15.0,29.4,13.35,-129.88281,-126.95313,1003.41797,0.0074609334864253,0.0490290912153239,0.1737335644020195,74.7,-4.5,87.15,-942.87109,14.16016,376.95312,-0.2049096826986934,-0.0098591904115907,-0.0350397536618137,60.75,15.6,8.25
-825.68359,86.91406,-536.13281,-0.1151117945518844,0.094860564708069,0.0318423104721601,-16.5,26.25,13.2,-125.48828,-145.99609,1006.83594,-0.0170536121212365,0.0305099261211876,0.1530826541594974,74.7,-4.5,87.15,-945.3125,-1.46484,366.21094,-0.2322219910973023,-0.0548913031069224,-0.0447657754514773,61.2,15.9,8.4
-797.36328,80.56641,-528.32031,-0.0959264372822619,0.0873996312216436,0.0443659205198454,-16.05,27.9,13.05,-136.71875,-163.08594,983.88672,0.037970859607613,0.0791393369378048,0.1477534658214579,73.8,-3.9,88.8,-933.59375,-10.74219,381.34766,-0.2228958242392706,-0.0387702204050264,-0.0702128504784798,58.5,16.05,8.85
-791.50391,90.82031,-525.39062,-0.0810045703094112,0.0963261176809686,0.011191400229638,-16.05,27.9,13.05,-141.60156,-178.22266,961.91406,0.1189754299170242,0.1051194355183664,0.1325650870718277,75.0,-4.5,88.65,-962.89062,-30.76172,378.90625,-0.2980383571900085,-0.042900542079871,-0.0746095093971788,61.2,15.15,8.4
-799.31641,89.35547,-548.33984,-0.1473537854227512,0.1593445464498027,0.0171867807431637,-16.95,28.8,12.15,-96.19141,-144.53125,1030.27344,-0.0319754790940873,0.1472204422678988,0.1786630723413523,75.0,-4.5,88.65,-931.64062,-5.37109,375.97656,-0.2443460952792061,-0.085934078248744,-0.1107151356331855,61.2,16.65,8.4
-805.66406,90.33203,-553.22266,-0.1512174207878911,0.17346705262524,0.0554241521275563,-17.4,27.15,13.35,-155.27344,-158.69141,1033.20313,-0.0282450123508746,0.0347734164179594,0.11990813386929,76.05,-2.25,88.95,-931.64062,-34.66797,382.8125,-0.2267596341373356,-0.0114579120064175,-0.1068515002680456,60.0,17.55,8.55
-816.89453,92.28516,-558.59375,-0.1168438593015635,0.1352296812408474,0.039569755735365,-17.25,28.8,13.5,-131.83594,-150.39062,1009.27734,-0.0219831200605693,-0.0050628510941851,0.1597442268485094,76.05,-1.5,88.65,-956.05469,-11.23047,390.13672,-0.1882557509761635,-0.0221164632154217,-0.0552909835056291,60.0,17.55,8.55
-812.01172,87.40234,-567.38281,-0.1598775700033617,0.1843921156110237,-0.0295773967018471,-17.25,28.8,13.5,-134.76562,-157.71484,1000.97656,-0.0528927265804637,0.0185191650941362,0.1915865373206695,76.05,-3.75,86.55,-938.96484,-24.41406,378.41797,-0.1729342036046061,0.0042633157638465,-0.1139127533557643,61.05,15.3,7.8
-833.00781,93.26172,-576.17187,-0.1745329251994329,0.1336309596460206,-0.0342403928644003,-15.9,27.75,12.15,-133.30078,-154.78516,989.25781,-0.0083936374386911,-0.027312482931534,0.1406922127337393,76.05,-3.75,86.55,-934.57031,4.39453,381.83594,-0.1621424837736748,0.0345069046411798,-0.0917962901403425,61.05,15.3,7.8
-822.75391,83.49609,-573.73047,-0.1354961930176269,0.1084502218628724,0.0366386497895657,-16.5,28.05,12.45,-129.39453,-149.41406,994.14062,-0.016787100344457,0.0139893375535101,0.1705359466794407,74.4,-1.95,87.75,-936.52344,-27.34375,376.46484,-0.1393598283827668,0.0211837592631559,-0.118842261295097,59.7,17.55,9.3
-818.84766,78.61328,-576.17187,-0.1797289449155452,0.1574793130781963,-0.0086599746825454,-15.6,28.2,12.3,-109.86328,-159.17969,986.32812,-0.0153215473715574,0.0227824808579827,0.1406922127337393,76.8,-4.05,87.15,-923.82812,-12.69531,375.0,-0.1810613292665177,0.0038636353651398,-0.0979250138087206,61.05,16.35,8.55
-828.61328,97.65625,-573.73047,-0.2239616968134635,0.114312433754471,-0.0155880591483369,-17.55,30.6,12.45,-140.625,-155.27344,994.62891,0.0487625794385443,0.0868667822010097,0.13776110678794,75.0,-3.3,88.65,-923.82812,-12.20703,398.4375,-0.200246512003215,0.0724777642487929,-0.0968591412345277,60.6,15.15,9.0
-805.66406,107.42188,-583.49609,-0.1688040564626867,0.0646171503636608,0.058088746296576,-17.55,30.6,12.45,-138.67187,-184.57031,992.67578,-0.0041301471419193,0.0694134896810664,0.1460214010717788,76.05,-3.3,88.35,-957.51953,-29.29688,383.30078,-0.2051760199425478,0.0026645941690197,-0.0639509581881746,60.75,15.6,8.55
-801.26953,100.09766,-579.10156,-0.1681378642872005,0.1244379614099161,0.0263797789792682,-16.05,28.65,13.35,-139.16016,-156.73828,991.69922,0.0195850376683291,0.064750318985588,0.1610766111994818,75.0,-3.3,87.6,-922.85156,-9.76562,381.34766,-0.1811944978884449,-0.0071944217096458,-0.0800720408900706,60.75,15.6,8.55
-807.12891,97.16797,-561.52344,-0.2137030005360913,0.0995237354035474,0.0073277648644981,-15.6,28.65,13.35,-148.4375,-132.32422,1002.92969,0.069680001457846,-0.0054625314928918,0.1720014996523403,75.75,-2.25,88.35,-923.82812,-40.52734,391.11328,-0.1405590441118121,-0.0611531953972277,-0.1089830708835063,61.35,16.05,8.85
-794.92187,104.98047,-575.68359,-0.1474869540446784,0.0806048899107045,0.0955267568835552,-15.6,29.4,12.0,-150.39062,-161.62109,1017.08984,0.0173201238980161,-0.0270459711547545,0.1665389681594485,75.75,-2.25,88.35,-954.58984,-37.59766,375.97656,-0.1277687477544221,-0.0082602942838387,-0.0807380585326316,61.35,16.8,7.2
-805.66406,99.12109,-588.86719,-0.1782633919426456,0.1340306400447273,0.0434333911005048,-16.2,29.85,11.85,-145.99609,-180.66406,986.32812,0.0146553551960711,0.0210505906412288,0.1243047927879889,76.2,-2.4,88.5,-945.80078,-28.32031,391.60156,-0.1376279381660128,-0.0083936374386911,-0.022382800459276,61.35,16.8,7.2
-793.94531,94.72656,-575.68359,-0.1553475679298105,0.1047197551196597,0.0050628510941851,-16.2,29.85,11.85,-141.11328,-165.03906,976.07422,0.0087933178373978,-0.1024548413493467,0.1581455052536826,75.0,-3.3,88.35,-949.21875,-20.50781,395.50781,-0.1922527294961557,0.0407687969314851,-0.0341072242424731,60.9,16.2,9.0
-799.31641,112.79297,-582.51953,-0.087532974376496,0.077540615342978,0.128834620328615,-17.85,29.7,13.05,-144.53125,-171.875,994.14062,0.0438330714992115,0.0106585512090041,0.1558805914833695,75.75,-1.5,87.6,-949.70703,-13.18359,390.13672,-0.1642740543891354,0.0095926786348112,-0.0708790426539661,59.4,16.2,7.35
-814.45312,112.79297,-594.23828,-0.1225727280383097,0.0909969293429291,0.0944608843093623,-15.9,29.85,12.45,-145.01953,-170.89844,997.07031,0.0267794593779749,0.0421010067495324,0.1297671497479555,75.75,-1.5,87.6,-947.26562,-3.41797,378.41797,-0.1750657742200668,-0.0446324322966249,-0.0852680606061829,61.05,16.35,9.9
-805.66406,108.39844,-573.24219,-0.1581455052536826,0.0840688448771376,0.0730107878023519,-16.35,29.4,13.35,-165.52734,-152.34375,1000.97656,0.0959264372822619,-0.0311761182966739,0.1537488463349836,75.6,-1.2,88.5,-941.89453,-6.34766,371.09375,-0.2378176912121213,0.0135896571548034,-0.0498284520127373,60.9,16.95,9.45
-805.66406,122.55859,-592.77344,-0.0768744231674918,0.0446324322966249,0.0430337107017981,-16.35,29.4,13.35,-127.92969,-161.13281,1003.90625,0.0652833425391471,-0.0722112524720134,0.1477534658214579,75.75,-2.55,88.65,-960.9375,-3.41797,368.16406,-0.1810613292665177,0.0129234649793172,-0.0728774446474996,60.9,14.4,9.0
-799.31641,137.69531,-582.03125,-0.0421010067495324,0.0287778613715085,0.0767412545455646,-16.95,28.05,12.9,-151.85547,-148.92578,895.01953,0.2129034652057527,0.0050628510941851,0.0506278128101507,75.75,-2.55,88.65,-952.14844,3.90625,370.60547,-0.2006461924019217,-0.0106585512090041,0.0298437339457014,59.7,16.05,7.5
-791.01562,138.67187,-583.49609,-0.0911300979648563,0.0943277156874351,0.0495619402359577,-17.25,30.3,13.5,-135.74219,-122.55859,990.72266,0.1157779867273706,0.0606201718436686,0.158944866051096,76.2,-2.4,89.1,-941.40625,-7.32422,378.41797,-0.22702597138119,-0.1180429004976836,-0.016787100344457,59.7,16.05,7.5
-796.875,131.83594,-573.73047,-0.0398360929792193,0.0345069046411798,0.0690138092823597,-16.95,29.85,12.45,-139.16016,-160.64453,1020.99609,0.0873996312216436,0.1080505414641657,0.2045100022999867,74.7,-2.55,88.95,-939.94141,-12.69531,374.02344,-0.2556708386636965,-0.0123904414257581,-0.0467641774450108,59.85,15.9,9.0
-805.66406,117.67578,-593.75,-0.0667488955120467,0.0275788201753884,0.1013889687751538,-16.2,30.6,11.4,-146.48437,-138.18359,1035.15625,0.074209828998472,-0.0766079113907123,0.1841256038342442,75.9,-1.95,88.05,-953.61328,-25.87891,370.60547,-0.237551353968267,-0.055823832526263,-0.0422343499043847,59.85,15.9,9.0
-810.54687,139.64844,-604.00391,-0.0959264372822619,0.0655498543159266,0.0321086477160144,-16.2,30.6,11.4,-139.16016,-174.31641,1010.25391,0.0422343499043847,-0.0993905667816202,0.1593445464498027,75.9,-1.95,88.05,-941.89453,-40.03906,389.16016,-0.2283583557321624,-0.064750318985588,-0.0556906639043358,60.3,16.8,8.25
-788.57422,114.25781,-598.14453,-0.0266462907560478,0.0334410320669869,0.0426340303030914,-18.15,29.4,12.0,-161.13281,-182.12891,991.69922,0.0405022851547056,-0.0916631215184153,0.1662726309155942,75.9,-2.4,88.05,-906.25,-43.94531,399.90234,-0.2238285281915364,-0.0013323843509724,-0.0206509102425221,59.25,15.3,9.9
-804.6875,120.11719,-601.5625,-0.0155880591483369,0.0103920394322246,0.0506278128101507,-17.55,27.75,12.0,-154.29687,-157.71484,970.21484,0.1173767083221974,-0.0019984019935335,0.0893982077481023,74.85,-2.4,87.45,-947.75391,-61.52344,380.85937,-0.2423476932856726,0.0723445956268657,0.0203843984657425,60.3,14.85,8.85
-814.45312,137.69531,-590.82031,-0.0523598775598298,0.0321086477160144,0.0695466583029936,-17.55,27.75,12.45,-145.50781,-134.76562,933.59375,0.2440795835024266,0.1827932194832717,0.0714118916745999,74.85,-0.15,89.85,-977.53906,-60.54688,374.02344,-0.3114946711899595,-0.0618192130397887,0.2312894616779617,60.3,14.85,7.8
-813.47656,136.23047,-586.91406,-0.0319754790940873,-0.0474303696204971,0.0448989440734045,-17.55,31.35,13.5,-152.83203,-138.67187,982.91016,0.1409587245105188,0.2121041044083393,0.0967257980796753,75.15,-0.45,88.5,-927.73437,-62.01172,385.25391,-0.1554809110846628,-0.059154618870769,0.0347734164179594,59.85,16.2,8.4
-810.54687,142.57812,-570.80078,-0.0230489926347623,0.0149218669728507,0.0411684773301918,-17.25,31.05,12.9,-151.85547,-91.30859,1030.76172,0.1592113778278755,0.1941179628677621,0.0997902471803269,75.3,-2.25,88.35,-962.40234,-57.12891,378.41797,-0.1841256038342442,0.0282450123508746,-0.0182526533173567,61.2,16.2,9.0
-803.71094,146.48437,-564.45312,-0.0972588216332344,0.0205175670876697,0.0261132672024887,-17.25,31.05,12.9,-149.41406,-167.96875,1006.34766,0.1759984781723326,0.1360290420382608,-0.0054625314928918,75.6,-1.95,88.5,-944.33594,-60.05859,359.375,-0.1620091406188224,-0.0373046674321268,-0.0094593354799588,61.2,16.2,9.0
-797.85156,152.83203,-569.82422,-0.0840688448771376,-0.0431668793237253,0.1237717692344298,-17.4,31.2,12.3,-140.13672,-107.91016,987.30469,0.1754656291516987,0.0720780838500862,0.0326416712695735,77.7,-0.45,88.05,-923.33984,-59.57031,388.67187,-0.1083170532409452,-0.0301102457224809,-0.011191400229638,60.15,15.45,8.4
-790.52734,152.83203,-553.71094,-0.0735436368229858,-0.0439662401211387,0.0430337107017981,-19.35,28.8,12.9,-133.78906,-131.34766,1021.48437,0.0046631706954784,0.0337075438437664,0.1036538825454668,77.7,-0.45,88.05,-938.47656,-23.4375,407.22656,-0.110981647409965,-0.0321086477160144,0.0119907610270514,61.35,14.25,8.85
-766.60156,160.15625,-553.71094,-0.1148452827751048,0.0081271256619115,-0.006128723668378,-18.3,29.55,11.85,-146.48437,-136.71875,1022.46094,0.0213169278850831,-0.0608866836204481,0.0552909835056291,76.05,0.0,86.55,-948.73047,-54.6875,403.32031,-0.069680001457846,-0.0767412545455646,0.0274456515534612,60.9,16.2,9.45
-775.87891,144.04297,-577.63672,-0.055823832526263,-0.0190520141147701,0.0077274452632048,-18.3,29.55,11.85,-178.71094,-143.55469,997.55859,0.0490290912153239,-0.0065284040670847,0.0973919902551615,77.4,-1.65,86.7,-915.52734,-49.80469,398.92578,-0.0759418937481512,0.0335742006889141,0.0210505906412288,60.15,16.95,9.45
-771.48437,146.97266,-586.42578,-0.0676814249313873,0.0221164632154217,0.0190520141147701,-18.0,28.8,12.9,-158.20312,-141.60156,1001.95312,0.0644839817417337,-0.0319754790940873,0.0520933657830503,75.0,-1.05,88.35,-948.73047,-40.52734,412.59766,-0.0991240550048407,0.0330413516682802,-0.0162542513238231,62.55,15.6,8.85
-791.01562,154.29687,-580.07812,-0.0823369546603836,0.0003996803987067,-0.0520933657830503,-17.85,29.4,13.05,-162.59766,-115.72266,992.67578,0.1036538825454668,0.0102588708102974,-0.0218499514386422,75.0,-1.05,88.35,-932.61719,-41.50391,405.27344,-0.0237151848102485,-0.1149786259299572,-0.011191400229638,61.05,16.35,9.3
-779.78516,165.03906,-578.61328,-0.0711455544307456,-0.0307764378979672,0.0099923590335179,-17.55,30.3,13.2,-163.57422,-125.0,991.69922,0.0847350370526239,0.0746095093971788,0.0247810573844414,75.6,-0.45,89.55,-931.64062,-47.36328,389.64844,-0.0672817445326806,-0.1024548413493467,0.0233155044115418,61.05,16.35,9.3
-784.66797,165.52734,-583.00781,-0.0255804181818548,0.0382373713843925,-0.0117244237831971,-16.95,29.55,12.9,-150.39062,-100.58594,1018.55469,0.1688040564626867,0.0123904414257581,-0.0230489926347623,76.2,-0.45,87.75,-923.33984,-49.80469,404.29687,-0.0903307371674429,-0.0839356762552105,-0.0217166082837898,61.05,16.35,9.3
-791.99219,153.80859,-573.24219,-0.077540615342978,0.0889985273493956,-0.0474303696204971,-16.95,29.55,12.9,-164.55078,-109.86328,1003.41797,0.1356293616395541,-0.0051960197161123,-0.0170536121212365,76.2,-0.45,87.75,-921.875,-44.92188,427.73437,-0.0768744231674918,-0.0872664625997164,-0.0173201238980161,60.9,15.9,8.7
-790.52734,151.36719,-574.70703,-0.0249142260063686,0.0231821612566894,0.0005328490206338,-17.55,28.8,12.9,-155.27344,-91.79688,1032.71484,0.058088746296576,-0.0499617951675896,0.0532925815120956,75.6,-1.65,88.8,-929.19922,-24.90234,430.17578,-0.0338407124656936,-0.0658161915597809,0.0181194846954295,60.9,15.9,8.7
-795.41016,149.41406,-573.24219,-0.0542251109314362,-0.0202512298438154,0.0071944217096458,-18.45,28.95,13.05,-151.36719,-80.56641,1001.46484,0.0610198522423753,-0.1036538825454668,0.0278453319521679,76.2,-1.65,89.1,-917.48047,-52.73438,424.31641,-0.0583552580733556,-0.1296339811260284,-0.064750318985588,60.9,16.2,9.75
