IMU1_AccX,IMU1_AccY,IMU1_AccZ,IMU1_GyrX,IMU1_GyrY,IMU1_GyrZ,IMU1_MagX,IMU1_MagY,IMU1_MagZ,IMU2_AccX,IMU2_AccY,IMU2_AccZ,IMU2_GyrX,IMU2_GyrY,IMU2_GyrZ,IMU2_MagX,IMU2_MagY,IMU2_MagZ,IMU3_AccX,IMU3_AccY,IMU3_AccZ,IMU3_GyrX,IMU3_GyrY,IMU3_GyrZ,IMU3_MagX,IMU3_MagY,IMU3_MagZ
-792.96875,113.76953,-617.1875,0.0386370517830992,0.093128674491315,-0.060753514998521,-17.55,30.6,11.4,-149.41406,-144.53125,1008.30078,0.0034639549664331,0.0225161436141284,-0.0219831200605693,77.4,-3.45,87.75,-951.17187,6.83594,426.26953,0.0423675185263119,-0.014522186574144,0.0070612530877186,59.85,16.2,8.7
-796.38672,124.51172,-592.77344,0.0707458740320389,0.0179861415405771,-0.0666155523571943,-17.55,29.85,13.5,-159.66797,-122.07031,1013.67187,0.0071944217096458,-0.029044373148288,-0.0259800985805615,77.4,-3.45,87.75,-946.77734,13.67187,419.92187,0.0298437339457014,0.0015987215948268,0.0643506385868813,59.1,15.45,6.9
-790.52734,125.0,-602.53906,0.0411684773301918,0.0796723604913639,-0.0716784034513795,-17.4,29.7,11.55,-156.73828,-143.06641,1002.44141,-0.0555574952824086,-0.0564900247017492,-0.0542251109314362,77.55,-2.55,87.6,-922.85156,-5.85937,393.55469,-0.0552909835056291,0.0895313763700295,0.0019984019935335,59.1,15.45,6.9
-775.39062,119.14063,-612.30469,0.0612863640191548,0.0363721380127862,-0.0135896571548034,-17.4,29.7,11.55,-159.17969,-166.99219,995.60547,-0.0624854052152749,-0.0798055291132911,-0.0021317451483858,74.85,-2.4,88.5,-921.875,-35.64453,396.97266,-0.0241148652089552,0.0658161915597809,0.0334410320669869,59.85,15.9,9.0
-781.25,118.16406,-598.14453,0.0944608843093623,0.0265129476011954,-0.049162259837251,-18.9,30.15,13.05,-135.25391,-177.24609,1012.69531,-0.0572893854991626,-0.067015232755901,0.0015987215948268,77.4,-1.65,87.0,-941.40625,-20.01953,407.71484,-0.0355727772153728,0.0536922619108023,0.0755420388165193,59.85,15.9,9.0
-784.66797,115.23438,-583.98437,0.0586217698501351,0.0251807377831481,-0.0595542992694757,-19.35,28.8,12.15,-130.37109,-186.03516,1020.99609,-0.069680001457846,-0.0385038831611721,-0.0460979852695246,77.4,-1.65,87.0,-915.03906,-56.64063,389.64844,-0.0163874199457503,0.0194516945134768,0.0247810573844414,60.3,15.6,8.85
-784.66797,108.88672,-593.75,0.1119141768293056,0.0015987215948268,-0.1140459219776914,-17.1,30.45,12.3,-136.71875,-184.08203,999.51172,-0.0434333911005048,-0.0628850856139816,-0.0098591904115907,76.5,-1.8,87.15,-909.17969,-45.41016,380.37109,0.0219831200605693,0.063018428768834,0.1265697065583019,60.0,16.35,7.2
-782.71484,98.14453,-597.16797,0.1111148160318922,-0.050228132411444,-0.104320074720953,-18.75,28.5,13.2,-129.88281,-179.19922,975.58594,-0.0047963393174056,-0.0823369546603836,-0.046897346066938,75.15,-2.4,87.75,-916.50391,-31.25,390.625,-0.0077274452632048,0.1189754299170242,0.1033873707686873,60.3,16.8,8.55
-782.71484,96.19141,-615.72266,0.0835359958565038,-0.0233155044115418,-0.1216401986189692,-18.75,28.5,13.2,-134.27734,-189.45312,972.65625,-0.0034639549664331,-0.0265129476011954,-0.0438330714992115,76.2,-2.7,87.75,-916.99219,-48.33984,399.41406,0.0070612530877186,0.0399694361340717,0.0624854052152749,61.2,16.95,8.4
-780.76172,110.35156,-610.35156,0.0795390173365115,-0.0847350370526239,-0.0911300979648563,-18.3,27.75,12.15,-131.34766,-183.59375,1015.13672,0.0175864611418704,0.013456313999951,-0.116577347524784,74.4,-1.65,87.0,-903.32031,-55.17578,403.32031,0.0483628990398376,0.0025314255470925,0.0334410320669869,61.2,16.95,8.4
-802.24609,96.67969,-601.5625,0.1289677889505422,-0.1060521394706322,-0.0427671989250186,-18.0,29.85,12.45,-138.18359,-186.03516,1012.69531,0.018385996472209,0.0203843984657425,-0.1167105161467112,75.3,-3.0,87.6,-942.87109,-52.24609,390.13672,0.0959264372822619,0.0723445956268657,0.0572893854991626,60.6,17.4,7.95
-806.64062,98.63281,-602.53906,0.0731439564242791,-0.070346019100407,-0.0993905667816202,-18.9,27.9,12.6,-138.67187,-171.875,989.25781,0.0335742006889141,-0.0301102457224809,-0.1300336615247351,76.5,-3.3,87.6,-935.05859,-40.03906,399.41406,0.1378942754098671,0.0389035635598788,0.1501515482136981,60.6,17.4,7.95
-805.66406,86.91406,-600.58594,0.0586217698501351,-0.0578224090527217,-0.0674150876875329,-18.9,27.9,12.6,-127.92969,-202.14844,1016.11328,0.042900542079871,-0.0141225061754373,-0.1192419416938038,76.5,-3.3,87.6,-932.12891,-40.03906,391.11328,0.1520167815853045,0.0337075438437664,0.0750091897958855,59.7,16.05,8.25
-801.75781,88.86719,-582.03125,0.128834620328615,-0.1353630243956998,-0.0877993116203503,-18.3,29.25,11.1,-126.95313,-187.98828,984.375,0.059154618870769,-0.0173201238980161,-0.1155114749505911,76.65,-3.15,87.0,-950.68359,-31.73828,375.97656,0.1542816953556175,0.0602204914449619,0.0965926294577481,60.6,16.2,6.6
-784.66797,82.03125,-568.35937,0.0639509581881746,-0.051827028539196,-0.0704793622552594,-17.55,29.25,12.15,-126.95313,-199.70703,1014.64844,0.0534257501340228,-0.0057288687367461,-0.1184425808963904,76.65,-2.4,88.05,-937.5,-19.04297,357.42187,0.1637412053685016,0.0726111074036452,0.0315757986953806,60.0,17.1,7.5
-780.27344,110.83984,-551.26953,0.069680001457846,-0.0925956509377559,-0.1642740543891354,-16.2,29.25,11.85,-141.60156,-175.78125,999.51172,0.0584886012282079,-0.0275788201753884,-0.1434899755246862,75.3,-2.25,86.85,-933.59375,-9.76562,370.11719,0.2215636144212233,0.0181194846954295,0.0871332939777893,61.35,16.05,7.5
-768.06641,108.39844,-566.89453,0.0993905667816202,-0.1260366830047429,-0.0847350370526239,-18.0,28.05,11.85,-136.71875,-180.66406,1005.37109,0.0688804661275074,-0.0587549384720623,-0.1432236382808319,75.0,-2.55,88.65,-925.29297,-32.22656,348.63281,0.1898544725709904,0.0238483534321757,0.0366386497895657,61.65,16.65,7.65
-762.69531,113.76953,-562.01172,0.0294440535469947,-0.032375159492794,-0.068614128883653,-18.0,28.05,11.85,-138.18359,-160.15625,992.67578,0.1081837100860929,-0.0142556747973644,-0.1276355791324949,76.95,-3.15,86.7,-927.24609,7.32422,339.84375,0.2198315496715442,0.063684446411395,0.0342403928644003,59.85,16.2,7.95
-779.78516,112.30469,-592.28516,-0.0166539317225298,-0.0351730968166661,-0.0562235129249697,-17.4,28.95,10.95,-144.04297,-152.83203,978.51562,0.1108484787880378,0.0265129476011954,-0.1061853080925594,76.8,-3.75,86.85,-930.66406,6.34766,360.83984,0.2230291673941229,0.0327748398915007,0.0860674214035963,59.85,16.2,7.95
-786.62109,124.51172,-584.47266,0.0567565364785288,-0.0799386977352182,-0.0254472495599277,-16.95,28.05,12.9,-133.78906,-147.94922,983.39844,0.1011224569983742,-0.011191400229638,-0.1590780346730231,76.8,-3.75,86.85,-921.875,28.32031,336.91406,0.2383507147656804,0.051827028539196,0.1092495826602858,59.7,17.1,7.8
-795.89844,92.77344,-593.75,-0.0221164632154217,-0.0109248884528585,-0.0173201238980161,-17.55,27.75,11.4,-143.06641,-145.01953,987.30469,0.0956601000384076,-0.0011990411961201,-0.1336309596460206,75.75,-3.0,86.55,-920.89844,15.13672,334.96094,0.2719249154545945,0.0740764858436197,0.103787051167394,59.7,17.1,7.8
-775.87891,87.89063,-595.70312,-0.0470306892217904,-0.046897346066938,-0.0720780838500862,-18.75,28.8,12.9,-153.32031,-158.20312,978.51562,0.0908637607210019,-0.0041301471419193,-0.1465544246253378,74.25,-3.75,86.85,-915.03906,20.99609,332.03125,0.2625987485965628,0.1267028751802291,0.0266462907560478,60.0,15.6,7.8
-783.20312,74.70703,-583.49609,0.0538254305327295,-0.1003230962009608,-0.0345069046411798,-18.75,28.8,12.9,-156.25,-140.625,988.76953,0.0796723604913639,0.0115910806283447,-0.1577458248549758,75.6,-2.4,86.7,-944.33594,58.10547,343.26172,0.2182328280767173,0.0896645449919567,0.0159877395470436,60.3,15.6,6.45
-785.64453,81.05469,-598.14453,-0.0082602942838387,-0.0267794593779749,-0.0123904414257581,-17.25,28.05,11.85,-171.38672,-112.79297,983.88672,0.0691469779042869,0.0139893375535101,-0.1865236862264844,75.6,-2.4,86.7,-924.31641,74.70703,319.82422,0.1777305429220118,0.0254472495599277,0.0735436368229858,60.3,15.6,6.45
-776.85547,72.75391,-615.23437,0.0047963393174056,-0.0138559943986577,-0.0303767574992605,-18.9,28.2,13.05,-195.80078,-125.48828,980.95703,0.1225727280383097,0.0250473946282958,-0.1353630243956998,75.6,-2.4,86.7,-935.05859,82.03125,321.77734,0.209706022016099,0.0179861415405771,0.0488959225933967,60.15,16.95,6.3
-785.15625,68.84766,-618.16406,0.104320074720953,-0.0999234158022541,0.0401026047559989,-16.5,29.25,12.45,-178.22266,-79.10156,984.86328,0.095393588261628,-0.0075941021083525,-0.1361623851931132,75.6,-3.9,89.85,-952.63672,88.37891,340.33203,0.2017120649761146,0.0269126279999021,0.1493521874162847,60.3,15.6,8.25
-782.71484,71.77734,-618.65234,0.0751423584178126,-0.0536922619108023,0.0431668793237253,-16.5,29.25,12.45,-182.12891,-68.84766,997.55859,0.1474869540446784,0.0187856768709157,-0.0921959705390492,76.65,-3.15,87.45,-939.45312,76.66016,333.00781,0.1381607871866467,0.0470306892217904,0.074209828998472,60.3,17.55,8.25
-767.57812,76.17188,-623.04687,0.0883323351739094,-0.0421010067495324,-0.0105252080541518,-18.75,28.05,12.9,-197.75391,-84.96094,995.60547,0.095393588261628,0.0279785005740951,-0.0163874199457503,74.85,-2.4,87.45,-947.75391,71.28906,335.9375,0.1068515002680456,0.0893982077481023,0.1063184767144865,60.9,17.7,8.7
-777.83203,87.89063,-617.1875,0.1477534658214579,-0.0678147680862396,0.0488959225933967,-16.2,28.5,13.95,-180.17578,-85.9375,998.04687,0.0644839817417337,-0.0051960197161123,-0.0463644970463041,76.65,-2.7,87.45,-955.07812,77.63672,335.9375,0.0722112524720134,0.0702128504784798,0.0766079113907123,60.9,17.7,8.7
-790.03906,85.9375,-638.67187,0.1497518678149914,-0.1023216727274195,0.0611531953972277,-18.75,28.05,12.15,-185.54687,-115.72266,995.11719,0.0455651362488907,0.0417013263508257,0.0090596550812521,77.55,-3.75,87.9,-953.61328,74.21875,329.58984,-0.0086599746825454,0.0889985273493956,0.0190520141147701,60.6,15.9,7.65
-793.45703,72.75391,-619.62891,0.0996569040254746,-0.0684807857288007,0.0314426300734534,-17.85,27.9,12.0,-191.89453,-116.21094,993.65234,0.0359724576140795,0.0330413516682802,-0.023448673033469,76.5,-4.05,87.15,-958.49609,52.73438,317.38281,0.0177198042967228,0.0510274932088574,0.0326416712695735,60.15,17.7,7.95
-789.0625,93.75,-620.60547,0.1394931715376192,-0.1032542021467601,0.0365053066347134,-17.85,27.9,12.0,-190.91797,-102.05078,991.21094,0.0459648166475974,0.0166539317225298,0.0430337107017981,76.5,-4.05,87.15,-976.5625,48.82813,323.73047,-0.0131899767560967,0.0438330714992115,0.071944915228159,60.0,17.55,7.5
-782.71484,84.47266,-622.55859,0.1453552088962925,-0.1092495826602858,0.1087167336396519,-17.85,27.9,12.0,-194.33594,-76.17188,994.62891,0.0141225061754373,0.0523598775598298,0.0436999028772844,76.5,-1.8,87.6,-955.07812,45.89844,325.19531,-0.0003996803987067,-0.0385038831611721,0.0438330714992115,60.15,16.65,6.9
-785.64453,117.1875,-620.60547,0.0895313763700295,-0.0325085026476463,0.0568897051004559,-16.95,28.05,11.1,-209.96094,-100.58594,975.09766,0.040235773377926,0.0219831200605693,-0.0034639549664331,76.2,-2.4,88.05,-954.10156,46.875,314.94141,-0.0411684773301918,-0.0411684773301918,0.0317089673173077,60.75,18.6,8.25
-800.29297,116.69922,-612.30469,0.1241714496331365,-0.0851347174513306,0.0135896571548034,-17.1,28.2,12.6,-200.68359,-94.23828,986.81641,0.0822036115055313,0.0692803210591393,0.0271791397766816,75.9,-3.15,87.45,-964.35547,41.99219,337.40234,-0.0243813769857347,-0.0042633157638465,0.0527595579585365,59.25,16.05,7.5
-793.45703,125.0,-633.30078,0.0831363154577971,-0.0366386497895657,0.0690138092823597,-17.4,26.7,13.65,-189.94141,-115.72266,1003.41797,-0.0319754790940873,-0.0085268060606182,0.0472970264656447,74.4,-3.45,88.8,-963.86719,28.32031,341.79687,-0.0081271256619115,-0.0093261668580317,0.0417013263508257,59.25,16.05,7.5
-803.22266,129.88281,-610.35156,-0.0322419908708668,-0.0626187483701273,-0.051827028539196,-16.2,28.05,11.85,-196.28906,-96.19141,998.53516,0.0027979373238721,0.0254472495599277,0.0595542992694757,77.7,-3.45,88.8,-966.30859,33.69141,330.07812,-0.0620857248165682,0.0005328490206338,-0.0018652333716063,60.0,17.1,7.5
-809.08203,123.04688,-610.35156,-0.014522186574144,-0.0231821612566894,0.0227824808579827,-16.2,28.05,11.85,-176.75781,-104.98047,999.51172,0.0318423104721601,0.0175864611418704,0.0599539796681824,76.8,-2.55,87.6,-952.63672,35.15625,334.47266,-0.0798055291132911,0.0138559943986577,-0.0047963393174056,60.0,17.1,7.5
-807.61719,101.07422,-596.67969,-0.0365053066347134,-0.0572893854991626,0.0081271256619115,-18.0,26.25,13.2,-168.94531,-104.00391,1000.97656,-0.0215834396618626,-0.004529827540626,0.0734104682010586,76.8,-2.55,87.6,-955.56641,28.80859,347.16797,-0.0550244717288496,-0.0138559943986577,-0.0358392889921523,61.05,17.1,8.85
-803.71094,88.37891,-589.35547,-0.0791393369378048,-0.0231821612566894,-0.0367718184114929,-19.35,29.55,12.9,-177.24609,-103.51563,1003.90625,0.0151883787496302,-0.0119907610270514,0.0921959705390492,76.5,-3.3,88.65,-955.56641,42.96875,346.67969,-0.0694134896810664,-0.032908183046353,-0.0171867807431637,59.7,16.8,7.2
-797.85156,79.10156,-577.14844,-0.0638177895662474,-0.013456313999951,-0.0522267089379027,-16.2,28.5,12.45,-159.66797,-112.30469,995.60547,-0.0137228257767306,0.0314426300734534,0.0951270764848485,76.05,-1.8,87.15,-952.14844,25.39063,331.05469,-0.0778071271197576,0.0135896571548034,-0.0193185258915496,60.6,16.65,7.95
-791.01562,95.70313,-591.79687,-0.03064326927604,-0.0664823837352672,0.0085268060606182,-16.2,28.5,12.45,-166.01562,-122.55859,990.72266,0.0530260697353161,0.0516936853843436,0.1064518198693389,75.6,-3.15,87.75,-954.58984,39.55078,361.32812,-0.0955267568835552,0.0149218669728507,-0.0397029243572922,59.4,18.0,7.35
-809.08203,94.72656,-578.61328,-0.1084502218628724,0.0241148652089552,-0.0271791397766816,-17.4,27.45,12.0,-164.55078,-111.81641,986.81641,-0.0311761182966739,0.0205175670876697,0.0732771250462063,75.6,-3.15,87.75,-944.33594,26.85547,353.51562,-0.0627519169920545,0.0087933178373978,-0.013456313999951,59.4,16.95,9.45
-812.01172,90.82031,-579.10156,-0.0748760211739583,-0.0146553551960711,0.0700796818565527,-16.95,27.0,13.2,-164.55078,-133.78906,996.09375,-0.0546247913301429,0.0321086477160144,0.0704793622552594,76.5,-2.55,87.9,-934.57031,46.875,348.14453,-0.0748760211739583,0.0389035635598788,-0.0943277156874351,59.1,18.0,7.35
-812.98828,98.63281,-582.03125,-0.0433002224785777,-0.0034639549664331,0.0021317451483858,-17.1,28.65,11.25,-142.08984,-126.46484,992.1875,-0.014522186574144,0.0269126279999021,0.1072511806667523,76.2,-3.15,87.0,-937.01172,46.38672,344.72656,-0.1192419416938038,0.0426340303030914,-0.0631515973907612,59.1,18.0,7.35
-794.43359,96.67969,-580.56641,-0.0658161915597809,0.0235820161883213,-0.0405022851547056,-17.4,28.65,13.05,-169.43359,-138.18359,1008.78906,-0.0199847180670358,0.0182526533173567,0.1482863148420918,76.2,-3.45,86.25,-930.66406,20.50781,361.32812,-0.1361623851931132,0.0452986244721112,0.0017320647496791,59.4,16.65,7.35
-796.875,93.75,-583.49609,-0.0452986244721112,-0.016787100344457,0.0117244237831971,-17.4,28.65,13.05,-139.64844,-129.88281,983.88672,0.0086599746825454,0.0679479367081668,0.1420244225517865,75.9,-2.4,87.45,-931.64062,14.16016,373.04687,-0.1360290420382608,0.0334410320669869,-0.0442327518979182,59.1,16.65,7.65
-813.96484,93.75,-575.19531,-0.0350397536618137,0.0459648166475974,-0.0165205885676775,-17.25,28.5,13.95,-141.60156,-149.41406,990.72266,-0.0319754790940873,0.0373046674321268,0.0839356762552105,76.65,-2.4,88.05,-940.42969,26.85547,364.25781,-0.1350965126189202,-0.0182526533173567,-0.0307764378979672,59.1,16.65,7.65
-811.52344,87.40234,-575.19531,-0.0499617951675896,0.0672817445326806,-0.0550244717288496,-17.25,28.5,11.85,-138.18359,-136.23047,1008.30078,-0.0305099261211876,0.0069280844657914,0.1252373222073295,75.3,-3.0,88.35,-937.01172,0.0,365.72266,-0.1753322859968463,-0.0266462907560478,-0.0639509581881746,59.85,17.7,7.35
-807.12891,90.82031,-594.23828,-0.0033307863445059,0.0191853572696224,0.0321086477160144,-17.25,28.8,12.15,-151.85547,-145.99609,993.16406,-0.0042633157638465,0.0121241041819038,0.1402925323350325,75.3,-3.0,88.35,-938.47656,22.46094,371.58203,-0.1370949146124538,0.0097258472567384,-0.050761155965003,59.25,17.55,7.5
-811.52344,95.70313,-577.63672,0.0030642745677264,0.023448673033469,-0.0595542992694757,-17.25,28.8,12.15,-153.80859,-147.46094,1013.18359,-0.0125237845806105,0.0250473946282958,0.0927289940926083,75.9,-2.7,88.5,-932.61719,-1.95312,368.65234,-0.1444226794769519,-0.0584886012282079,-0.0275788201753884,59.85,17.7,6.9
-810.54687,90.82031,-574.70703,-0.0197182062902563,0.0600873228230347,-0.0611531953972277,-18.15,27.45,11.25,-147.94922,-153.80859,996.09375,-0.0101255276554451,0.0355727772153728,0.0706125308771865,75.6,-2.7,88.8,-932.61719,6.34766,357.91016,-0.1243047927879889,0.0563568560798221,-0.0912634411197086,59.7,17.1,6.45
-807.12891,104.98047,-577.14844,-0.029044373148288,0.0812710820861907,-0.093128674491315,-17.85,27.45,12.3,-149.41406,-146.48437,988.28125,-0.0003996803987067,0.0375711792089063,0.0835359958565038,77.4,-3.15,87.45,-944.82422,-1.46484,372.07031,-0.1173767083221974,-0.0054625314928918,-0.0532925815120956,59.7,17.1,6.45
-801.75781,97.65625,-574.70703,-0.0019984019935335,0.0277121633302407,0.0227824808579827,-18.75,28.8,11.85,-151.85547,-162.10937,1000.0,0.0422343499043847,0.0314426300734534,0.0722112524720134,76.5,-3.75,88.65,-942.87109,0.0,375.97656,-0.1509510835440367,-0.0143890179522168,-0.086467101802303,59.7,16.8,9.3
-773.4375,108.88672,-580.56641,-0.0381042027624654,0.0588882816269146,0.0279785005740951,-17.1,27.45,12.0,-153.32031,-160.15625,991.21094,0.0157212277702641,0.0210505906412288,0.0844685252758443,75.75,-3.0,87.6,-919.43359,-31.25,363.28125,-0.0916631215184153,-0.0369049870334201,-0.0462311538914518,59.7,16.8,9.3
-785.64453,100.58594,-582.51953,-0.0385038831611721,0.0675482563094601,-0.0586217698501351,-17.1,27.45,12.0,-153.80859,-154.29687,996.58203,0.0241148652089552,0.0374380105869791,0.0759418937481512,75.75,-3.0,87.9,-954.10156,-21.97266,372.55859,-0.0756753819713717,-0.0672817445326806,-0.0391699008037331,59.7,15.6,7.5
-771.97266,114.25781,-597.16797,-0.0386370517830992,0.0708790426539661,0.0215834396618626,-17.25,28.05,12.45,-158.20312,-156.25,1010.25391,-0.0049295079393327,0.0106585512090041,0.0531592383572432,75.75,-3.0,87.9,-947.75391,-32.22656,380.85937,-0.0963261176809686,-0.032375159492794,-0.0374380105869791,59.7,17.55,7.2
-794.92187,98.14453,-588.37891,-0.0097258472567384,0.0067947413109391,0.0314426300734534,-17.4,30.15,13.05,-170.41016,-165.52734,997.07031,0.0098591904115907,0.0235820161883213,0.0730107878023519,76.95,-2.4,87.0,-943.84766,-18.06641,373.53516,-0.0161209081689708,-0.075275701572665,-0.0007993607974134,60.0,17.1,8.85
-787.10937,96.19141,-588.37891,-0.0903307371674429,0.0522267089379027,0.0438330714992115,-17.1,28.95,12.0,-166.50391,-157.71484,999.02344,0.0177198042967228,0.0532925815120956,0.0726111074036452,75.3,-3.0,86.1,-958.49609,-2.44141,371.58203,-0.0631515973907612,-0.0782068075184643,-0.0333078634450597,60.6,17.4,8.7
-795.41016,93.26172,-605.46875,-0.0458314734927451,-0.0298437339457014,0.0377045223637587,-18.0,28.5,10.35,-163.08594,-143.55469,1000.48828,0.0006661921754862,0.0197182062902563,0.032908183046353,77.55,-2.25,86.1,-947.26562,-2.92969,382.32422,-0.0548913031069224,-0.0624854052152749,-0.039569755735365,60.6,17.4,8.7
-794.43359,89.35547,-618.16406,-0.0190520141147701,-0.0207840788644492,0.0283781809728018,-18.0,28.5,10.35,-168.45703,-148.92578,1000.48828,-0.0237151848102485,0.041301645952119,0.0619525561946411,77.55,-2.25,88.35,-946.77734,-5.37109,363.28125,-0.0662158719584876,-0.0261132672024887,-0.0500949637895168,61.8,16.8,7.8
-785.64453,90.33203,-615.23437,-0.0724777642487929,-0.0093261668580317,-0.0378376909856858,-17.4,28.65,13.35,-157.71484,-127.44141,994.62891,0.0277121633302407,0.0330413516682802,0.0483628990398376,77.55,-2.25,88.35,-952.63672,-2.92969,357.91016,-0.0720780838500862,-0.0462311538914518,-0.0889985273493956,61.8,16.8,7.8
-791.01562,93.75,-615.23437,0.0065284040670847,-0.0433002224785777,0.0743429976203992,-18.15,27.45,10.95,-173.33984,-154.29687,998.53516,-0.0283781809728018,0.0442327518979182,0.0554241521275563,75.15,-2.4,87.45,-967.77344,-1.46484,375.97656,-0.0599539796681824,-0.040235773377926,-0.0041301471419193,59.4,17.7,7.65
-792.96875,80.07813,-603.51562,0.0037304667432126,-0.0335742006889141,0.0578224090527217,-17.55,27.0,12.45,-179.19922,-151.36719,1002.92969,-0.0219831200605693,0.03064326927604,0.0450321126953316,75.9,-3.45,87.45,-963.86719,-9.27734,376.95312,-0.0389035635598788,-0.0466310088230837,-0.0417013263508257,60.0,14.85,8.25
-787.10937,93.75,-611.81641,-0.0391699008037331,0.007860613885132,-0.0294440535469947,-17.55,27.0,12.45,-167.96875,-154.29687,993.65234,-0.0434333911005048,0.0258469299586344,0.0053291883380394,76.65,-3.15,87.75,-951.17187,-5.85937,384.27734,-0.0608866836204481,-0.0579555776746489,-0.0463644970463041,61.2,16.65,9.0
-779.29687,89.84375,-598.14453,0.0246477142295891,-0.0194516945134768,0.0349065850398865,-16.95,28.5,12.15,-166.01562,-145.01953,999.51172,0.0011990411961201,0.0250473946282958,0.0155880591483369,75.9,-1.65,87.45,-960.44922,17.57813,367.1875,-0.0482297304179105,-0.0341072242424731,-0.0005328490206338,60.0,16.8,7.5
-788.08594,90.33203,-592.77344,0.011191400229638,-0.0102588708102974,0.0122572728038309,-17.1,29.4,12.0,-174.31641,-147.94922,997.07031,-0.013456313999951,0.0015987215948268,0.0017320647496791,76.65,-1.95,88.8,-947.75391,23.4375,355.46875,-0.0720780838500862,-0.0407687969314851,-0.041301645952119,60.9,16.2,8.4
-785.15625,112.79297,-592.77344,-0.0369049870334201,-0.0098591904115907,-0.0137228257767306,-17.85,28.95,12.0,-162.59766,-146.97266,988.76953,0.0026645941690197,-0.0087933178373978,0.0527595579585365,75.9,-1.95,87.45,-949.70703,13.67187,360.35156,-0.1093829258151382,-0.0751423584178126,-0.0193185258915496,60.0,16.35,7.8
-788.08594,85.44922,-596.19141,0.0238483534321757,-0.0277121633302407,0.0035972981212855,-16.95,29.55,13.2,-156.73828,-134.27734,1006.83594,-0.0034639549664331,-0.0130566336012443,0.0642174699649541,75.9,-1.95,87.45,-941.40625,19.04297,366.21094,-0.1111148160318922,-0.0431668793237253,-0.0243813769857347,60.0,16.35,7.8
-785.15625,82.51953,-591.79687,0.0447657754514773,-0.0654165111610742,0.0503614755662963,-16.95,29.55,13.2,-171.38672,-153.32031,997.07031,-0.0034639549664331,-0.0631515973907612,0.067015232755901,77.85,-3.0,88.65,-939.94141,14.16016,364.25781,-0.0619525561946411,-0.0195850376683291,-0.0231821612566894,58.95,16.35,6.75
-797.85156,94.23828,-602.53906,-0.0536922619108023,-0.0113245688515652,-0.0274456515534612,-16.95,29.55,13.2,-163.57422,-147.46094,978.02734,0.0102588708102974,-0.0369049870334201,0.0133231453780239,77.1,-2.55,87.6,-964.35547,8.78906,380.85937,-0.0771409349442713,-0.034640073263107,-0.0147886983509235,58.95,16.35,6.75
-804.19922,93.26172,-608.88672,-0.0009327039522657,-0.0750091897958855,0.0002665117767795,-16.35,28.65,12.0,-145.50781,-133.78906,993.16406,0.037970859607613,-0.0712787230526728,0.0698131700797731,75.3,-1.5,87.6,-949.21875,16.11328,366.21094,-0.1203078142679967,-0.0726111074036452,0.0262466103573411,58.95,16.35,6.75
-803.71094,93.75,-596.67969,0.0170536121212365,-0.027312482931534,0.0118575924051242,-17.1,28.65,13.05,-160.64453,-132.8125,1012.20703,0.0211837592631559,-0.0562235129249697,0.041834669505678,76.2,-2.7,88.05,-952.63672,3.41797,354.00391,-0.0971256530113072,-0.0836691644784309,-0.0125237845806105,60.3,16.35,8.55
-801.26953,84.96094,-602.53906,-0.020117886688963,-0.0353062654385932,-0.0095926786348112,-17.25,27.3,13.5,-166.01562,-134.76562,998.04687,0.0026645941690197,-0.040235773377926,0.0812710820861907,75.9,-1.2,87.45,-936.52344,10.25391,354.98047,-0.1457548892949992,-0.0762082309920056,-0.0173201238980161,59.85,15.9,8.4
-794.92187,91.30859,-592.28516,-0.0013323843509724,-0.0303767574992605,-0.0158545709251164,-17.25,27.3,13.5,-177.24609,-130.85937,1007.32422,0.0450321126953316,-0.1243047927879889,0.0734104682010586,77.1,-1.5,87.9,-941.40625,22.94922,372.55859,-0.1299004929028079,-0.1032542021467601,-0.0271791397766816,59.85,15.9,7.95
-805.17578,91.30859,-591.79687,0.0117244237831971,-0.0434333911005048,-0.0046631706954784,-16.5,27.3,11.85,-148.92578,-143.06641,995.60547,-0.0343737360192527,-0.0959264372822619,0.0980581824306478,77.1,-1.5,87.9,-953.125,16.11328,369.62891,-0.1682710329091277,-0.0326416712695735,0.0175864611418704,59.85,17.7,7.95
-807.12891,83.00781,-589.35547,-0.0339738810876208,-0.0027979373238721,-0.0115910806283447,-17.4,27.45,12.3,-171.875,-143.06641,986.32812,-0.0213169278850831,-0.1025880099712739,0.075275701572665,76.5,-1.5,87.9,-949.21875,21.97266,395.99609,-0.172401180051047,-0.1031210335248329,-0.0419678381276052,59.85,17.7,7.95
-798.82812,91.79688,-596.19141,-0.0038636353651398,-0.0326416712695735,0.0475635382424242,-16.5,28.05,13.2,-162.59766,-145.01953,975.58594,-0.0094593354799588,-0.1204409828899239,0.1425574461053456,76.95,-3.15,87.75,-941.89453,32.22656,398.92578,-0.2038438101245005,-0.0672817445326806,0.0023980823922402,59.85,15.9,9.0
-816.89453,97.16797,-582.03125,-0.0113245688515652,-0.0515605167624164,0.0490290912153239,-17.85,27.15,13.35,-159.17969,-140.625,976.5625,-0.0095926786348112,-0.0595542992694757,0.0716784034513795,75.75,-2.55,87.6,-942.87109,21.48438,389.64844,-0.2872466373590772,-0.0037304667432126,0.0294440535469947,59.85,15.9,9.0
-809.08203,107.42188,-586.42578,-0.0114579120064175,-0.0198513749121835,0.0230489926347623,-17.85,27.15,13.35,-144.53125,-118.16406,1014.64844,0.016787100344457,-0.0973919902551615,0.0940612039106556,75.75,-2.55,87.6,-961.91406,17.57813,386.23047,-0.3422711090879268,-0.1093829258151382,-0.0019984019935335,60.15,16.65,9.45
-810.05859,93.26172,-575.68359,-0.0115910806283447,0.0050628510941851,0.0343737360192527,-18.9,28.2,12.0,-141.11328,-88.86719,1005.37109,-0.0127901218244648,-0.1009892883764471,0.1140459219776914,76.5,-2.25,88.65,-935.54687,17.08984,391.60156,-0.377044350972961,-0.1113813278086717,-0.0209172474863764,59.85,16.2,7.35
-819.33594,111.81641,-566.89453,-0.0179861415405771,-0.0538254305327295,0.0149218669728507,-17.55,28.8,12.15,-127.44141,-84.47266,1021.97266,-0.0185191650941362,-0.1245711300318432,0.0880658233971298,76.95,-1.65,88.8,-911.62109,0.0,384.27734,-0.3754456293781342,-0.0333078634450597,0.0430337107017981,60.6,17.4,9.45
-800.29297,112.79297,-562.01172,-0.0271791397766816,-0.0269126279999021,-0.0135896571548034,-16.5,27.75,12.45,-142.08984,-106.93359,1037.59766,-0.1159111553492978,-0.0492956029921034,0.1450888716524382,77.55,-1.8,87.9,-949.21875,-20.50781,387.69531,-0.4006263671612824,0.005595700114819,0.0118575924051242,60.0,16.35,8.85
-805.17578,124.51172,-555.66406,-0.0390367321818059,-0.0126569532025376,-0.0251807377831481,-16.2,28.05,12.45,-131.34766,-91.79688,1037.10938,-0.1390934911389125,-0.1225727280383097,0.1348300008421407,75.6,-2.7,88.5,-932.12891,-24.41406,410.15625,-0.3623889957768898,-0.0936615235119489,-0.0213169278850831,59.85,16.65,9.0
-801.75781,133.30078,-545.89844,-0.0054625314928918,-0.0486294108166172,-0.0165205885676775,-16.2,28.05,12.45,-127.92969,-123.04688,1015.13672,-0.1561469287272238,-0.1684043760639801,0.1865236862264844,75.6,-1.95,89.1,-895.99609,-40.03906,415.52734,-0.3188224360544577,-0.0385038831611721,0.0798055291132911,59.7,17.1,8.85
-789.55078,119.14063,-549.80469,-0.0606201718436686,0.0001331686219271,-0.0153215473715574,-16.8,27.45,13.35,-111.32813,-151.36719,986.81641,-0.1380276185647195,-0.1566799522807829,0.170136266280734,75.15,-1.95,87.45,-900.39062,-32.22656,397.46094,-0.267661599690748,-0.0003996803987067,-0.0259800985805615,59.7,17.1,8.85
-777.83203,105.95703,-550.29297,-0.0746095093971788,0.0042633157638465,-0.0391699008037331,-16.2,28.8,11.4,-117.1875,-172.85156,982.91016,-0.1594777150717298,-0.1031210335248329,0.2021117453748213,75.15,-1.95,87.45,-906.25,-26.36719,413.08594,-0.2278255067115286,0.05475795995207,0.0527595579585365,61.65,17.4,8.4
-798.82812,92.77344,-583.00781,0.0071944217096458,-0.0218499514386422,0.0230489926347623,-16.8,28.2,13.05,-139.16016,-203.125,981.44531,-0.1408253813556664,-0.0590214502488418,0.1120475199841579,75.9,-1.65,87.75,-923.82812,-37.10938,411.62109,-0.225294081164436,0.063684446411395,0.0203843984657425,61.65,17.4,8.4
-808.59375,90.82031,-566.89453,-0.0125237845806105,0.0342403928644003,-0.0643506385868813,-16.8,28.2,13.05,-130.85937,-192.87109,992.67578,-0.0796723604913639,-0.0173201238980161,0.0999234158022541,76.5,-1.8,88.35,-915.52734,-34.66797,383.30078,-0.2151683789760657,0.0371714988101996,0.0579555776746489,59.7,17.1,9.6
-812.98828,83.49609,-587.89062,-0.0295773967018471,0.011191400229638,-0.0905972489442224,-16.35,29.4,12.6,-156.25,-189.45312,967.77344,-0.0584886012282079,-0.0303767574992605,0.0993905667816202,75.3,-1.8,89.4,-945.80078,-27.83203,377.44141,-0.215301722130918,-0.0034639549664331,-0.0127901218244648,61.35,17.85,8.55
-773.4375,92.77344,-597.65625,0.0155880591483369,0.0241148652089552,-0.0766079113907123,-16.95,28.8,11.85,-153.80859,-181.15234,972.65625,-0.041301645952119,0.0141225061754373,0.0527595579585365,75.75,-1.5,88.65,-938.96484,-24.90234,399.90234,-0.2264931223605561,0.0305099261211876,-0.004529827540626,60.0,16.05,8.85
-771.48437,97.65625,-600.58594,0.0114579120064175,0.0674150876875329,-0.0640843013430269,-17.25,28.05,12.9,-163.57422,-136.23047,991.21094,0.0626187483701273,0.0238483534321757,0.0550244717288496,75.0,-1.8,89.7,-947.26562,-0.48828,416.99219,-0.1855911568071438,-0.0047963393174056,0.0091929982361045,61.05,17.55,9.9
-766.60156,113.76953,-589.84375,-0.0118575924051242,0.0562235129249697,-0.0783399761403914,-17.25,28.05,11.85,-163.57422,-118.16406,1040.52734,0.018385996472209,0.0907304175661496,0.0317089673173077,76.05,-1.8,88.95,-940.91797,-28.32031,400.87891,-0.1677381838884938,-0.0571562168772355,-0.0058622118915985,61.05,17.55,9.9
-782.71484,95.21484,-580.07812,0.0543582795533633,0.0430337107017981,-0.0361056262360067,-17.25,28.05,11.85,-158.69141,-121.58203,1055.17578,0.0586217698501351,0.0026645941690197,0.0198513749121835,76.05,-1.8,88.95,-956.54297,-28.32031,399.90234,-0.0955267568835552,-0.0532925815120956,-0.0035972981212855,60.15,16.95,9.45
-775.39062,111.81641,-586.91406,-0.0492956029921034,0.032375159492794,-0.0446324322966249,-17.55,28.05,12.15,-132.32422,-112.79297,1041.99219,0.0015987215948268,-0.0567565364785288,0.0381042027624654,76.05,-1.8,88.95,-948.24219,-16.11328,398.92578,-0.0929953313364626,-0.0175864611418704,0.0230489926347623,60.15,16.95,9.45
-777.34375,109.86328,-595.70312,-0.0582220894514284,0.06634921511334,-0.0640843013430269,-16.95,28.8,11.4,-140.625,-96.19141,1022.94922,-0.0066615726890119,-0.0423675185263119,0.0398360929792193,74.85,-1.2,88.5,-930.66406,-20.99609,402.83203,-0.071944915228159,0.0307764378979672,0.0357059458372999,60.15,16.95,9.45
-786.62109,105.95703,-590.33203,-0.0425006871482391,0.0051960197161123,-0.0506278128101507,-17.4,28.65,12.3,-145.99609,-137.69531,1009.76562,0.0206509102425221,-0.0896645449919567,0.0401026047559989,75.6,-2.4,88.5,-943.84766,-24.90234,408.20312,-0.0536922619108023,-0.0085268060606182,-0.0197182062902563,60.75,16.8,8.85
-788.08594,101.07422,-588.37891,-0.0726111074036452,-0.0411684773301918,0.0089264864593249,-16.5,28.5,12.45,-123.04688,-132.8125,1005.37109,0.0283781809728018,-0.0559571756811154,0.0261132672024887,76.05,-3.3,87.15,-917.48047,-14.16016,409.17969,-0.0560903443030425,-0.0098591904115907,0.0692803210591393,61.05,17.55,8.25
-797.36328,104.49219,-583.00781,-0.1346968322202135,-0.0113245688515652,-0.0169204434993094,-16.5,28.5,12.45,-132.8125,-127.92969,997.07031,0.0728774446474996,-0.0520933657830503,0.0287778613715085,76.05,-3.3,87.15,-907.71484,-5.37109,413.08594,-0.0269126279999021,-0.0326416712695735,-0.0241148652089552,60.9,18.45,7.95
-786.62109,82.03125,-581.54297,-0.080871401687484,-0.0684807857288007,-0.0115910806283447,-16.95,28.05,13.95,-135.74219,-118.16406,1008.30078,0.0419678381276052,0.0143890179522168,0.0210505906412288,75.6,-0.45,88.5,-924.31641,3.41797,407.22656,-0.0496952833908101,-0.0714118916745999,-0.0097258472567384,61.35,15.6,9.9
-784.66797,82.03125,-586.91406,-0.0976585020319411,-0.0952604196397009,0.0568897051004559,-16.8,29.7,12.0,-138.18359,-133.78906,998.53516,0.0907304175661496,-0.0211837592631559,0.0592879620256213,74.85,-2.4,87.75,-900.39062,10.25391,394.04297,-0.0335742006889141,0.0049295079393327,-0.0366386497895657,60.15,17.4,10.05
-780.76172,87.89063,-583.49609,-0.1354961930176269,-0.0624854052152749,-0.0195850376683291,-16.35,28.2,12.3,-136.23047,-122.07031,996.58203,0.0443659205198454,-0.0626187483701273,0.0568897051004559,75.3,-1.05,88.35,-937.01172,28.80859,378.41797,-0.0743429976203992,-0.0181194846954295,-0.0125237845806105,62.1,17.55,9.9
-786.13281,104.98047,-588.86719,-0.0684807857288007,-0.1137794102009119,0.0965926294577481,-16.35,28.2,12.3,-130.85937,-95.70313,986.32812,0.0659495347146333,-0.0576890658978693,0.0662158719584876,76.5,-1.8,88.65,-880.85937,38.08594,392.08984,-0.0912634411197086,-0.0405022851547056,-0.0114579120064175,62.1,17.55,9.9
-799.80469,109.86328,-593.75,-0.0961929490590414,-0.0762082309920056,0.075275701572665,-16.5,28.05,12.45,-143.06641,-134.76562,980.95703,0.0544916227082157,-0.0500949637895168,0.1112481591867445,75.6,-1.65,88.8,-912.59766,36.62109,384.27734,-0.1023216727274195,0.043566559722432,0.0206509102425221,59.7,16.05,11.4
-794.43359,110.83984,-583.00781,-0.1035207139235396,-0.0542251109314362,0.0177198042967228,-16.95,28.05,12.9,-129.39453,-91.30859,1010.74219,0.0249142260063686,-0.0510274932088574,0.0806048899107045,76.05,-2.55,89.7,-930.17578,64.45313,391.11328,-0.1105819670112583,0.0189188454928429,-0.0490290912153239,59.7,16.05,11.4
-809.08203,124.02344,-583.98437,-0.1013889687751538,-0.0722112524720134,0.0602204914449619,-17.25,29.55,12.9,-147.46094,-73.73047,1002.44141,0.0704793622552594,-0.110981647409965,0.0584886012282079,76.05,-2.55,89.7,-924.80469,35.15625,384.76562,-0.1264363634034496,-0.0383705400063197,-0.0555574952824086,59.25,16.05,10.35
-797.85156,108.88672,-597.16797,-0.1133797298022052,-0.1004564393558132,0.1035207139235396,-17.55,29.25,12.9,-150.87891,-116.21094,1004.39453,0.0598208110462552,-0.0425006871482391,0.1049862668964393,74.4,-1.95,88.05,-931.64062,49.80469,382.8125,-0.15561407970659,0.0382373713843925,-0.0182526533173567,60.0,17.55,9.6
-807.61719,116.21094,-588.37891,-0.1604104190239956,-0.050761155965003,-0.0480965617959833,-17.55,29.25,12.45,-135.25391,-91.30859,946.28906,0.1867901980032639,0.0503614755662963,0.0723445956268657,75.3,-2.25,88.65,-942.87109,34.66797,377.44141,-0.1806614743348858,0.0099923590335179,-0.0546247913301429,60.0,16.35,9.9
-805.66406,133.30078,-568.35937,-0.1129800494034985,-0.0971256530113072,0.0398360929792193,-17.55,29.25,12.45,-141.60156,-90.33203,1002.92969,0.1568131209027101,0.1914533686987423,0.0856677410048896,74.4,-1.95,90.3,-941.89453,19.04297,361.32812,-0.1934517706922759,0.0322419908708668,-0.0187856768709157,60.0,17.1,8.85
-794.92187,144.04297,-560.05859,-0.1056524590719255,-0.0836691644784309,0.0474303696204971,-16.5,28.5,11.85,-134.27734,-83.49609,1067.87109,0.0522267089379027,0.0899310567687362,0.1512174207878911,74.25,-1.8,88.35,-958.98437,-6.34766,361.32812,-0.264330813346242,0.087532974376496,-0.0085268060606182,60.0,17.1,8.85
-777.83203,150.87891,-553.71094,-0.1749326055981396,-0.068614128883653,0.0130566336012443,-16.2,29.25,12.15,-155.27344,-84.47266,1033.20313,0.0298437339457014,-0.0734104682010586,0.1546815502872494,75.9,-1.95,88.05,-939.45312,-14.16016,338.37891,-0.2931086747177505,0.0269126279999021,-0.0007993607974134,60.75,16.8,10.65
-794.43359,136.23047,-571.77734,-0.1540153581117632,-0.0536922619108023,0.0002665117767795,-16.95,28.8,13.5,-136.23047,-119.14063,997.07031,0.0153215473715574,-0.1301670046795875,0.1558805914833695,75.3,-1.8,88.95,-931.64062,-46.875,339.35547,-0.2574027288804505,0.0411684773301918,-0.0161209081689708,60.75,16.8,10.65
-786.13281,141.60156,-588.37891,-0.1492190187943576,-0.0767412545455646,0.0206509102425221,-16.95,28.8,13.5,-158.69141,-138.67187,951.17187,-0.0229158240128351,-0.1111148160318922,0.1680045211323481,75.3,-1.8,88.95,-930.17578,-53.22266,353.02734,-0.2411484775566273,0.0983246942074273,-0.0333078634450597,60.6,18.0,9.75
-793.45703,144.53125,-605.95703,-0.1998468316045083,0.0089264864593249,-0.0534257501340228,-17.55,29.55,12.15,-175.78125,-145.50781,941.89453,-0.0161209081689708,-0.0037304667432126,0.1642740543891354,74.4,-1.95,88.05,-940.42969,-56.15234,349.12109,-0.2111715749889987,0.0042633157638465,0.041834669505678,61.65,18.0,10.05
-792.48047,136.23047,-615.23437,-0.1450888716524382,-0.069680001457846,-0.0071944217096458,-17.25,27.75,12.9,-170.41016,-148.4375,960.9375,0.0293108849250675,0.0977916706538682,0.1361623851931132,74.25,-1.8,87.9,-913.08594,-63.47656,318.35937,-0.1898544725709904,0.0887320155726161,0.0185191650941362,60.0,16.35,10.35
-804.6875,129.88281,-619.14062,-0.1101822866125516,-0.0189188454928429,0.0057288687367461,-17.25,28.5,12.9,-175.78125,-189.45312,992.1875,-0.0179861415405771,0.1965160452600023,0.0993905667816202,76.05,-1.8,88.65,-940.91797,-81.05469,343.75,-0.1091164140383586,0.0972588216332344,0.0030642745677264,61.2,18.0,9.75
-792.96875,135.25391,-617.1875,-0.1839922606793918,0.011191400229638,-0.0616860444178615,-16.35,28.65,13.65,-166.99219,-160.64453,1009.76562,0.0245145456076619,0.0925956509377559,0.0698131700797731,76.05,-1.8,88.65,-942.38281,-74.70703,345.70312,-0.0866002704242302,0.1231057515918688,-0.0595542992694757,59.85,17.4,9.0
-801.26953,125.97656,-605.95703,-0.1414915735311527,-0.0326416712695735,0.0099923590335179,-16.35,28.65,13.65,-186.52344,-168.45703,991.21094,0.0158545709251164,0.06634921511334,0.0832694840797242,76.2,-1.95,87.75,-931.15234,-80.07813,333.49609,-0.0732771250462063,0.131099534098928,-0.0047963393174056,60.3,17.55,9.6
-813.47656,141.60156,-600.58594,-0.1460214010717788,0.0335742006889141,0.0187856768709157,-18.0,29.85,13.2,-168.94531,-167.96875,992.67578,0.0355727772153728,0.0903307371674429,0.0510274932088574,76.2,-1.2,87.75,-955.56641,-76.66016,344.23828,-0.043566559722432,0.145621720673072,-0.0230489926347623,60.3,17.55,9.6
-796.38672,129.88281,-607.91016,-0.1669388230910804,0.0274456515534612,-0.0526263893366094,-17.1,28.95,12.0,-168.45703,-168.45703,987.79297,0.0535589187559499,0.1301670046795875,0.0394364125805126,75.3,-1.8,90.0,-960.44922,-87.89063,359.375,-0.0318423104721601,0.1573461444562691,-0.063018428768834,60.9,17.55,9.6
-794.92187,134.76562,-580.56641,-0.0992572236267679,-0.0043966589186989,-0.0093261668580317,-16.95,29.55,13.5,-155.27344,-164.55078,1000.97656,0.0217166082837898,0.079272505559732,0.037970859607613,75.6,-1.2,88.5,-971.19141,-80.07813,349.12109,0.0182526533173567,0.0790061683158777,-0.0440995832759911,60.9,18.45,8.7
-814.45312,141.11328,-595.70312,-0.0863337586474507,-0.0230489926347623,0.020117886688963,-17.25,31.05,13.5,-161.13281,-159.66797,983.88672,0.0550244717288496,0.107650861065459,0.0177198042967228,75.15,-1.65,87.75,-935.54687,-54.6875,360.83984,0.055823832526263,0.1341638086666545,-0.0377045223637587,60.9,18.45,8.7
-820.3125,138.67187,-598.14453,-0.1012558001532266,-0.0131899767560967,-0.0159877395470436,-17.25,31.05,13.5,-161.62109,-154.29687,993.16406,0.0690138092823597,0.0790061683158777,0.0149218669728507,75.9,-2.7,88.5,-971.19141,-58.59375,366.21094,0.0261132672024887,0.1508177403891844,-0.0622190679714206,60.75,17.55,9.6
-805.17578,142.57812,-600.09766,-0.0722112524720134,0.0409019655534123,-0.0698131700797731,-17.4,30.45,14.1,-166.01562,-152.34375,986.32812,0.0007993607974134,0.0253139064050753,0.011191400229638,75.9,-2.7,88.5,-941.89453,-62.01172,372.55859,0.0294440535469947,0.1593445464498027,-0.0243813769857347,60.3,18.3,10.65
-804.6875,135.74219,-600.09766,-0.0245145456076619,-0.0598208110462552,-0.0062618922903052,-16.8,29.7,13.35,-157.71484,-163.08594,987.79297,0.0033307863445059,0.0595542992694757,0.03064326927604,75.0,-1.05,88.35,-937.01172,-65.42969,342.28516,0.0189188454928429,0.1859908372058505,0.0119907610270514,61.05,17.55,8.55
-815.91797,137.69531,-595.70312,-0.0682144484849463,-0.0109248884528585,0.0003996803987067,-16.05,30.15,13.05,-164.55078,-174.31641,1011.71875,0.0650168307623675,0.0759418937481512,-0.0393032439585855,75.9,0.45,89.1,-936.03516,-63.47656,346.67969,0.0602204914449619,0.207441108245786,-0.0519601971611231,61.05,17.55,9.3
-803.22266,133.30078,-603.51562,-0.0281118437289474,-0.0081271256619115,-0.0125237845806105,-16.05,30.15,13.05,-174.31641,-160.15625,1001.95312,0.0074609334864253,0.0419678381276052,-0.0287778613715085,75.75,-2.25,87.9,-940.42969,-66.40625,364.25781,0.0768744231674918,0.1604104190239956,0.0265129476011954,61.05,17.55,9.3
-789.55078,128.90625,-599.12109,0.0,0.0106585512090041,0.0006661921754862,-17.85,30.45,12.6,-164.0625,-169.92187,976.5625,0.0466310088230837,0.0347734164179594,-0.06634921511334,75.9,-0.45,87.75,-940.42969,-65.91797,358.88672,0.1095160944370653,0.1023216727274195,0.0466310088230837,60.75,18.6,9.9
-783.69141,139.64844,-591.30859,-0.0199847180670358,0.0333078634450597,-0.0349065850398865,-16.95,29.55,12.45,-165.52734,-168.45703,983.39844,0.0487625794385443,0.0836691644784309,-0.0939280352887284,75.6,-1.2,88.5,-937.01172,-58.59375,367.1875,0.1361623851931132,0.1004564393558132,0.0169204434993094,60.75,18.6,9.9
-804.6875,143.55469,-597.16797,-0.0097258472567384,0.0398360929792193,-0.0463644970463041,-17.55,31.05,13.2,-168.94531,-174.80469,990.72266,0.0174532925199432,0.0913966097416358,-0.0932618431132422,74.7,-1.05,88.35,-961.42578,-58.10547,361.81641,0.1604104190239956,0.0421010067495324,0.0319754790940873,60.75,17.55,9.3
-806.64062,130.85937,-596.67969,0.0603538345998143,0.0042633157638465,0.0426340303030914,-15.9,28.8,11.85,-153.80859,-154.29687,997.07031,0.0600873228230347,0.091529778363563,-0.0955267568835552,74.7,-1.05,88.35,-932.61719,-58.59375,371.09375,0.1955835158406617,0.0720780838500862,0.0083936374386911,60.3,19.8,7.8
-819.33594,129.88281,-588.86719,0.0436999028772844,0.0406354537766327,-0.0628850856139816,-15.9,28.8,11.85,-157.22656,-157.22656,1013.18359,0.0409019655534123,0.0274456515534612,-0.0862005900255235,74.7,-1.05,88.35,-929.19922,-45.41016,376.46484,0.1497518678149914,0.0854012292281101,0.0311761182966739,60.9,15.9,9.45
-797.36328,130.85937,-594.23828,0.0828698036810175,0.0039969785199922,0.0058622118915985,-17.25,30.6,12.15,-149.90234,-166.99219,1011.71875,0.0724777642487929,0.0510274932088574,-0.1093829258151382,76.05,-1.5,88.35,-943.84766,-57.61719,373.04687,0.1831928998819784,0.0571562168772355,0.0274456515534612,60.3,19.05,7.8
-816.40625,127.92969,-570.3125,0.0843353566539172,-0.0723445956268657,0.0310429496747467,-17.85,28.2,13.35,-158.69141,-146.97266,987.79297,0.0662158719584876,0.0750091897958855,-0.1264363634034496,74.7,-2.25,87.6,-938.47656,-25.87891,384.27734,0.1981147668548291,0.0538254305327295,0.0611531953972277,60.75,16.8,8.25
-803.71094,107.42188,-580.07812,0.0334410320669869,0.0927289940926083,-0.059687642424328,-18.45,30.15,13.35,-152.34375,-146.97266,988.76953,0.0330413516682802,0.0748760211739583,-0.1453552088962925,76.5,-1.5,88.65,-938.47656,-20.99609,372.55859,0.1981147668548291,0.023448673033469,0.0472970264656447,60.9,17.7,7.95
-801.75781,117.1875,-563.96484,0.0847350370526239,0.0534257501340228,-0.0564900247017492,-16.8,29.4,12.0,-138.18359,-145.50781,997.55859,0.0281118437289474,0.0905972489442224,-0.1095160944370653,76.5,-1.5,88.65,-954.10156,-20.50781,384.27734,0.18625734898263,0.0159877395470436,0.0727442760255724,60.9,17.7,7.95
-793.94531,106.93359,-562.5,0.1269693869570086,-0.0530260697353161,-0.077007591789419,-16.8,29.4,12.0,-164.0625,-150.87891,1010.74219,0.0474303696204971,0.0615528757959344,-0.0957932686603347,75.9,-1.95,88.8,-949.21875,-14.64844,374.51172,0.2300904204818416,0.0488959225933967,0.0575558972759422,60.6,18.75,9.45
-782.71484,110.35156,-566.89453,0.060753514998521,-0.0005328490206338,-0.0285115241276541,-16.95,29.25,12.9,-146.48437,-136.23047,1000.97656,0.0387702204050264,0.0622190679714206,-0.1460214010717788,75.75,-1.5,88.65,-943.84766,-22.46094,379.88281,0.1954501726858094,-0.0023980823922402,0.0594211306475485,58.5,17.1,8.85
-795.89844,112.79297,-564.94141,0.0993905667816202,0.0070612530877186,-0.0317089673173077,-17.25,28.8,11.4,-144.53125,-119.14063,1014.16016,0.0754088701945922,0.0133231453780239,-0.1087167336396519,76.65,-1.2,88.05,-932.61719,-16.60156,378.90625,0.1938514510909826,0.0274456515534612,0.063684446411395,59.85,16.65,9.0
-791.50391,119.14063,-570.80078,0.1381607871866467,-0.0579555776746489,-0.0014655529728996,-16.8,28.65,12.3,-149.41406,-129.39453,995.60547,0.0472970264656447,-0.0141225061754373,-0.1641408857672083,76.5,-1.05,88.65,-937.98828,-19.53125,358.88672,0.2224961438405639,0.058088746296576,0.0790061683158777,60.3,16.35,8.25
-794.43359,113.28125,-586.91406,0.0687472975055802,-0.0194516945134768,-0.0610198522423753,-16.8,28.65,12.3,-150.87891,-123.53516,1005.85937,0.0544916227082157,-0.0059953805135257,-0.1608100994227023,75.75,-3.0,87.9,-939.94141,-12.69531,364.74609,0.1825268822394173,0.0006661921754862,0.0534257501340228,60.6,16.95,8.4
-809.08203,113.76953,-570.80078,0.045165455850184,0.0528927265804637,-0.0054625314928918,-17.85,29.4,14.1,-149.41406,-119.62891,999.51172,0.0594211306475485,0.0278453319521679,-0.1047197551196597,75.6,-1.95,87.0,-923.82812,-13.18359,377.92969,0.2619325564210766,0.0009327039522657,0.0452986244721112,61.35,16.8,8.25
-810.05859,107.91016,-578.125,0.0889985273493956,-0.0444992636746978,-0.0030642745677264,-17.25,29.55,12.15,-145.01953,-117.1875,988.28125,0.0349065850398865,0.0375711792089063,-0.1051194355183664,75.6,-1.95,87.0,-948.73047,-11.23047,365.72266,0.2402159481372867,0.0059953805135257,0.0241148652089552,61.35,16.8,8.25
-803.22266,88.86719,-575.19531,0.0166539317225298,-0.0382373713843925,-0.0382373713843925,-17.1,28.95,12.15,-149.41406,-131.83594,994.14062,0.0648836621404404,0.0583552580733556,-0.1361623851931132,74.4,-1.65,88.05,-939.45312,-20.50781,358.39844,0.2599341544275431,0.0166539317225298,0.0287778613715085,60.6,17.4,7.95
-794.92187,91.30859,-581.54297,0.0038636353651398,-0.0314426300734534,-0.063018428768834,-16.95,28.95,12.3,-158.69141,-113.76953,1011.23047,-0.0122572728038309,-0.0091929982361045,-0.1032542021467601,75.3,-3.0,87.6,-917.48047,-19.53125,380.85937,0.2371516735695603,0.045165455850184,0.0542251109314362,60.6,17.4,7.95
-797.85156,95.70313,-566.89453,0.0901975685455157,-0.0779402957416847,0.0456983048708179,-16.95,29.25,12.15,-162.10937,-137.69531,1028.32031,-0.0250473946282958,0.0163874199457503,-0.0939280352887284,75.0,-2.55,88.35,-944.82422,-19.04297,365.23437,0.2266262909824833,-0.0007993607974134,0.0186523337160634,60.6,17.4,7.95
-803.71094,92.28516,-576.66016,0.0767412545455646,0.0474303696204971,-0.0305099261211876,-16.95,29.25,12.15,-176.26953,-130.85937,994.62891,0.0354394340605204,0.0139893375535101,-0.110981647409965,75.0,-2.55,88.35,-949.70703,5.85937,361.32812,0.2635314525488286,-0.0143890179522168,0.0535589187559499,60.15,17.7,8.4
-802.24609,72.75391,-586.42578,0.0083936374386911,0.0099923590335179,-0.0127901218244648,-17.4,28.95,13.35,-160.64453,-124.02344,990.23437,0.0177198042967228,0.0552909835056291,-0.1354961930176269,76.05,-3.0,88.35,-949.21875,8.30078,388.18359,0.2629984289952695,-0.04849624219469,0.0327748398915007,59.25,17.55,7.8
-806.64062,102.05078,-595.70312,0.1092495826602858,-0.0406354537766327,0.032908183046353,-16.95,29.85,13.2,-174.31641,-103.02734,980.46875,0.0231821612566894,0.0299770771005538,-0.0750091897958855,75.15,-1.65,87.45,-932.12891,16.60156,374.51172,0.2559371759075509,-0.034640073263107,0.0560903443030425,60.15,16.95,8.4
-827.14844,104.98047,-584.96094,0.0672817445326806,-0.0431668793237253,0.0382373713843925,-15.3,28.65,12.6,-155.27344,-89.84375,976.07422,0.023448673033469,0.1215068554641168,-0.0851347174513306,75.15,-1.65,87.45,-961.42578,22.46094,358.39844,0.2210305908676643,-0.0261132672024887,0.0149218669728507,60.6,17.4,8.4
