IMU1_AccX,IMU1_AccY,IMU1_AccZ,IMU1_GyrX,IMU1_GyrY,IMU1_GyrZ,IMU1_MagX,IMU1_MagY,IMU1_MagZ,IMU2_AccX,IMU2_AccY,IMU2_AccZ,IMU2_GyrX,IMU2_GyrY,IMU2_GyrZ,IMU2_MagX,IMU2_MagY,IMU2_MagZ,IMU3_AccX,IMU3_AccY,IMU3_AccZ,IMU3_GyrX,IMU3_GyrY,IMU3_GyrZ,IMU3_MagX,IMU3_MagY,IMU3_MagZ
-965.33203,-14.16016,-410.64453,-0.0594211306475485,0.1153783063286639,0.0628850856139816,-5.1,26.7,15.15,495.60547,108.39844,903.32031,0.125503833984109,0.0417013263508257,-0.1685375446859072,45.6,7.35,98.85,-694.33594,-83.00781,801.26953,0.2498086267720979,-0.1544150385104699,-0.3126937123860797,53.85,23.1,38.4
-953.61328,-15.625,-394.53125,-0.027312482931534,0.0479632186411309,0.094860564708069,-5.25,27.3,16.05,505.37109,113.28125,920.41016,0.1061853080925594,-0.0051960197161123,-0.1322985752950481,47.1,5.7,98.1,-672.85156,-57.12891,824.70703,0.3392066599872751,-0.1536156777130565,-0.3806416490942464,54.9,19.8,37.05
-947.75391,-4.88281,-377.92969,0.0186523337160634,0.0301102457224809,0.1144456023763981,-4.65,26.7,16.5,498.53516,95.21484,843.26172,0.0530260697353161,0.0357059458372999,-0.1704027780575135,47.1,5.7,98.1,-666.99219,-40.52734,812.01172,0.3718483312568487,-0.0651499993842947,-0.350264891594986,54.45,21.0,37.2
-932.12891,0.97656,-360.35156,-0.0848683802074762,0.0867336135790826,0.0832694840797242,-5.7,26.7,16.2,511.23047,93.26172,862.79297,0.1700030976588069,0.0250473946282958,-0.1573461444562691,46.35,7.35,99.45,-684.08203,-31.73828,792.96875,0.3791760961213469,-0.0839356762552105,-0.3310797088582887,55.5,21.0,38.25
-919.43359,-5.37109,-354.00391,-0.0245145456076619,0.0515605167624164,0.0988575432280612,-5.55,26.25,15.6,499.02344,63.96484,864.25781,0.1012558001532266,0.0718115720733066,-0.1653399269633284,45.45,6.3,98.25,-651.36719,-64.45313,796.875,0.3551943995343188,-0.182393539084565,-0.367051991939443,54.45,21.0,37.2
-918.94531,8.78906,-354.49219,-0.0446324322966249,0.0433002224785777,0.0231821612566894,-5.55,26.55,15.6,480.46875,110.35156,891.11328,0.164540566165915,0.0154548905264097,-0.1576124817001235,45.15,6.6,97.35,-633.30078,-17.08984,741.69922,0.3952971788232429,-0.0876661429984231,-0.3277489225137827,55.8,21.45,37.95
-916.50391,13.67187,-363.76953,-0.0815375938629702,0.0848683802074762,0.0393032439585855,-6.45,27.9,17.25,452.63672,100.09766,851.5625,0.1681378642872005,0.0511608363637097,-0.2434133913269403,46.2,7.5,97.2,-636.23047,-37.10938,762.20703,0.3478668092027458,-0.1402925323350325,-0.3694502488646085,54.6,21.15,38.4
-918.94531,5.37109,-370.60547,-0.063684446411395,0.0459648166475974,0.1061853080925594,-5.25,26.55,16.35,459.96094,104.49219,845.21484,0.1281684281531288,-0.0095926786348112,-0.143356806902759,46.65,7.65,96.6,-631.34766,-73.73047,806.15234,0.3754456293781342,-0.2282251871102353,-0.4307366128837634,54.6,21.15,38.4
-946.28906,17.57813,-373.04687,-0.0820704428836041,0.0603538345998143,0.1077840296873862,-5.4,26.7,16.5,466.79687,117.67578,883.30078,0.1156446435725182,0.007860613885132,-0.1280352595312016,45.45,6.75,97.95,-646.48437,-83.49609,818.35937,0.330680028459582,-0.1557472483285172,-0.4564501996875454,54.6,21.15,38.4
-930.66406,6.34766,-359.86328,-0.1216401986189692,0.1211071750654101,0.1008561197545199,-5.4,26.7,16.5,483.39844,127.92969,907.22656,0.0748760211739583,-0.0301102457224809,-0.1893216235503565,45.45,6.75,97.95,-658.69141,-49.80469,795.89844,0.3705161214388014,-0.1533491659362769,-0.4058223868773947,54.9,19.35,37.35
-902.34375,18.06641,-370.60547,-0.1360290420382608,0.1239051123892822,0.0868667822010097,-4.35,27.45,16.2,500.97656,123.53516,926.26953,-0.0162542513238231,-0.0776737839649052,-0.1542816953556175,45.45,6.75,97.95,-669.43359,-35.15625,802.73437,0.4130168085870405,-0.1538820149569108,-0.3733138842297483,54.9,19.35,37.35
-896.97266,21.48438,-385.25391,-0.0602204914449619,0.0981913510525749,0.1358958734163337,-4.65,27.9,15.75,475.09766,104.98047,947.75391,-0.0389035635598788,-0.1072511806667523,-0.200246512003215,45.9,6.15,98.4,-674.31641,-77.63672,757.8125,0.4480565622488542,-0.1052526041402936,-0.3534625093175648,55.2,19.95,37.5
-893.06641,6.34766,-401.36719,-0.1191087730718766,0.1584120170304621,0.0695466583029936,-6.0,27.0,15.6,489.25781,104.00391,931.15234,-0.0185191650941362,-0.1702694349026612,-0.1677381838884938,46.65,6.9,99.9,-667.48047,-63.47656,777.34375,0.4107518948167274,-0.046897346066938,-0.3064318200957744,55.5,21.0,37.95
-904.78516,10.25391,-401.85547,-0.0979250138087206,0.2049096826986934,0.0839356762552105,-5.55,27.3,15.6,418.94531,81.05469,940.42969,-0.045165455850184,-0.22702597138119,-0.143356806902759,46.65,6.9,99.9,-679.19922,-63.96484,796.875,0.419944893052832,-0.0373046674321268,-0.2631317721501219,54.3,19.35,37.35
-896.97266,13.67187,-423.82812,-0.0426340303030914,0.1441561677001724,0.1434899755246862,-6.3,28.5,16.05,488.76953,123.04688,950.19531,-0.0714118916745999,-0.1933186020703487,-0.1641408857672083,46.65,6.9,99.9,-696.28906,-78.61328,764.16016,0.4425942052888876,0.020117886688963,-0.3150917947783199,54.0,19.95,37.5
-898.4375,9.76562,-446.77734,-0.039569755735365,0.1743997565775057,0.0542251109314362,-6.15,26.4,16.5,487.79297,78.61328,884.27734,-0.0350397536618137,-0.1825268822394173,-0.1388269793621329,44.85,9.15,99.15,-684.57031,-66.40625,801.26953,0.4003598553845028,-0.0341072242424731,-0.2334212068263476,54.75,20.7,36.9
-917.96875,26.36719,-469.23828,-0.0676814249313873,0.1564134405040034,0.0692803210591393,-6.6,28.5,14.55,445.80078,75.68359,932.12891,-0.0255804181818548,-0.2294242283063554,-0.1509510835440367,46.35,8.4,98.85,-728.51562,-59.08203,799.80469,0.3802419686955398,-0.0500949637895168,-0.1930520902935692,55.5,19.5,38.55
-936.03516,34.17969,-459.96094,-0.0057288687367461,0.0985910314512816,0.1152449631738115,-7.2,28.95,15.75,458.49609,54.19922,930.17578,-0.1217733672408963,-0.1594777150717298,-0.1085833904847996,46.35,8.4,98.85,-701.17187,-20.50781,789.55078,0.4549846467146458,-0.0161209081689708,-0.164540566165915,55.5,19.5,38.55
-933.59375,43.94531,-457.03125,-0.005595700114819,0.1728008604497538,0.0090596550812521,-7.2,28.95,15.75,483.39844,58.59375,996.58203,-0.1064518198693389,-0.1885222627529431,-0.1537488463349836,46.2,8.25,97.2,-717.28516,-37.59766,800.78125,0.3942313062490499,-0.0564900247017492,-0.1225727280383097,55.35,19.8,39.15
-925.29297,39.0625,-463.37891,-0.0106585512090041,0.1015221373970809,0.0455651362488907,-6.9,27.45,16.8,466.79687,54.19922,963.37891,-0.1406922127337393,-0.1368284028356742,-0.1518836129633773,45.45,7.8,98.55,-700.19531,23.4375,807.12891,0.3920995611006641,-0.0726111074036452,-0.1064518198693389,55.65,20.1,38.4
-930.66406,38.57422,-469.72656,0.0174532925199432,0.0710122112758932,0.0298437339457014,-6.15,27.45,15.45,455.56641,64.94141,939.94141,-0.1537488463349836,-0.1644073975439878,-0.1977150864561224,45.15,5.7,97.65,-719.72656,28.32031,781.25,0.3975620925935559,-0.1237717692344298,-0.0603538345998143,54.0,21.45,37.5
-916.01562,16.60156,-468.26172,-0.0153215473715574,0.0715452348294523,-0.0374380105869791,-6.15,27.9,15.75,461.42578,89.35547,887.69531,-0.1549478875311037,-0.1705359466794407,-0.1963828766380752,45.15,5.7,97.65,-699.70703,94.72656,785.64453,0.291110272724217,-0.0783399761403914,-0.0799386977352182,55.65,19.35,37.05
-926.26953,13.67187,-452.14844,-0.0081271256619115,0.1093829258151382,-0.0852680606061829,-7.5,26.1,15.15,480.95703,74.21875,922.36328,-0.1931852589154963,-0.1530826541594974,-0.1923858981180829,45.15,8.1,99.15,-668.94531,23.92578,788.57422,0.3248178165679835,-0.073676805444913,-0.0422343499043847,56.25,19.2,37.95
-928.22266,19.53125,-440.42969,0.0764747427687851,0.0339738810876208,0.0381042027624654,-6.9,28.65,15.75,494.14062,86.91406,901.85547,-0.1717349878755608,-0.2061087238948135,-0.1763981585710393,44.55,6.6,99.15,-644.53125,47.85156,798.82812,0.2591347936301297,0.0041301471419193,-0.0399694361340717,55.8,20.25,39.3
-946.28906,5.85937,-420.89844,0.0740764858436197,0.0714118916745999,-0.069680001457846,-5.7,27.15,15.75,505.37109,97.65625,895.01953,-0.192918921671642,-0.1959831962393684,-0.1312327027208552,44.85,6.15,98.1,-621.58203,53.22266,823.24219,0.2287580361308692,0.0301102457224809,0.0018652333716063,55.8,20.25,39.3
-963.86719,-11.71875,-401.85547,0.1276355791324949,-0.0005328490206338,-0.0716784034513795,-6.15,27.15,16.2,541.99219,106.44531,868.65234,-0.1658729505168874,-0.1761316467942597,-0.1099157748357721,45.15,6.9,99.15,-566.40625,26.36719,814.45312,0.2824502980416715,0.0542251109314362,0.0054625314928918,55.35,20.1,39.15
-943.35937,-23.92578,-385.25391,0.1781302233207184,-0.0873996312216436,-0.0154548905264097,-6.6,28.05,15.3,541.99219,100.09766,833.00781,-0.1265697065583019,-0.1573461444562691,-0.0856677410048896,46.35,6.15,98.4,-563.47656,35.15625,837.89062,0.2352864401979539,0.1560137601052967,0.0062618922903052,55.35,20.1,39.15
-929.19922,-31.25,-371.58203,0.1973154060574157,-0.0066615726890119,-0.0883323351739094,-6.6,28.05,15.3,576.66016,126.95313,845.21484,-0.0682144484849463,-0.0127901218244648,-0.0730107878023519,45.0,6.3,96.9,-558.10547,60.54688,818.35937,0.3004364395822487,0.192918921671642,-0.0383705400063197,55.65,20.1,37.35
-918.94531,-2.44141,-375.97656,0.2226293124624911,-0.0588882816269146,-0.1056524590719255,-6.0,27.75,15.6,567.87109,116.21094,852.05078,-0.0289112045263608,-0.0662158719584876,-0.1009892883764471,45.0,6.3,96.9,-545.41016,16.60156,795.89844,0.2548713033333579,0.2745895096236143,0.0010658725741929,55.8,18.45,37.5
-930.66406,0.97656,-378.90625,0.2371516735695603,-0.1065849884912661,-0.1557472483285172,-5.55,28.05,15.6,568.35937,121.09375,825.68359,0.0153215473715574,-0.0039969785199922,-0.0572893854991626,44.1,6.6,98.1,-567.38281,45.89844,787.10937,0.3154916497099517,0.2641974701913896,-0.0393032439585855,55.35,19.05,38.1
-944.82422,1.46484,-392.08984,0.208107125888347,-0.0631515973907612,-0.1039203943222463,-5.7,27.9,15.45,527.34375,132.32422,830.56641,-0.0274456515534612,0.0350397536618137,-0.0816707624848974,43.95,4.05,99.3,-586.42578,61.52344,754.39453,0.2602006662043226,0.2376845225901941,-0.0271791397766816,55.8,19.95,37.5
-916.01562,-6.34766,-384.76562,0.1758653095504054,-0.0850015488294034,-0.1562802718820762,-5.7,27.9,15.45,497.07031,128.90625,826.66016,-0.0155880591483369,0.0706125308771865,-0.0249142260063686,45.0,7.5,99.3,-622.55859,52.24609,744.62891,0.2347534166443949,0.1821270273077855,-0.0175864611418704,55.8,19.95,37.5
-903.80859,3.90625,-392.08984,0.1819938586858583,-0.1140459219776914,-0.1168438593015635,-7.05,27.75,15.3,487.79297,132.8125,833.00781,-0.0619525561946411,0.0728774446474996,-0.023448673033469,45.6,4.95,98.85,-632.32422,79.58984,732.91016,0.2094395102393195,0.1112481591867445,0.0050628510941851,54.45,20.7,37.2
-904.78516,2.44141,-390.625,0.1241714496331365,-0.0307764378979672,-0.1708024584562202,-5.4,25.65,14.1,459.47266,105.46875,850.09766,-0.0523598775598298,0.0988575432280612,-0.0452986244721112,44.55,6.6,98.85,-660.15625,24.90234,751.95312,0.1761316467942597,0.0532925815120956,0.0676814249313873,55.35,19.8,36.6
-903.32031,-17.57813,-405.27344,0.0623522365933478,-0.0281118437289474,-0.1080505414641657,-5.55,27.0,17.1,473.14453,88.86719,872.55859,0.0014655529728996,0.1071178375118999,-0.0394364125805126,44.7,6.3,99.3,-659.66797,35.15625,766.11328,0.1332312792473139,0.0341072242424731,0.0391699008037331,55.35,19.8,36.6
-911.62109,-35.15625,-376.46484,0.10205516095064,-0.0455651362488907,-0.0249142260063686,-5.55,27.3,14.55,457.51953,111.32813,903.32031,0.0062618922903052,0.0788728251610253,-0.0311761182966739,44.7,6.3,99.3,-650.39062,39.55078,774.90234,0.1292343007273217,0.0186523337160634,0.1052526041402936,54.45,21.0,36.45
-911.62109,-35.15625,-379.39453,0.0562235129249697,0.0398360929792193,-0.1185757495183175,-5.55,27.3,14.55,458.49609,115.23438,884.27734,0.0566231933236764,0.0559571756811154,-0.0043966589186989,43.95,5.55,97.95,-637.20703,46.875,786.13281,0.1068515002680456,0.1849249646316576,0.0153215473715574,54.45,21.0,36.45
-903.32031,-18.06641,-363.76953,-0.0087933178373978,0.0430337107017981,-0.0337075438437664,-5.55,27.3,14.55,457.51953,110.35156,874.02344,-0.0033307863445059,0.0089264864593249,-0.0355727772153728,44.25,6.3,99.0,-669.92187,49.31641,743.16406,0.0952604196397009,0.1781302233207184,0.0191853572696224,56.4,20.85,36.6
-873.53516,-33.69141,-375.0,0.0394364125805126,0.0013323843509724,0.0255804181818548,-5.7,27.15,15.15,479.00391,99.12109,854.98047,0.0443659205198454,-0.0079939570399844,-0.0255804181818548,44.7,5.55,97.5,-665.52734,42.96875,712.40234,0.1003230962009608,0.1392266597608396,0.0776737839649052,54.3,21.9,37.35
-875.48828,-14.16016,-373.04687,0.0247810573844414,-0.0039969785199922,0.0366386497895657,-6.0,25.05,14.25,487.79297,117.67578,836.42578,0.0515605167624164,-0.0251807377831481,-0.0153215473715574,44.7,5.55,97.5,-657.71484,43.94531,741.69922,0.1152449631738115,0.0925956509377559,0.0991240550048407,55.8,21.45,36.15
-907.71484,-24.41406,-398.92578,-0.0301102457224809,0.0442327518979182,-0.0033307863445059,-5.7,26.7,14.1,494.62891,117.1875,837.89062,0.0927289940926083,0.0133231453780239,-0.0291777163031404,45.6,6.15,97.65,-648.4375,10.25391,729.49219,0.1328315988486072,0.1056524590719255,0.0353062654385932,55.65,19.35,35.25
-885.74219,-3.90625,-417.96875,0.018385996472209,0.0712787230526728,0.0217166082837898,-5.7,26.7,14.1,466.79687,122.55859,856.93359,0.1045865864977326,0.0688804661275074,-0.0448989440734045,45.45,4.05,97.5,-675.29297,11.71875,740.23437,0.1593445464498027,0.10205516095064,0.0314426300734534,55.65,19.35,35.25
-900.39062,7.8125,-440.91797,-0.0146553551960711,0.0755420388165193,0.1056524590719255,-6.0,25.8,15.3,462.89062,117.67578,876.46484,0.0936615235119489,0.050228132411444,-0.0779402957416847,45.45,4.05,97.5,-694.82422,-3.41797,702.63672,0.1320322380511938,0.0675482563094601,0.0170536121212365,56.25,21.45,35.85
-906.25,4.88281,-453.61328,-0.0700796818565527,0.1111148160318922,0.0520933657830503,-5.4,27.15,14.7,447.26562,123.04688,894.04297,0.0560903443030425,0.0976585020319411,-0.078606487917171,45.0,6.75,99.3,-669.43359,-18.06641,741.21094,0.1119141768293056,-0.0299770771005538,0.0105252080541518,56.25,21.45,35.85
-897.94922,4.88281,-470.70312,-0.0543582795533633,0.1244379614099161,0.0899310567687362,-4.65,26.7,15.75,444.33594,105.95703,914.55078,0.063684446411395,0.0854012292281101,-0.0426340303030914,45.0,6.3,97.5,-697.75391,-15.625,736.32812,0.1436233186795386,0.0118575924051242,-0.0343737360192527,56.25,21.0,35.4
-914.0625,11.23047,-484.86328,-0.0464976656682313,0.0386370517830992,0.0744763407752516,-5.4,27.9,14.4,435.05859,107.91016,923.33984,0.0190520141147701,0.0747426780191059,-0.0594211306475485,44.55,5.4,98.1,-725.09766,-19.04297,754.88281,0.132165406673121,0.0209172474863764,-0.0604870032217414,55.35,20.85,35.25
-928.71094,10.74219,-511.23047,-0.1460214010717788,0.0819372742616769,0.0333078634450597,-5.4,27.9,14.4,434.57031,74.70703,939.94141,0.0479632186411309,0.1071178375118999,-0.0730107878023519,44.55,5.4,98.1,-749.51172,-15.13672,751.95312,0.1654732701181807,-0.0519601971611231,-0.0325085026476463,56.25,21.75,36.15
-942.38281,0.48828,-517.08984,-0.0999234158022541,0.0351730968166661,0.0916631215184153,-6.15,26.1,14.7,419.43359,89.35547,948.73047,0.0452986244721112,0.1287014517066878,-0.0363721380127862,46.2,6.0,98.1,-748.04687,3.90625,748.53516,0.1300336615247351,-0.0237151848102485,-0.061419532641082,55.65,21.6,37.05
-958.98437,7.8125,-520.50781,-0.1217733672408963,-0.0047963393174056,0.1858576685839233,-4.95,27.3,15.6,409.66797,64.94141,976.5625,0.0411684773301918,0.0889985273493956,-0.0903307371674429,44.7,6.0,99.3,-746.09375,5.37109,765.13672,0.1728008604497538,0.0081271256619115,-0.0668820641339739,55.5,20.25,36.9
-944.33594,9.76562,-501.46484,-0.1408253813556664,0.022382800459276,0.1153783063286639,-6.0,26.55,15.6,413.08594,88.37891,965.82031,0.0162542513238231,0.0766079113907123,-0.0856677410048896,44.7,6.0,99.0,-744.62891,20.01953,775.39062,0.1614762915981885,-0.0222496318373489,-0.0728774446474996,56.1,21.15,36.6
-937.01172,16.60156,-474.60937,-0.1460214010717788,-0.0471638578437175,0.1120475199841579,-6.0,26.55,15.6,420.41016,86.42578,961.42578,0.029044373148288,0.0639509581881746,-0.1358958734163337,44.7,6.0,99.0,-747.07031,47.85156,743.65234,0.1660061191388146,-0.0081271256619115,-0.0331745202902074,56.1,21.15,36.6
-909.17969,27.34375,-446.28906,-0.1402925323350325,-0.0699463387017003,0.1231057515918688,-6.15,27.15,15.15,431.64062,112.79297,932.12891,0.0303767574992605,0.0937948666668012,-0.0863337586474507,44.1,6.15,99.15,-714.84375,77.63672,762.20703,0.1542816953556175,-0.0015987215948268,-0.0351730968166661,56.7,21.15,35.25
-890.13672,39.55078,-409.17969,-0.172401180051047,0.0331745202902074,0.0767412545455646,-6.3,26.55,15.3,444.82422,107.91016,903.80859,-0.0442327518979182,0.0622190679714206,-0.1115144964305989,45.15,5.4,98.4,-718.75,86.42578,750.0,0.1610766111994818,-0.0213169278850831,0.0386370517830992,56.7,21.15,35.25
-884.27734,18.55469,-421.875,-0.1196416220925105,0.006128723668378,0.1029876903699806,-6.6,27.3,15.6,452.14844,102.53906,893.06641,-0.0106585512090041,0.0916631215184153,-0.1295008125041012,46.35,6.9,98.85,-668.45703,60.05859,737.79297,0.1428239578821251,-0.0327748398915007,0.013456313999951,55.65,20.85,38.1
-891.60156,16.60156,-426.26953,-0.0979250138087206,0.0225161436141284,0.0714118916745999,-6.45,27.45,15.75,463.37891,125.97656,869.14062,0.0009327039522657,0.113246561180278,-0.0909969293429291,46.35,6.9,98.85,-659.66797,68.35938,758.78906,0.1023216727274195,-0.0881991665519822,0.0426340303030914,55.65,20.1,36.3
-904.29687,13.67187,-417.96875,-0.0639509581881746,0.0985910314512816,0.0398360929792193,-6.45,27.45,15.75,459.96094,119.14063,866.69922,-0.0058622118915985,-0.0644839817417337,-0.122173047639603,45.75,5.55,99.75,-648.4375,80.07813,759.27734,0.0409019655534123,-0.0492956029921034,0.0403691165327784,55.65,20.1,36.3
-917.48047,26.85547,-430.66406,-0.0117244237831971,0.0303767574992605,0.0619525561946411,-6.9,27.15,15.45,467.77344,155.76172,877.92969,-0.0086599746825454,0.0622190679714206,-0.0863337586474507,46.2,5.25,98.55,-644.53125,91.79688,740.23437,-0.0275788201753884,-0.023981696587028,-0.0483628990398376,55.2,21.75,37.2
-910.64453,31.73828,-451.66016,0.0063950609122324,0.031309286918601,0.0530260697353161,-6.6,27.75,15.6,478.51562,153.80859,856.93359,-0.0463644970463041,0.1004564393558132,0.0355727772153728,44.55,5.7,98.4,-642.08984,88.86719,735.35156,-0.087532974376496,-0.0903307371674429,-0.0266462907560478,54.3,22.35,35.25
-909.17969,30.76172,-464.84375,0.0189188454928429,0.0751423584178126,0.0209172474863764,-6.6,26.55,16.05,483.39844,159.66797,867.67578,-0.0583552580733556,0.1480199775982374,0.0155880591483369,46.35,5.7,97.35,-623.04687,89.35547,713.86719,-0.0595542992694757,-0.0539585991546566,0.0406354537766327,56.25,21.0,35.85
-888.18359,32.71484,-464.84375,0.0456983048708179,-0.0121241041819038,0.0189188454928429,-6.6,26.55,16.05,483.88672,147.94922,863.76953,-0.0975253334100139,0.1797289449155452,0.0089264864593249,45.9,5.4,97.05,-630.37109,115.23438,736.32812,-0.1417580853079322,-0.0658161915597809,0.0830031468358699,57.15,21.9,36.6
-911.62109,30.27344,-467.28516,0.080871401687484,-0.0398360929792193,0.0199847180670358,-6.45,27.45,15.15,489.25781,147.46094,903.80859,-0.0979250138087206,0.1890551117735769,0.0415681577288985,45.45,6.0,99.3,-621.58203,116.21094,773.4375,-0.2744563410016871,-0.1017886491738605,0.077007591789419,57.15,21.9,36.6
-918.45703,37.59766,-446.77734,0.0434333911005048,-0.0026645941690197,-0.110981647409965,-5.25,27.75,16.05,481.93359,145.01953,903.32031,-0.0904640803222952,0.2086401494419061,0.0732771250462063,45.45,6.0,99.3,-633.30078,144.04297,817.38281,-0.3082970534673808,0.020117886688963,0.1068515002680456,55.8,20.7,38.25
-916.99219,24.90234,-431.64062,0.0976585020319411,-0.0660827033365605,-0.0426340303030914,-7.95,26.1,16.5,477.05078,133.30078,913.57422,-0.1175098769441246,0.182926562638124,0.1055191159170731,45.75,6.3,99.3,-647.94922,141.60156,785.64453,-0.377044350972961,0.0219831200605693,0.1369617459905266,55.8,20.7,38.25
-916.01562,32.22656,-420.41016,0.1071178375118999,-0.1297671497479555,-0.0318423104721601,-4.95,27.75,13.95,469.23828,109.86328,916.50391,-0.1373614263892333,0.1983812786316086,0.1710689702329998,45.9,5.4,99.9,-639.64844,124.51172,791.99219,-0.4539187741404528,-0.0235820161883213,0.1630750131930153,56.1,20.55,37.05
-891.60156,23.92578,-389.64844,0.1049862668964393,-0.0949939078629213,-0.0905972489442224,-4.95,27.75,13.95,472.65625,101.07422,891.11328,-0.1312327027208552,0.1386936362072806,0.1745329251994329,47.25,5.55,97.95,-608.88672,154.29687,848.63281,-0.4797657040990872,-0.0682144484849463,0.20411032190128,56.1,21.6,36.0
-857.91016,-3.90625,-343.75,0.1429571265040523,-0.1998468316045083,-0.050228132411444,-7.2,28.95,15.75,482.91016,92.77344,887.20703,-0.1135130729570576,0.1758653095504054,0.1833262430368307,45.6,6.15,99.15,-587.89062,153.80859,765.625,-0.5009494633622433,0.2510076679682181,0.1886554313748702,57.15,20.85,36.0
-819.33594,-24.41406,-353.02734,0.1602772504020684,-0.1914533686987423,-0.1023216727274195,-5.4,27.9,15.75,498.04687,128.41797,886.23047,-0.1075176924435318,0.2271593145360423,0.177330862523305,46.35,5.4,99.9,-633.78906,181.15234,710.9375,-0.648036737008215,0.3939647944722704,0.2763215743732934,56.1,21.9,36.0
-816.89453,-50.78125,-347.16797,0.1201746456460695,-0.0563568560798221,-0.2491424345966117,-5.4,27.15,15.75,467.28516,114.25781,863.28125,-0.0883323351739094,0.1617428033749681,0.2871132942042247,46.2,4.8,100.35,-623.53516,152.83203,740.23437,-0.7884624379651748,0.2119709357864121,0.2664625584946278,56.1,21.9,36.0
-815.91797,-44.43359,-361.32812,0.2019785767528942,-0.093128674491315,-0.2334212068263476,-5.4,27.15,15.75,496.58203,128.41797,882.32422,-0.0848683802074762,0.1770643507465255,0.2459448168740329,46.2,4.8,100.35,-648.4375,95.70313,788.08594,-0.9199616524628096,0.2544716229346512,0.3288146205550505,55.35,20.1,35.55
-886.71875,-0.48828,-333.00781,0.2093063416173923,-0.0646171503636608,-0.2166339319489653,-6.3,25.05,16.05,495.11719,134.27734,916.50391,-0.1155114749505911,0.1378942754098671,0.2753890449539529,46.2,6.0,98.25,-685.05859,63.96484,773.4375,-0.8574762472475346,0.1393598283827668,0.3939647944722704,55.35,20.1,35.55
-830.07812,85.44922,-314.45312,0.1180429004976836,-0.0590214502488418,-0.2550046464882103,-5.4,27.45,14.7,496.09375,118.65234,941.40625,-0.1027213531261262,0.1316323831195619,0.2570030484817438,47.1,4.65,98.1,-747.55859,5.37109,747.07031,-0.8189723640863624,0.2023782571516009,0.4120842791677,56.7,21.9,36.3
-765.625,99.12109,-348.14453,0.0917962901403425,0.0386370517830992,-0.2503414757927318,-5.55,25.5,15.6,508.78906,132.8125,965.33203,-0.0887320155726161,0.1682710329091277,0.2314226302998889,46.5,6.0,99.0,-744.62891,14.64844,856.44531,-0.6452389742172681,0.2350199284211744,0.4338008874514897,55.5,20.25,35.85
-819.82422,39.0625,-395.01953,0.0459648166475974,0.0536922619108023,-0.2029111061722347,-6.45,26.1,14.7,442.38281,50.78125,998.53516,-0.1989143021851677,0.4272726579173302,0.2756553821978072,46.5,6.0,99.0,-749.51172,-28.32031,1040.03906,-0.3114946711899595,0.2059755552728863,0.4888253591803394,56.25,21.45,37.2
-929.6875,-21.48438,-448.24219,-0.0019984019935335,0.1213736868421896,-0.1793292645168386,-6.45,26.1,14.7,492.1875,57.61719,1110.83984,-0.0699463387017003,0.3653201017226891,0.225294081164436,47.7,4.65,99.15,-601.5625,-78.125,1082.03125,0.1192419416938038,0.3575926564594842,0.4270061461405507,54.6,21.9,36.6
-1078.125,-103.51563,-470.70312,0.0253139064050753,-0.0153215473715574,-0.060753514998521,-6.45,26.1,14.7,479.00391,-80.07813,1016.11328,0.1366952342137471,0.2003798551580673,0.1797289449155452,46.5,5.25,97.95,-544.43359,-167.96875,965.33203,0.4597809860320513,0.607934132252216,0.4174134675057394,56.25,21.45,36.45
-1132.32422,-162.59766,-443.35937,0.2095726788612467,-0.2615328760223699,-0.0883323351739094,-5.1,26.1,14.1,510.25391,-36.62109,1021.48437,0.19132002554389,0.0202512298438154,0.0682144484849463,46.5,5.25,97.95,-530.27344,-278.80859,840.33203,0.5347901758279369,0.6469708644340221,0.3360092167976215,55.8,21.75,35.4
-1091.30859,-122.55859,-426.26953,0.2510076679682181,-0.3168238595279991,-0.1729342036046061,-6.45,26.1,14.7,526.85547,48.82813,810.54687,0.4403292915185746,-0.0374380105869791,-0.0339738810876208,48.15,5.7,98.1,-619.62891,-276.85547,714.84375,0.4516538603701397,0.5234656069763717,0.3833062432632662,55.8,21.75,35.4
-995.60547,-51.75781,-410.15625,0.2940413786700163,-0.3943644748709771,-0.1342971518215068,-5.25,26.55,16.35,542.48047,29.78516,703.125,0.1821270273077855,-0.0500949637895168,-0.0277121633302407,47.55,6.3,98.25,-648.4375,-88.86719,750.0,0.506944843875769,0.323485432217011,0.4479233936269271,55.2,23.25,34.05
-950.19531,0.0,-397.94922,0.3426707894866335,-0.437797865971482,-0.0692803210591393,-5.25,26.55,16.35,476.5625,103.51563,688.96484,0.2110382318341463,0.0844685252758443,-0.0624854052152749,46.5,4.05,98.55,-645.99609,-2.44141,789.0625,0.5646340843065635,0.1121806886060851,0.4420613562682537,55.2,23.25,34.05
-957.51953,23.92578,-369.14062,0.2482097306443459,-0.3204211576492846,-0.1438898304563181,-5.1,27.15,15.15,499.02344,95.70313,789.0625,-0.1068515002680456,0.0873996312216436,0.0186523337160634,46.5,4.05,98.55,-568.84766,50.78125,713.86719,0.559837744989158,0.0307764378979672,0.3434701502840469,55.35,23.4,34.05
-943.35937,28.32031,-370.60547,0.1881225823542364,-0.3004364395822487,-0.1227058966602369,-4.05,24.9,15.15,512.20703,107.42188,693.84766,-0.1802617939361791,0.2693934899075019,0.0539585991546566,47.25,5.25,98.25,-607.91016,123.04688,624.02344,0.3169572026828514,0.0082602942838387,0.2403491167592139,55.5,23.4,34.2
-956.05469,-20.99609,-337.89062,0.1863905176045572,-0.2652633427655826,-0.0488959225933967,-5.4,24.9,15.75,458.49609,140.13672,814.94141,-0.0321086477160144,0.3082970534673808,0.0125237845806105,47.25,5.55,97.5,-694.33594,164.0625,612.30469,-0.0165205885676775,-0.1934517706922759,0.2478100502456393,55.5,24.0,35.1
-918.94531,-54.19922,-326.66016,0.0780734643636119,-0.2328881832727885,-0.1029876903699806,-4.95,24.75,15.0,306.15234,89.84375,880.37109,-0.0515605167624164,0.2364854813940741,0.0807380585326316,46.8,6.3,98.55,-673.33984,111.81641,587.89062,-0.2700596820829882,-0.1402925323350325,0.2017120649761146,56.7,23.4,34.5
-913.08594,-77.14844,-334.47266,-0.0186523337160634,-0.1205743260447762,-0.0548913031069224,-4.95,24.75,15.0,271.48437,84.47266,903.80859,0.0730107878023519,0.1642740543891354,0.022382800459276,46.8,6.3,98.55,-723.14453,98.63281,677.73437,-0.3952971788232429,-0.0827366350590903,0.1093829258151382,55.5,22.95,35.4
-911.13281,-101.5625,-353.51562,0.0371714988101996,-0.1151117945518844,0.0094593354799588,-4.35,26.1,15.15,278.80859,64.45313,907.22656,0.0891316959713228,0.1052526041402936,0.0708790426539661,47.55,5.25,98.25,-738.28125,129.88281,645.99609,-0.4520535407688464,-0.068614128883653,0.1472204422678988,55.8,24.0,35.85
-890.625,-102.05078,-378.41797,-0.0590214502488418,0.0033307863445059,0.0083936374386911,-3.75,25.8,15.6,272.46094,48.82813,835.9375,0.1249709849634751,0.007860613885132,0.050228132411444,47.7,5.4,98.4,-805.66406,108.39844,693.84766,-0.4215436146476588,0.0102588708102974,0.1136462415789847,56.1,23.85,35.25
-854.00391,-62.01172,-362.79297,-0.0622190679714206,0.0474303696204971,0.059687642424328,-4.5,24.3,14.25,307.61719,69.33594,829.10156,0.2328881832727885,0.020117886688963,0.0447657754514773,47.7,6.15,98.85,-688.47656,77.63672,659.66797,-0.4231423362424856,-0.1476202971995308,0.2138361691580184,56.1,23.85,35.25
-834.47266,-28.80859,-359.375,-0.0710122112758932,0.1348300008421407,0.0579555776746489,-4.5,24.3,14.25,361.32812,154.78516,800.78125,0.2883123354003449,0.0343737360192527,0.0197182062902563,47.7,6.15,98.85,-690.91797,75.68359,761.71875,-0.4296707403095704,-0.2138361691580184,0.1747994369762124,55.65,24.6,34.5
-828.125,7.32422,-372.55859,-0.098724374606134,0.2496752836172456,0.0405022851547056,-4.5,24.3,16.05,397.46094,131.83594,825.19531,0.0662158719584876,0.0535589187559499,0.041301645952119,48.9,5.7,99.45,-649.90234,81.54297,738.28125,-0.4026247691548159,-0.3313460461021431,0.1974487492122681,55.65,24.15,34.5
-863.28125,16.60156,-419.92187,-0.1891882803955041,0.2540719425359445,0.0459648166475974,-5.1,25.65,16.5,421.38672,165.52734,905.27344,0.1576124817001235,0.1084502218628724,0.0679479367081668,47.7,5.4,98.4,-687.5,59.57031,746.58203,-0.4303369324850566,-0.2669954075152617,0.1877227274226045,54.0,23.25,35.1
-907.22656,15.625,-465.82031,-0.1316323831195619,0.215301722130918,0.0419678381276052,-5.25,25.05,16.35,397.46094,158.20312,927.24609,0.0885988469506889,0.0928621627145355,0.0860674214035963,48.6,4.5,100.35,-747.07031,96.19141,772.94922,-0.4777673021055538,-0.1891882803955041,0.2151683789760657,54.3,23.85,34.95
-929.19922,10.74219,-486.81641,-0.2635314525488286,0.2957734434196954,-0.0109248884528585,-5.4,26.4,16.2,431.64062,162.59766,947.26562,0.1216401986189692,0.1793292645168386,0.0980581824306478,47.7,6.15,98.1,-757.32422,77.63672,774.90234,-0.4771011099300675,-0.0512940049856369,0.1827932194832717,54.75,23.7,35.4
-949.70703,-11.23047,-470.70312,-0.2840490196364983,0.1993139825838744,-0.0115910806283447,-5.4,26.4,16.2,435.05859,151.36719,1019.04297,0.0893982077481023,0.1003230962009608,0.1653399269633284,47.7,6.15,98.4,-835.44922,101.5625,840.33203,-0.416081083154767,-0.1376279381660128,0.1801286253142519,54.45,24.75,35.85
-944.33594,-18.55469,-429.6875,-0.2568698798598167,0.0710122112758932,0.0390367321818059,-6.0,27.0,15.6,541.01562,175.78125,1118.16406,0.1847917960097304,0.2207642536238099,0.165073589719474,47.4,5.4,99.9,-802.24609,165.52734,848.63281,-0.2828499784403782,0.002264913770313,0.1674716721117143,54.45,24.75,35.85
-903.80859,-41.01563,-382.8125,-0.2368851617927808,0.0631515973907612,-0.0199847180670358,-5.25,26.25,15.3,460.9375,156.73828,1180.66406,-0.0026645941690197,0.2607335152249564,0.1878560705774568,47.4,5.4,99.9,-732.42187,153.32031,836.91406,-0.2471440326030782,0.0464976656682313,0.1690703937065411,55.65,23.4,37.35
-868.65234,-69.82422,-393.55469,-0.1911868569219628,0.0806048899107045,0.0001331686219271,-5.7,27.15,14.7,483.88672,217.28516,1147.46094,0.1156446435725182,0.0519601971611231,0.2556708386636965,48.45,6.6,98.85,-715.33203,128.90625,793.94531,-0.3613231232026969,0.1617428033749681,0.1746660938213601,55.65,23.4,37.35
-917.96875,-60.54688,-420.89844,-0.0977916706538682,0.0093261668580317,0.0738101485997654,-5.7,27.15,14.7,451.66016,156.25,1110.83984,0.2243613772121702,-0.1504180599904777,0.2879126550016381,48.15,6.15,99.15,-655.27344,127.92969,797.36328,-0.2737901488262009,0.203577298347721,0.1726676918278266,54.0,25.05,36.15
-1003.90625,-67.87109,-420.89844,-0.1512174207878911,-0.0783399761403914,0.0905972489442224,-6.9,24.9,16.5,535.15625,220.21484,985.35156,0.0214502710399355,-0.0927289940926083,0.3298804931292434,47.55,5.25,98.55,-597.16797,87.89063,787.10937,-0.3646539095472028,0.24487894429984,0.235952457840515,55.2,25.05,36.15
-1043.94531,-41.50391,-413.57422,-0.0611531953972277,-0.1626753327943086,0.1389601479840601,-6.3,24.75,15.3,609.375,209.47266,971.67969,0.2162342515502586,0.1095160944370653,0.3064318200957744,47.55,5.25,98.55,-582.51953,108.39844,866.69922,-0.4751025334036088,0.3438698306827536,0.2503414757927318,54.9,23.85,35.55
-1036.62109,38.57422,-487.30469,-0.0810045703094112,-0.3361423854195487,0.1917197059425967,-6.9,26.4,15.75,513.67187,192.38281,852.53906,0.1634746935917221,0.1558805914833695,0.3272158989602237,48.9,6.9,99.15,-629.88281,63.96484,805.66406,-0.3975620925935559,0.4425942052888876,0.1838590920574646,53.7,25.5,35.4
-1001.46484,80.07813,-507.32422,-0.143356806902759,-0.3284149401563438,0.174000076178799,-6.15,25.65,15.15,460.9375,180.17578,844.23828,0.1743997565775057,0.0522267089379027,0.3507979151485451,48.0,7.5,98.55,-669.92187,46.875,760.25391,-0.322419559642818,0.5327917738344035,0.1572128013014168,55.8,23.7,36.15
-1007.8125,86.91406,-471.19141,-0.1276355791324949,-0.3513307641691789,0.2399494363605072,-6.15,25.65,15.15,445.3125,81.54297,742.67578,0.1429571265040523,-0.0241148652089552,0.3180229007241191,48.0,7.5,98.55,-612.30469,-15.625,652.34375,-0.3366754089731077,0.408753492823194,0.2079739572664199,55.8,24.0,35.4
-981.44531,68.35938,-406.25,-0.0856677410048896,-0.4409954836940608,0.2368851617927808,-4.2,27.0,16.35,416.99219,30.27344,787.59766,0.050761155965003,0.1057856276938527,0.2879126550016381,48.45,7.35,98.85,-668.45703,-40.03906,734.86328,-0.425540593167651,0.4838958512410067,0.0820704428836041,55.8,24.0,35.4
-931.15234,90.33203,-370.11719,-0.1440229990782452,-0.3332112794737494,0.2165007633270382,-5.7,27.45,17.25,393.55469,8.78906,797.36328,0.0921959705390492,0.0475635382424242,0.2812510823126262,47.7,7.35,98.4,-639.64844,-140.625,682.61719,-0.4263399539650644,0.4252740813908715,0.1493521874162847,55.8,25.5,35.1
-931.64062,115.23438,-345.70312,-0.172401180051047,-0.3232189204402315,0.1432236382808319,-4.95,27.0,14.55,340.33203,41.01563,797.36328,0.0259800985805615,0.2082404690431994,0.2161010829283315,48.9,5.4,98.85,-721.19141,-115.23438,711.91406,-0.3944976434929043,0.3597244016078701,0.1514839325646706,55.8,25.5,35.1
-906.73828,106.44531,-324.70703,-0.1211071750654101,-0.3031010337512684,0.1245711300318432,-4.95,27.0,14.55,309.08203,34.66797,824.70703,0.0760750623700784,0.1638743739904287,0.1771975193684527,48.9,5.4,98.85,-679.19922,-118.65234,678.71094,-0.4298039089314976,0.291110272724217,0.0827366350590903,55.8,25.5,35.1
-859.86328,115.72266,-287.59766,-0.1064518198693389,-0.2362189696172945,0.1636080367465744,-4.2,26.25,15.0,318.35937,71.28906,870.11719,0.08420218803199,0.1470872736459717,0.0828698036810175,46.8,8.55,99.0,-685.54687,-80.07813,670.89844,-0.4877596611390717,0.221430271266371,0.1167105161467112,56.4,24.9,34.5
-818.84766,108.88672,-276.36719,-0.1304333419234418,-0.0732771250462063,-0.0254472495599277,-4.95,27.0,16.35,345.70312,121.09375,844.23828,0.0274456515534612,0.1417580853079322,0.0674150876875329,47.4,7.35,97.35,-733.88672,-22.94922,689.94141,-0.4901577435313119,0.0977916706538682,0.0403691165327784,55.8,23.7,36.9
-807.61719,96.19141,-290.52734,-0.0866002704242302,-0.0450321126953316,-0.0341072242424731,-3.75,27.3,15.3,368.16406,125.0,856.44531,0.03064326927604,0.0431668793237253,0.1099157748357721,47.4,7.35,97.35,-737.79297,-37.10938,683.59375,-0.3976952612154831,0.0003996803987067,-0.0030642745677264,55.5,23.25,34.05
-828.61328,84.96094,-335.9375,-0.0979250138087206,0.0655498543159266,-0.1195084534705833,-6.3,27.0,16.05,364.25781,94.23828,843.75,-0.0475635382424242,0.0911300979648563,0.1476202971995308,48.9,7.35,99.9,-738.76953,-27.34375,715.82031,-0.3658529507433229,-0.1628085014162358,0.068614128883653,53.85,23.1,34.95
-873.53516,63.96484,-383.78906,-0.0851347174513306,0.1660061191388146,-0.1898544725709904,-6.3,27.0,16.05,385.25391,106.93359,899.90234,-0.1446891912537315,0.1059187963157798,0.0836691644784309,49.35,7.8,97.5,-735.35156,-2.44141,777.83203,-0.3497320425743521,-0.1885222627529431,-0.0262466103573411,55.65,24.6,34.95
-926.26953,16.60156,-400.87891,-0.0503614755662963,0.0951270764848485,-0.051827028539196,-6.3,27.0,16.05,425.29297,150.39062,956.54297,-0.0538254305327295,0.0991240550048407,0.0648836621404404,50.25,7.35,98.85,-758.30078,-17.57813,776.85547,-0.2965728042171088,-0.2649970055217283,-0.015055210127703,55.5,25.5,35.1
-919.43359,5.85937,-404.29687,-0.0227824808579827,0.0960597804371143,-0.1257703457608885,-4.2,26.55,16.65,392.57812,70.3125,1009.76562,0.0098591904115907,0.0811377389313384,0.075275701572665,50.25,7.35,98.85,-722.65625,-37.59766,793.45703,-0.2711255546571811,-0.0798055291132911,0.0211837592631559,55.5,25.5,35.1
-877.44141,-12.69531,-412.10937,-0.0249142260063686,0.1039203943222463,-0.1742664134226534,-4.35,26.7,15.45,446.28906,84.47266,1000.97656,-0.0744763407752516,0.0147886983509235,0.0582220894514284,48.6,7.5,99.75,-779.78516,-29.29688,799.80469,-0.246477840427592,-0.1877227274226045,-0.0618192130397887,55.35,25.35,35.55
-869.14062,-2.92969,-382.8125,0.0051960197161123,0.0237151848102485,-0.1658729505168874,-4.65,26.7,15.15,500.0,74.21875,1034.66797,-0.0179861415405771,-0.0755420388165193,0.0421010067495324,49.5,6.6,98.4,-707.03125,-56.15234,872.07031,-0.2173001241244516,-0.1493521874162847,-0.0440995832759911,55.2,23.25,35.85
-890.13672,-25.39063,-336.91406,0.0194516945134768,0.041834669505678,-0.0924624823158288,-4.65,26.7,15.15,539.0625,54.19922,1078.125,0.023981696587028,0.023981696587028,0.0511608363637097,49.05,7.5,98.25,-725.09766,-58.59375,941.40625,-0.1189754299170242,0.0391699008037331,-0.0002665117767795,55.5,24.75,36.15
-894.53125,-55.17578,-313.96484,-0.0214502710399355,0.0137228257767306,-0.1303001733015146,-4.65,27.15,15.45,491.21094,80.56641,1043.94531,0.0479632186411309,-0.0858009096268168,0.0074609334864253,47.7,6.6,97.35,-726.5625,-68.35938,897.46094,0.0464976656682313,0.1785299037194251,-0.0123904414257581,55.35,24.15,36.0
-889.16016,-45.41016,-308.59375,0.020117886688963,-0.0840688448771376,-0.1171101965454179,-4.95,27.3,16.65,539.0625,104.49219,984.375,0.1207074946667034,-0.0600873228230347,0.0101255276554451,48.15,6.9,98.85,-705.07812,-77.14844,810.05859,0.161209779821409,0.1874563901787501,-0.0405022851547056,54.9,24.6,35.55
-904.29687,6.34766,-316.89453,0.0706125308771865,-0.1722680114291199,0.0037304667432126,-5.25,27.0,15.6,533.20312,77.63672,935.54687,0.1616094602201157,-0.1121806886060851,0.0187856768709157,47.55,7.8,97.2,-644.53125,-137.69531,789.0625,0.1582786738756097,0.2145023613335047,-0.0074609334864253,57.0,24.75,36.9
-941.89453,27.34375,-315.42969,0.0603538345998143,-0.1129800494034985,-0.0634181091675407,-4.2,26.25,17.1,636.23047,66.89453,948.24219,0.1826600508613445,-0.0442327518979182,-0.0235820161883213,47.55,7.8,97.2,-566.89453,-136.23047,833.98437,0.1172435397002702,0.1634746935917221,0.0403691165327784,57.0,24.75,36.9
-1037.10938,72.75391,-358.39844,0.0512940049856369,-0.2932420178726028,-0.0189188454928429,-4.2,26.25,17.1,569.33594,20.99609,918.94531,0.0827366350590903,0.0423675185263119,-0.0698131700797731,47.55,7.8,97.2,-556.15234,-158.20312,877.92969,0.2384838833876076,0.3037672259267546,0.0571562168772355,55.35,25.35,34.5
-1051.75781,54.19922,-407.71484,0.018385996472209,-0.3102956299938395,0.0159877395470436,-3.6,25.65,14.7,487.79297,-3.41797,813.47656,0.1287014517066878,-0.0057288687367461,-0.0730107878023519,48.6,6.3,98.25,-550.29297,-123.53516,723.63281,0.5357228797802026,0.5265298815440982,0.0283781809728018,55.35,25.35,34.5
-1070.80078,27.83203,-405.76172,-0.042900542079871,-0.308963245642867,-0.0566231933236764,-4.5,26.55,16.35,469.23828,23.4375,722.65625,0.0475635382424242,-0.1148452827751048,-0.1149786259299572,48.45,6.9,98.1,-561.03516,-49.31641,615.72266,0.3936982826954909,0.4752358765584611,0.0699463387017003,55.35,26.1,33.9
-1020.99609,-15.625,-347.65625,-0.0595542992694757,-0.3742465881820141,0.0409019655534123,-4.65,27.15,16.5,391.60156,-3.41797,641.60156,0.0474303696204971,-0.4411286523159879,-0.1452220402743654,46.8,7.8,96.9,-596.67969,12.20703,583.00781,-0.0544916227082157,0.3545283818917578,0.4808315766732802,55.35,25.35,34.2
-995.60547,-55.17578,-324.21875,-0.0456983048708179,-0.4361991443766552,-0.0423675185263119,-4.65,27.15,16.5,455.07812,82.03125,665.03906,0.039569755735365,-0.2904440805487308,-0.1616094602201157,48.9,6.9,98.1,-598.63281,24.41406,575.68359,0.085934078248744,0.1738667330239467,-0.1304333419234418,54.75,24.75,35.1
-969.72656,-60.54688,-310.54687,-0.0522267089379027,-0.2769877665487796,-0.0261132672024887,-4.5,27.3,16.35,338.86719,104.49219,633.30078,-0.0795390173365115,0.0560903443030425,-0.1121806886060851,48.0,6.3,98.25,-587.89062,35.15625,607.91016,0.0855343978500373,0.1644073975439878,-0.034640073263107,55.8,25.5,34.35
-954.10156,-60.54688,-303.22266,0.032375159492794,-0.216367594705111,-0.0069280844657914,-3.45,27.3,16.65,340.33203,173.33984,661.13281,-0.1360290420382608,0.200246512003215,-0.0674150876875329,47.1,6.9,99.15,-615.23437,116.69922,644.53125,-0.0755420388165193,0.061419532641082,0.1837259234355374,53.7,24.0,34.05
-911.13281,-36.13281,-272.94922,0.0810045703094112,-0.1673385034897871,0.013456313999951,-3.6,27.15,17.55,335.44922,206.05469,791.01562,-0.2296907400831349,0.2394165873398733,0.0347734164179594,47.1,6.9,99.15,-613.28125,122.07031,606.44531,-0.2287580361308692,0.1853246450303643,-0.0796723604913639,55.65,26.1,34.95
-868.65234,-13.18359,-269.04297,0.0592879620256213,-0.0054625314928918,-0.039569755735365,-4.05,26.1,16.2,460.44922,238.28125,931.15234,-0.2402159481372867,0.3698499292633152,0.0656830229378538,48.45,7.65,98.4,-695.3125,211.42578,615.23437,-0.2672619192920413,0.2087733180638333,-0.2459448168740329,55.65,26.1,34.95
-868.65234,16.60156,-305.17578,0.0968591412345277,0.1101822866125516,0.0023980823922402,-4.05,26.1,16.2,327.14844,179.19922,955.07812,-0.3200214772505779,0.462312411579144,0.1839922606793918,48.9,6.9,98.1,-772.46094,200.19531,627.92969,-0.6124639597928422,0.0298437339457014,-0.0582220894514284,54.9,23.4,33.9
-905.27344,15.13672,-358.88672,0.042900542079871,0.1797289449155452,-0.0610198522423753,-4.35,26.1,17.85,354.49219,180.66406,1029.29688,-0.1125803690047918,0.2158345711515519,0.2182328280767173,49.5,6.9,97.35,-775.39062,125.48828,654.78516,-0.6892052143384068,-0.1706692898342931,-0.0488959225933967,54.9,23.4,33.9
-959.96094,-11.71875,-414.55078,0.0393032439585855,0.2133031456044594,-0.0658161915597809,-5.1,26.4,16.8,303.22266,107.91016,1004.39453,-0.1890551117735769,0.0747426780191059,0.2382175461437532,49.5,6.9,97.35,-793.45703,86.42578,674.80469,-0.6313828052856851,-0.279918872494579,-0.006128723668378,54.9,23.4,33.9
-968.26172,-23.4375,-447.75391,0.0723445956268657,0.1201746456460695,-0.0247810573844414,-2.4,26.55,18.15,280.76172,34.66797,997.07031,-0.0038636353651398,0.0253139064050753,0.2615328760223699,48.0,7.05,97.5,-760.74219,69.33594,765.625,-0.7158515050944547,-0.1416247421530798,-0.0734104682010586,55.65,22.35,33.9
-921.875,-42.48047,-454.10156,0.052493046181757,0.0378376909856858,-0.0739433172216925,-2.4,26.55,18.15,348.14453,97.65625,971.67969,0.1023216727274195,-0.0462311538914518,0.1795957762936181,48.15,6.9,98.1,-814.94141,39.55078,780.76172,-0.6685543040958847,-0.096459460835821,0.1646737347878422,55.2,25.05,35.1
-881.83594,125.48828,-402.34375,-0.0551578148837019,0.0602204914449619,-0.2346202480224677,-7.05,27.0,14.55,443.84766,127.44141,939.45312,-0.0506278128101507,-0.096459460835821,-0.1461547442266311,49.8,6.3,97.95,-701.66016,-86.42578,766.60156,0.4796325354771601,-0.122173047639603,-0.3955635160670973,55.35,21.15,35.25
-896.48437,113.76953,-417.96875,-0.1320322380511938,0.0623522365933478,-0.2544716229346512,-7.05,27.0,14.55,444.33594,113.76953,956.05469,-0.042900542079871,-0.1064518198693389,-0.1345634890653612,48.0,7.05,97.95,-708.00781,-94.23828,769.04297,0.5257305207466848,-0.0335742006889141,-0.3563936152633641,55.35,21.15,35.25
-916.99219,110.35156,-427.73437,-0.131099534098928,0.0158545709251164,-0.2629984289952695,-5.7,27.15,14.7,413.57422,118.65234,893.06641,-0.032375159492794,-0.0691469779042869,-0.2244947203670226,49.05,7.5,96.9,-742.1875,-113.28125,745.11719,0.5231990951995922,-0.0815375938629702,-0.3487993386220863,57.0,20.7,34.05
-909.66797,105.95703,-458.49609,-0.0522267089379027,-0.0933951862680945,-0.2442129266572789,-5.7,27.9,15.15,425.78125,91.30859,933.59375,-0.0771409349442713,-0.0925956509377559,-0.2095726788612467,49.95,6.15,98.4,-704.58984,-105.95703,782.22656,0.5812878414961683,-0.1696034172601001,-0.3352098560002081,56.7,20.55,34.2
-909.17969,65.42969,-437.98828,-0.0644839817417337,-0.0648836621404404,-0.2350199284211744,-7.65,28.05,14.25,484.375,142.08984,844.23828,-0.1869233666251911,-0.0287778613715085,-0.1755987977736259,49.35,6.0,97.5,-691.40625,-56.64063,812.5,0.6824104730274677,-0.1584120170304621,-0.2691271526636476,56.4,20.85,35.55
-913.57422,74.21875,-459.96094,-0.0488959225933967,-0.070346019100407,-0.2574027288804505,-7.65,28.05,14.25,489.25781,87.89063,936.03516,-0.1865236862264844,-0.045165455850184,-0.1999801747593606,49.05,6.0,98.25,-752.44141,-83.98438,749.51172,0.8185726836876557,-0.1332312792473139,-0.2258269301850698,57.0,21.0,35.1
-927.24609,56.15234,-465.33203,-0.0867336135790826,-0.0899310567687362,-0.2223629752186367,-6.15,27.9,15.45,476.07422,-81.54297,885.25391,-0.1597442268485094,-0.0567565364785288,-0.2436799031037199,48.9,5.7,99.15,-691.40625,-43.94531,778.32031,0.9284884585234278,-0.069680001457846,-0.1409587245105188,56.4,20.85,34.2
-948.24219,45.41016,-449.21875,0.0227824808579827,-0.134430320443434,-0.2022450885296737,-6.45,27.45,14.4,667.96875,18.06641,963.37891,-0.2452787992314719,0.0250473946282958,-0.3270827303382965,48.9,5.7,99.15,-686.03516,-40.52734,729.00391,0.9835131047852026,0.0255804181818548,-0.0999234158022541,56.4,20.55,33.45
-969.72656,43.45703,-430.17578,0.0531592383572432,-0.1340306400447273,-0.2479433934004916,-5.55,27.0,14.55,457.03125,-67.38281,980.46875,-0.1886554313748702,0.0113245688515652,-0.3321454068995564,49.2,6.6,98.85,-665.52734,-81.05469,803.22266,0.9150321445234768,0.2608666838468836,-0.0363721380127862,56.4,20.55,33.45
-949.70703,23.4375,-407.71484,0.1309663654770009,-0.1505512286124048,-0.1514839325646706,-6.6,25.8,14.25,488.28125,0.48828,1022.46094,-0.1414915735311527,0.2150352103541385,-0.4162144263096193,47.55,5.55,98.25,-727.53906,20.99609,751.95312,0.9095696130305848,0.3237519439937906,0.023448673033469,57.3,21.45,34.05
-960.44922,2.44141,-384.76562,0.1822603704626378,-0.2348867597992472,-0.1894547921722836,-6.6,25.8,14.25,635.74219,118.65234,990.23437,-0.2376845225901941,0.1340306400447273,-0.390900519904544,48.6,5.55,98.25,-767.08984,-50.78125,751.95312,0.8341607428359926,-0.0326416712695735,0.0924624823158288,57.3,21.45,34.05
-937.98828,-1.46484,-357.91016,0.2138361691580184,-0.1682710329091277,-0.3100291182170599,-6.3,25.5,13.95,363.28125,48.82813,996.09375,-0.1598775700033617,-0.0627519169920545,-0.393165433674857,48.6,5.55,98.25,-695.3125,66.40625,771.97266,0.7815345280323085,0.1135130729570576,0.1131133925583509,57.0,19.5,33.75
-948.24219,-6.34766,-331.05469,0.2564701994611099,-0.1536156777130565,-0.1789295841181318,-6.15,25.65,14.7,426.26953,81.05469,1020.99609,-0.1818606900639311,0.0578224090527217,-0.3791760961213469,48.9,5.7,98.85,-735.83984,112.79297,733.88672,0.7365022408040516,0.0943277156874351,0.0818039311068246,56.7,20.55,34.5
-951.17187,13.18359,-350.09766,0.3918330493238845,-0.1785299037194251,-0.3004364395822487,-5.7,26.4,15.15,379.88281,127.44141,992.1875,-0.0972588216332344,-0.1263031947815224,-0.3506645719936927,49.2,5.7,98.85,-723.63281,128.41797,739.25781,0.6076677950083618,0.0893982077481023,0.0062618922903052,56.1,20.1,33.9
-923.82812,35.64453,-392.08984,0.3738469077833074,-0.123238920213796,-0.2388835637863142,-5.7,26.4,15.15,466.79687,143.06641,913.08594,-0.195183835441955,-0.0803383781339249,-0.2836493392377916,49.2,5.7,98.85,-720.21484,153.80859,702.14844,0.5698299294897508,-0.1833262430368307,0.0267794593779749,57.0,20.7,31.95
-950.19531,16.60156,-398.4375,0.4024916005328887,-0.167871352510421,-0.221430271266371,-6.6,27.0,15.0,420.41016,167.96875,900.87891,-0.1649402465646217,-0.1525498051388636,-0.2571362171036709,49.35,4.8,99.0,-662.10937,104.98047,696.28906,0.518136244105407,-0.1537488463349836,0.0090596550812521,57.3,20.7,33.3
