IMU1_AccX,IMU1_AccY,IMU1_AccZ,IMU1_GyrX,IMU1_GyrY,IMU1_GyrZ,IMU1_MagX,IMU1_MagY,IMU1_MagZ,IMU2_AccX,IMU2_AccY,IMU2_AccZ,IMU2_GyrX,IMU2_GyrY,IMU2_GyrZ,IMU2_MagX,IMU2_MagY,IMU2_MagZ,IMU3_AccX,IMU3_AccY,IMU3_AccZ,IMU3_GyrX,IMU3_GyrY,IMU3_GyrZ,IMU3_MagX,IMU3_MagY,IMU3_MagZ
-835.9375,19.04297,-522.94922,-0.0985910314512816,0.0896645449919567,0.0334410320669869,-12.3,25.05,10.8,468.75,143.06641,874.02344,0.1910535137671104,0.0452986244721112,0.2332878636714952,45.15,7.35,98.4,-687.5,29.29688,751.46484,-0.3587916976556043,0.123238920213796,0.1870567097800435,56.1,23.85,33.9
-823.24219,34.17969,-518.06641,-0.1207074946667034,0.1279019163763492,0.0197182062902563,-13.05,25.05,12.15,473.63281,138.67187,893.55469,0.1869233666251911,0.0351730968166661,0.3114946711899595,46.65,7.35,98.1,-679.6875,32.22656,744.62891,-0.32401845577057,0.1177763887209041,0.2230291673941229,56.25,22.5,36.15
-820.3125,41.50391,-532.22656,-0.1080505414641657,0.0840688448771376,0.0739433172216925,-12.15,26.1,13.05,448.24219,141.11328,904.78516,0.1898544725709904,0.0117244237831971,0.2780536391229726,45.6,8.1,98.85,-687.01172,28.80859,758.30078,-0.3854379884116521,0.1436233186795386,0.1927855785167896,57.15,23.1,34.95
-819.82422,34.17969,-530.27344,-0.0943277156874351,0.110981647409965,0.0539585991546566,-12.15,26.1,13.05,467.28516,155.76172,916.01562,0.2065084042935202,0.023981696587028,0.2975053336364494,45.6,8.1,98.85,-694.82422,58.10547,732.42187,-0.3633215251962304,0.1688040564626867,0.1461547442266311,54.6,22.65,36.3
-806.64062,35.64453,-552.24609,-0.1552143993078833,0.1204409828899239,0.0194516945134768,-12.0,27.0,12.9,449.70703,132.8125,890.625,0.2015788963541875,-0.0195850376683291,0.2999035905616148,46.5,7.05,98.25,-682.61719,70.3125,731.44531,-0.450055138775313,0.162275652395602,0.1228392398150893,54.6,22.65,36.3
-815.42969,21.48438,-560.05859,-0.1196416220925105,0.0660827033365605,0.0322419908708668,-12.45,24.6,12.3,459.47266,140.13672,914.55078,0.1805283057129587,-0.0281118437289474,0.3216201988454046,46.5,9.0,96.9,-706.05469,67.38281,780.76172,-0.5221332226253992,0.1172435397002702,0.1550812306859561,54.6,23.85,34.95
-827.14844,17.57813,-568.84766,-0.0976585020319411,0.0586217698501351,0.0511608363637097,-12.9,27.15,13.05,448.73047,144.04297,892.57812,0.1998468316045083,-0.0375711792089063,0.3277489225137827,46.5,9.0,96.9,-684.57031,18.06641,748.53516,-0.5004164398086842,0.064750318985588,0.1893216235503565,54.6,23.85,34.95
-847.16797,18.55469,-564.94141,-0.1550812306859561,0.0568897051004559,-0.0122572728038309,-12.9,27.15,13.05,457.51953,94.72656,929.19922,0.171202138854927,-0.0584886012282079,0.363055187952376,46.5,8.55,99.3,-671.875,62.98828,758.30078,-0.5553077429156067,0.1488193383956508,0.1706692898342931,56.1,23.1,34.5
-861.81641,19.53125,-572.75391,-0.1693369054833206,-0.0097258472567384,-0.0286446927495813,-12.45,27.15,11.55,477.05078,144.53125,909.17969,0.2082404690431994,-0.0548913031069224,0.3370750893718144,46.2,7.8,97.5,-695.80078,57.12891,757.32422,-0.5410520681182421,0.1003230962009608,0.1502848913685505,56.1,23.4,35.25
-848.63281,30.76172,-569.82422,-0.0937948666668012,-0.095393588261628,0.0536922619108023,-12.15,27.45,11.55,482.42187,129.39453,921.875,0.2328881832727885,-0.0230489926347623,0.3180229007241191,46.5,8.25,98.55,-669.92187,47.85156,771.97266,-0.5704961216652369,0.1003230962009608,0.1465544246253378,54.3,24.6,34.2
-843.26172,38.57422,-554.19922,-0.1597442268485094,-0.0776737839649052,-0.0434333911005048,-12.0,25.8,12.9,485.35156,146.97266,891.11328,0.2724579390081536,0.029044373148288,0.3265497067847375,46.5,8.25,98.55,-681.15234,59.57031,747.55859,-0.5800888003000482,0.1722680114291199,0.1364287224369675,56.4,22.35,34.95
-838.86719,52.24609,-542.48047,-0.1806614743348858,-0.1370949146124538,-0.0258469299586344,-12.15,27.15,12.0,486.81641,146.97266,907.71484,0.3064318200957744,-0.0005328490206338,0.3200214772505779,48.15,9.6,97.35,-670.89844,36.13281,715.33203,-0.5970092437993576,0.1778637115439389,0.1324319184499005,55.35,23.1,35.55
-839.35547,45.89844,-540.52734,-0.1384272989634262,-0.1765313271929664,0.023981696587028,-12.15,27.15,12.0,459.47266,103.51563,899.41406,0.2416815011101863,0.0074609334864253,0.3244181361692768,45.9,8.1,99.9,-678.22266,40.52734,743.65234,-0.528661626692484,0.191853049097449,0.1685375446859072,56.1,21.9,35.55
-828.125,76.66016,-520.99609,-0.208107125888347,-0.1923858981180829,-0.015055210127703,-12.6,26.55,10.8,482.91016,173.33984,871.58203,0.2745895096236143,-0.0013323843509724,0.3503982347498383,46.2,7.05,97.5,-668.94531,31.73828,731.93359,-0.5358560484021299,0.2046431709219139,0.1576124817001235,56.1,21.9,35.55
-816.40625,50.78125,-520.99609,-0.2492756032185389,-0.1498852109698438,-0.0185191650941362,-14.1,26.25,11.85,487.79297,178.71094,842.77344,0.3233522635950838,0.0262466103573411,0.3332112794737494,45.9,9.15,98.4,-652.83203,22.46094,743.65234,-0.5150719695376805,0.2869801255822976,0.1630750131930153,56.4,23.4,34.95
-829.10156,50.29297,-511.71875,-0.1979815982329019,-0.2063752356715931,0.0331745202902074,-13.05,27.0,13.5,478.02734,181.64062,847.65625,0.2602006662043226,0.0182526533173567,0.3470674484053324,45.45,7.8,97.95,-659.17969,-2.44141,729.98047,-0.5060123144564285,0.2311562930560345,0.1360290420382608,55.8,23.25,34.8
-830.07812,44.43359,-527.83203,-0.282183786264892,-0.1753322859968463,0.074209828998472,-13.05,27.0,13.5,485.35156,173.82812,829.58984,0.3750459489794275,0.0515605167624164,0.3481333209795254,45.6,9.15,99.15,-652.83203,108.39844,722.16797,-0.5390536661247086,0.228624867508942,0.1401591891801802,56.4,22.65,35.25
-863.28125,26.36719,-520.99609,-0.2916431217448508,-0.2149020417322114,0.0161209081689708,-12.3,27.0,11.4,474.12109,186.03516,869.14062,0.2651301741436554,0.0624854052152749,0.3478668092027458,45.6,9.15,99.15,-680.66406,9.76562,727.53906,-0.5122740322138085,0.2279586753334558,0.1256370026060362,55.35,24.9,33.9
-876.95312,26.36719,-517.57812,-0.2567365367049642,-0.2590014504752773,0.0694134896810664,-10.95,28.05,13.2,474.12109,155.27344,865.72266,0.3252174969666902,0.089797888146809,0.3971624121948492,45.75,7.5,97.2,-709.96094,50.29297,729.49219,-0.6002066869890113,0.2482097306443459,0.1354961930176269,56.25,23.25,34.35
-886.23047,8.78906,-513.18359,-0.2555374955088442,-0.2430137109282336,0.0414349891069713,-12.9,28.2,12.0,477.05078,163.57422,887.20703,0.2339540558469814,0.1032542021467601,0.4405956287624289,44.7,10.05,98.25,-708.98437,-50.78125,738.28125,-0.6534992685011067,0.1869233666251911,0.0912634411197086,56.4,21.6,35.25
-861.32812,6.83594,-494.62891,-0.2372848421914875,-0.1893216235503565,0.0105252080541518,-12.9,26.1,13.05,459.96094,213.37891,811.03516,0.3220198792441113,0.6156615775154209,0.4010260475599891,45.45,9.3,99.0,-720.21484,14.16016,740.72266,-0.6364456563798702,0.2466110090495192,0.1137794102009119,56.4,21.6,35.25
-850.09766,14.64844,-478.02734,-0.217033612347672,-0.2406156285359934,0.0917962901403425,-12.9,26.1,13.05,421.38672,164.55078,844.23828,0.1789295841181318,0.3582588486349705,0.482430298268107,45.45,9.3,99.0,-716.30859,-2.92969,707.51953,-0.6961332988041983,0.2985712062106423,0.110981647409965,56.4,21.6,35.25
-837.40234,26.36719,-467.77344,-0.2462113286508125,-0.2115712553877054,0.0722112524720134,-10.95,28.05,12.45,477.05078,125.48828,904.29687,0.2693934899075019,0.0604870032217414,0.4765680863765085,45.9,9.9,99.9,-734.86328,20.50781,711.91406,-0.7718085062426449,0.2931086747177505,0.0945942274642146,56.1,23.4,34.95
-860.83984,65.42969,-471.19141,-0.2648636623668758,-0.1472204422678988,0.071944915228159,-12.15,27.45,13.35,479.98047,166.01562,908.20312,0.3094960946635008,0.1281684281531288,0.4846952120384201,45.0,9.75,99.0,-718.75,-21.97266,713.86719,-0.7182495874866949,0.2312894616779617,0.0542251109314362,56.1,23.4,34.95
-837.40234,82.51953,-452.14844,-0.2260934419618494,-0.1669388230910804,0.0843353566539172,-10.35,27.15,12.0,425.29297,130.37109,867.67578,0.2895115511293901,0.3084302220893079,0.4472572014514409,45.0,9.75,99.0,-718.26172,-3.41797,709.47266,-0.7269095621692404,0.2563368563062576,0.0706125308771865,56.7,21.15,35.55
-833.98437,96.67969,-481.93359,-0.3791760961213469,-0.0847350370526239,0.041834669505678,-10.35,27.15,12.0,460.9375,187.01172,846.67969,0.2546049660895036,0.0335742006889141,0.4729709627881482,45.15,11.1,99.0,-695.3125,-14.16016,729.49219,-0.7131867363925096,0.330680028459582,0.0778071271197576,54.75,23.25,36.45
-830.56641,104.98047,-490.23437,-0.3983614533909693,-0.0153215473715574,0.0712787230526728,-10.95,26.25,13.5,441.40625,162.59766,877.92969,0.2677947683126752,-0.0799386977352182,0.4748361961597545,45.45,11.1,98.1,-715.82031,-2.92969,713.86719,-0.8049832010657775,0.352529805365299,0.0375711792089063,54.3,22.65,35.25
-862.79297,116.69922,-503.41797,-0.3761118215536204,-0.0444992636746978,0.0655498543159266,-11.55,28.5,12.15,437.5,171.38672,861.81641,0.2975053336364494,-0.1505512286124048,0.4809647452952074,45.45,10.5,97.95,-739.74609,-88.86719,708.00781,-0.7735405709923241,0.2964394610622565,-0.0089264864593249,56.25,22.5,34.8
-876.46484,87.89063,-514.16016,-0.4636447959301164,0.0042633157638465,0.0895313763700295,-10.5,28.05,12.9,452.63672,168.45703,837.40234,0.2570030484817438,-0.1360290420382608,0.4996170790112708,45.15,10.35,98.1,-731.93359,-84.96094,713.86719,-0.756753470647867,0.2400826049824344,0.0089264864593249,57.0,22.2,34.35
-876.46484,102.53906,-511.71875,-0.4680412803158902,0.0603538345998143,0.0325085026476463,-10.5,29.25,13.95,444.82422,160.15625,842.28516,0.2912434413461441,-0.0254472495599277,0.4808315766732802,45.15,10.35,98.1,-742.1875,-66.89453,700.68359,-0.7684777198981388,0.2075742768677131,0.0463644970463041,57.0,22.2,34.05
-877.44141,90.82031,-527.83203,-0.4459249916333936,0.0262466103573411,0.075275701572665,-10.5,29.25,13.95,477.05078,155.27344,870.60547,0.2571362171036709,0.1149786259299572,0.5060123144564285,45.0,11.25,98.25,-719.72656,-122.55859,691.89453,-0.6959999556493459,0.1998468316045083,0.061419532641082,57.0,22.2,34.05
-885.74219,81.05469,-527.34375,-0.5157381617131668,0.0205175670876697,-0.0013323843509724,-10.5,29.25,13.95,410.64453,134.27734,873.53516,0.1502848913685505,0.2348867597992472,0.5198683088550862,43.95,10.8,98.55,-736.81641,-140.625,680.66406,-0.6580290960417329,0.198514621786461,0.0019984019935335,56.4,23.1,34.95
-867.67578,83.49609,-534.17969,-0.5120076949699541,0.0583552580733556,0.0298437339457014,-12.3,29.25,15.0,440.42969,110.83984,896.48437,0.1641408857672083,0.0900643999235885,0.491889808280991,43.95,10.8,98.55,-739.74609,-141.11328,677.73437,-0.6203245736779742,0.1358958734163337,0.0812710820861907,57.45,22.35,34.5
-889.64844,75.68359,-556.64062,-0.4353997835792418,-0.0166539317225298,0.0644839817417337,-10.35,30.15,11.55,467.77344,104.98047,878.41797,0.0835359958565038,0.1528161423827179,0.4857610846126129,45.6,11.1,98.4,-714.84375,-159.66797,698.24219,-0.6263201287244251,0.1564134405040034,0.0274456515534612,55.65,21.6,34.2
-874.51172,90.82031,-573.73047,-0.447790225005,0.0170536121212365,0.0735436368229858,-12.3,29.55,12.9,448.73047,100.09766,882.8125,0.0728774446474996,0.128834620328615,0.4978851887945168,45.6,11.4,97.35,-725.58594,-135.25391,697.75391,-0.5835529297994064,0.1677381838884938,0.0760750623700784,57.45,20.85,34.5
-914.55078,104.00391,-592.77344,-0.4071547712283672,-0.0354394340605204,0.1015221373970809,-12.3,29.55,12.9,445.80078,86.91406,895.50781,0.0911300979648563,0.0917962901403425,0.4603140095856105,45.15,12.9,98.4,-723.63281,-179.6875,708.00781,-0.4958866122680581,0.1133797298022052,0.0546247913301429,55.5,22.2,35.1
-924.80469,120.11719,-607.91016,-0.3915665375471051,-0.0887320155726161,0.1532159973143498,-12.15,29.7,12.3,458.98437,85.9375,902.83203,0.0924624823158288,0.0478300500192038,0.3897014787084239,45.15,12.9,98.4,-734.375,-167.96875,685.54687,-0.4536524368965985,0.1636080367465744,0.0559571756811154,55.5,22.5,35.4
-922.36328,124.51172,-604.49219,-0.371981674411701,-0.1681378642872005,0.1997136629825811,-12.0,31.05,13.2,446.77734,40.03906,885.74219,0.0442327518979182,0.0911300979648563,0.4050230260799813,44.1,11.1,97.65,-743.65234,-189.94141,677.73437,-0.4347335914037555,0.1835925802806851,0.0315757986953806,55.5,22.5,35.4
-889.64844,107.42188,-550.78125,-0.3663859742968821,-0.2514073483669248,0.1149786259299572,-10.35,31.65,13.65,452.63672,34.66797,888.67187,0.0270459711547545,0.1061853080925594,0.3200214772505779,45.6,10.65,97.65,-744.62891,-199.21875,684.08203,-0.3479999778246729,0.1373614263892333,0.0135896571548034,55.65,22.35,34.95
-820.80078,125.0,-489.25781,-0.350264891594986,-0.4107518948167274,0.082603291904238,-12.9,28.95,14.1,453.61328,41.50391,914.55078,0.036238969390859,0.1501515482136981,0.2820506176429648,43.35,11.85,98.85,-741.69922,-182.12891,694.82422,-0.2988377179874219,0.1827932194832717,0.0182526533173567,55.65,22.35,34.95
-769.53125,160.15625,-434.57031,-0.3049662671228748,-0.3149586261563927,0.0126569532025376,-12.9,28.95,14.1,444.82422,47.85156,906.25,0.0668820641339739,0.1762649899491121,0.2514073483669248,44.85,12.6,97.05,-754.39453,-183.10547,689.45312,-0.3362757285744011,0.1713353074768541,0.0057288687367461,56.4,21.6,34.95
-725.58594,164.0625,-417.48047,-0.3434701502840469,-0.1833262430368307,-0.0410353087082646,-11.55,31.05,13.95,429.19922,62.01172,901.36719,0.025713586803782,0.1346968322202135,0.2127702965838255,46.2,11.55,99.0,-738.76953,-184.57031,679.6875,-0.278319976366827,0.1693369054833206,0.0211837592631559,55.8,21.75,34.8
-747.07031,185.05859,-442.38281,-0.2592679622520568,-0.1035207139235396,-0.0327748398915007,-11.85,30.15,13.35,415.52734,58.10547,914.55078,0.0727442760255724,0.1008561197545199,0.2288912047527963,45.45,12.0,98.55,-758.78906,-201.17187,679.19922,-0.2368851617927808,0.1244379614099161,-0.0053291883380394,57.15,21.6,34.95
-791.99219,178.22266,-449.70703,-0.2051760199425478,-0.0142556747973644,-0.0466310088230837,-10.2,31.35,12.9,409.17969,51.75781,896.48437,0.045165455850184,0.1249709849634751,0.1562802718820762,45.45,12.0,98.55,-759.76562,-184.57031,683.10547,-0.1949173236651755,0.1177763887209041,-0.0409019655534123,58.35,22.5,34.35
-806.15234,143.55469,-470.70312,-0.2479433934004916,0.0516936853843436,-0.1145789455312505,-10.2,31.35,12.9,417.48047,58.59375,895.01953,0.0716784034513795,0.0880658233971298,0.1224395594163826,44.55,11.4,97.65,-760.25391,-190.91797,694.33594,-0.1618759719968953,0.0963261176809686,-0.0771409349442713,58.35,22.5,34.35
-840.82031,114.74609,-463.86719,-0.1220398790176759,0.0619525561946411,-0.0868667822010097,-10.65,31.95,13.05,426.75781,52.73438,888.67187,0.0456983048708179,0.0921959705390492,0.0804717212887773,44.7,11.55,97.2,-763.67187,-209.96094,712.89062,-0.1468207618691921,0.0370383301882724,-0.0373046674321268,56.25,21.45,35.4
-856.93359,114.74609,-458.98437,-0.0683476171068735,0.093128674491315,-0.0735436368229858,-11.1,31.2,13.35,442.87109,53.22266,884.76562,0.0330413516682802,0.0555574952824086,0.0920628019171221,44.7,11.55,97.5,-770.01953,-222.16797,692.87109,-0.042900542079871,0.0795390173365115,-0.070346019100407,55.65,21.15,34.2
-863.76953,107.42188,-471.19141,-0.0515605167624164,0.200246512003215,-0.0779402957416847,-10.35,31.2,14.4,441.89453,44.92188,911.13281,0.0173201238980161,0.0211837592631559,0.0037304667432126,44.7,11.55,97.5,-785.64453,-225.09766,693.35937,0.0658161915597809,0.0287778613715085,-0.1107151356331855,55.65,21.15,34.2
-847.65625,106.44531,-511.71875,0.032375159492794,0.1825268822394173,-0.0470306892217904,-9.9,32.1,11.85,426.26953,26.85547,897.94922,0.0270459711547545,0.0776737839649052,-0.0041301471419193,45.9,11.4,98.85,-745.11719,-219.72656,674.31641,0.0325085026476463,0.045165455850184,-0.0869999508229369,57.6,20.25,35.1
-865.72266,125.48828,-521.48437,0.0695466583029936,0.261000027001736,-0.0095926786348112,-9.9,32.1,11.85,436.52344,52.24609,885.74219,-0.0105252080541518,0.0452986244721112,-0.0266462907560478,45.15,10.65,98.1,-747.07031,-213.37891,733.39844,0.075275701572665,-0.0263797789792682,-0.1111148160318922,55.5,21.45,35.4
-889.64844,123.53516,-516.11328,0.0700796818565527,0.3068315004944811,-0.0646171503636608,-10.95,31.35,14.25,450.68359,52.73438,886.71875,-0.0033307863445059,0.0478300500192038,-0.1139127533557643,45.15,10.65,98.1,-744.62891,-210.44922,724.12109,0.1204409828899239,0.0131899767560967,-0.1079173728422385,56.4,20.85,35.55
-901.36719,114.74609,-527.34375,0.1390934911389125,0.2151683789760657,0.0639509581881746,-12.6,31.35,13.5,455.56641,60.54688,889.64844,0.0247810573844414,0.0263797789792682,-0.105385947295146,44.25,12.45,97.2,-745.60547,-199.21875,705.07812,0.2045100022999867,0.0186523337160634,-0.1337641282679478,57.15,20.85,33.45
-880.85937,122.55859,-505.85937,0.1564134405040034,0.2298239087050621,0.040235773377926,-11.4,30.45,13.65,451.66016,81.05469,896.48437,0.0382373713843925,0.0050628510941851,-0.182393539084565,44.25,12.45,98.25,-729.98047,-191.89453,692.38281,0.2331546950495681,-0.116577347524784,-0.0943277156874351,56.55,21.0,35.1
-851.07422,132.8125,-512.69531,0.1390934911389125,0.2959066120416226,0.0519601971611231,-11.4,30.45,13.65,449.70703,99.12109,889.64844,0.0163874199457503,0.0325085026476463,-0.1729342036046061,44.85,12.15,97.65,-707.51953,-194.33594,693.35937,0.2606003466030293,-0.0832694840797242,-0.1275022359776425,58.5,21.15,33.45
-854.49219,127.92969,-522.94922,0.1743997565775057,0.2539387739140173,0.1195084534705833,-10.35,31.65,14.1,461.42578,98.63281,887.20703,-0.0419678381276052,-0.0017320647496791,-0.1874563901787501,44.85,12.15,97.65,-713.37891,-194.33594,709.47266,0.2522067091643382,-0.0674150876875329,-0.1145789455312505,58.5,21.15,33.45
-869.62891,128.90625,-514.64844,0.1882557509761635,0.2117044240096326,0.1100489434576992,-10.95,30.3,13.5,474.12109,98.14453,876.95312,-0.0564900247017492,0.0282450123508746,-0.2131699769825322,44.85,11.85,98.4,-704.58984,-168.45703,721.19141,0.2414149893334068,-0.0447657754514773,-0.1032542021467601,56.4,21.15,35.55
-854.00391,133.30078,-523.4375,0.1320322380511938,0.20917299846254,0.0381042027624654,-11.85,32.4,15.45,478.51562,104.98047,886.23047,-0.052493046181757,0.0519601971611231,-0.243147054083086,46.35,11.85,96.6,-707.51953,-125.97656,693.35937,0.32401845577057,0.0001331686219271,-0.1700030976588069,56.4,21.15,35.55
-836.42578,125.0,-512.69531,0.1809279861116653,0.1107151356331855,0.0691469779042869,-12.3,30.6,13.95,492.67578,110.83984,887.20703,-0.0515605167624164,-0.0021317451483858,-0.2564701994611099,45.75,12.0,97.95,-704.58984,-142.57812,715.33203,0.3078973730686741,-0.0820704428836041,-0.0976585020319411,55.8,21.75,36.15
-828.125,120.11719,-530.27344,0.2324885028740818,0.1195084534705833,0.1320322380511938,-12.3,30.6,13.95,486.81641,115.23438,896.48437,-0.0598208110462552,0.0274456515534612,-0.2423476932856726,46.35,11.4,97.65,-701.66016,-112.79297,720.70312,0.2616662191772222,-0.0997902471803269,-0.1200413024912172,57.3,21.0,34.8
-841.30859,143.55469,-550.78125,0.177330862523305,0.161209779821409,0.0546247913301429,-11.4,31.2,12.6,472.16797,114.74609,892.57812,-0.0756753819713717,0.0353062654385932,-0.2498086267720979,45.15,11.1,98.85,-712.40234,-104.49219,702.63672,0.3879694139587447,-0.0331745202902074,-0.1401591891801802,55.5,20.7,34.8
-828.125,124.51172,-565.42969,0.2819172744881125,0.0989908863829135,0.0460979852695246,-12.6,31.05,12.15,461.42578,126.95313,891.60156,-0.0503614755662963,0.0214502710399355,-0.1826600508613445,46.2,11.25,99.0,-724.12109,-102.53906,690.91797,0.4035574731070817,-0.0063950609122324,-0.1385604675853534,57.3,21.45,35.85
-852.53906,130.85937,-566.89453,0.2141026809347979,0.1251041535854023,0.0941945470655079,-12.15,30.15,13.05,446.28906,125.48828,898.92578,-0.0563568560798221,0.043566559722432,-0.2559371759075509,46.2,11.25,99.0,-745.60547,-92.77344,685.05859,0.3938316258503432,0.0266462907560478,-0.1369617459905266,57.3,21.45,35.85
-836.42578,135.74219,-561.52344,0.1978484296109748,0.0916631215184153,0.0480965617959833,-12.15,30.15,13.05,441.40625,119.62891,906.25,-0.0764747427687851,0.1080505414641657,-0.2797855293397265,46.2,11.25,99.0,-756.83594,-87.40234,715.33203,0.3661194625201025,-0.0230489926347623,-0.0534257501340228,57.0,20.25,35.4
-809.57031,129.88281,-552.24609,0.2272924831579695,0.037970859607613,0.0189188454928429,-13.5,30.15,13.05,434.57031,141.11328,916.50391,-0.0652833425391471,0.0326416712695735,-0.2526063895630449,45.0,12.45,98.25,-747.55859,-83.49609,708.98437,0.4660428783223567,-0.0143890179522168,-0.1541485267336904,57.0,20.25,35.4
-811.52344,129.39453,-554.19922,0.2113047436109259,-0.0298437339457014,0.03064326927604,-13.8,28.5,12.9,431.64062,135.74219,905.76172,-0.0945942274642146,0.0126569532025376,-0.2787198312984588,46.35,12.15,98.4,-736.81641,-101.5625,709.47266,0.2619325564210766,-0.0299770771005538,-0.1821270273077855,57.6,20.25,34.35
-835.44922,127.92969,-544.92187,0.1716018192536337,0.0249142260063686,-0.0732771250462063,-10.95,30.6,13.95,431.15234,147.46094,898.92578,-0.1101822866125516,0.025713586803782,-0.2387503951643871,46.5,12.0,97.5,-757.8125,-103.02734,709.96094,0.2716585782107402,-0.0476967068643514,-0.1332312792473139,55.2,21.0,34.35
-828.61328,118.65234,-553.71094,0.2470106894482258,-0.0097258472567384,-0.007860613885132,-11.85,29.7,11.55,434.08203,135.74219,907.22656,-0.1111148160318922,0.0207840788644492,-0.2632649407720491,45.45,12.75,98.25,-755.85937,-72.26563,723.63281,0.352529805365299,-0.077540615342978,-0.0249142260063686,55.65,22.65,35.25
-831.54297,112.79297,-551.26953,0.2656630231642893,-0.0454317930940384,0.0099923590335179,-11.85,29.7,11.55,424.80469,143.55469,890.13672,-0.057422728654015,-0.0267794593779749,-0.2797855293397265,46.2,11.55,98.55,-737.30469,-68.35938,696.77734,0.3805084804723193,-0.0992572236267679,-0.1225727280383097,56.4,23.1,35.55
-831.54297,102.53906,-547.85156,0.1926524098948624,-0.0199847180670358,-0.0218499514386422,-11.85,29.7,11.55,423.82812,131.34766,895.99609,-0.0802052095119978,-0.0279785005740951,-0.3208208380479913,47.1,11.4,98.85,-726.07422,-84.96094,734.375,0.4150153851134992,-0.1227058966602369,-0.0916631215184153,56.4,23.1,35.55
-842.28516,110.35156,-553.71094,0.1815941782871516,-0.1337641282679478,-0.0177198042967228,-12.45,28.65,13.35,440.42969,148.4375,903.32031,-0.0869999508229369,-0.0091929982361045,-0.3317457265008497,47.1,11.4,98.85,-721.19141,-93.26172,735.83984,0.4046233456812746,-0.1145789455312505,-0.143356806902759,56.55,21.75,33.3
-840.82031,120.11719,-560.54687,0.2472772012250054,-0.1305666850782942,-0.0255804181818548,-12.6,29.85,14.25,465.82031,149.41406,890.625,-0.1393598283827668,-0.0339738810876208,-0.2370183304147079,46.35,11.4,96.3,-712.40234,-108.39844,741.21094,0.2508744993462909,-0.1328315988486072,-0.1259035143828157,56.4,21.15,35.25
-848.63281,114.74609,-541.01562,0.167871352510421,-0.1841256038342442,0.0143890179522168,-12.9,30.15,11.25,457.03125,130.37109,896.48437,-0.0876661429984231,-0.0151883787496302,-0.3214870302234775,44.55,12.15,98.4,-710.44922,-104.00391,712.89062,0.4118177673909204,-0.1994471512058016,-0.2244947203670226,56.4,21.15,35.25
-842.77344,124.02344,-550.78125,0.2451454560766195,-0.215301722130918,0.0103920394322246,-12.9,30.15,11.25,486.81641,127.44141,881.34766,-0.1167105161467112,-0.0514271736075641,-0.2875129746029314,47.25,11.25,96.15,-708.49609,-120.60547,739.25781,0.402091920134182,-0.2123706161851188,-0.3655866134994686,57.15,21.15,34.2
-865.23437,113.28125,-558.59375,0.1978484296109748,-0.3017688239332212,0.052493046181757,-11.85,29.7,13.35,471.19141,125.97656,893.55469,-0.0692803210591393,-0.068081105330094,-0.3392066599872751,47.25,11.25,96.15,-709.96094,-127.44141,737.79297,0.489091870957119,-0.1401591891801802,-0.4331346952760035,57.15,21.15,34.2
-855.95703,95.21484,-558.59375,0.1473537854227512,-0.340272532561468,-0.0031976177225788,-12.6,30.3,11.85,477.05078,116.69922,904.29687,-0.1005896079777403,-0.0464976656682313,-0.4508544995727264,47.1,11.4,98.4,-694.33594,-120.60547,723.63281,0.5387871543479291,-0.1011224569983742,-0.3019019925551483,56.1,20.55,33.9
-873.04687,107.91016,-579.10156,0.0993905667816202,-0.3278820911357099,-0.014522186574144,-11.25,31.05,13.5,479.49219,133.30078,891.60156,-0.1472204422678988,-0.0912634411197086,-0.4164807635534737,45.45,9.3,98.55,-690.42969,-113.28125,737.30469,0.2945742276906501,-0.1005896079777403,0.0907304175661496,56.25,20.25,34.05
-889.16016,96.67969,-590.33203,0.2287580361308692,-0.4412618209379152,0.08420218803199,-11.85,29.7,13.35,496.58203,120.11719,889.64844,-0.1709356270781474,-0.0812710820861907,-0.3409387247369543,45.45,9.3,98.55,-708.49609,-105.95703,720.70312,0.3887687747561581,-0.0656830229378538,-0.3456018954324327,57.15,20.85,33.9
-937.98828,102.05078,-600.09766,0.0929953313364626,-0.6452389742172681,0.0462311538914518,-11.85,29.7,13.35,495.11719,132.32422,872.55859,-0.1749326055981396,-0.0887320155726161,-0.3372082579937416,46.2,10.05,97.5,-708.98437,-93.75,714.35547,0.350264891594986,0.0446324322966249,0.2061087238948135,55.5,22.5,35.4
-951.66016,104.00391,-614.25781,0.1546815502872494,-0.770076616025891,0.1548147189091766,-11.25,31.35,13.5,471.19141,140.625,891.11328,-0.3013691435345145,-0.054091942309509,-0.2825834666635987,46.35,11.1,98.1,-696.77734,-69.82422,712.89062,0.5150719695376805,-0.1160443239712249,-0.0503614755662963,55.5,22.5,35.4
-992.67578,72.75391,-588.37891,0.0985910314512816,-0.97978263804199,0.2984380375887152,-10.95,28.5,14.55,486.32812,146.48437,888.18359,-0.1432236382808319,-0.0406354537766327,-0.3775773745265201,45.15,9.9,98.85,-682.12891,-27.83203,716.30859,0.5938116260767787,-0.1005896079777403,-0.3070980122712606,57.0,21.45,35.85
-885.74219,31.73828,-449.70703,0.1011224569983742,-0.9937718010625748,0.1384272989634262,-10.95,27.75,12.15,478.51562,143.06641,902.83203,-0.1795957762936181,-0.0010658725741929,-0.5355895366253504,45.15,9.9,98.85,-703.61328,-29.29688,744.14062,0.6221898070495806,-0.1091164140383586,-0.5205345010305724,57.0,21.45,35.85
-752.92969,54.6875,-359.375,0.1721348428071927,-0.8845222184022891,-0.0996569040254746,-10.95,27.75,12.15,458.98437,157.71484,897.46094,-0.2360858009953673,0.0851347174513306,-0.357459487837557,47.25,9.75,98.55,-706.05469,-44.92188,741.69922,0.6002066869890113,-0.0961929490590414,-0.4136830007625268,54.9,20.85,35.25
-675.29297,91.79688,-318.35937,0.1937182824690554,-0.8719984338216785,-0.03064326927604,-9.6,27.45,13.35,416.99219,167.96875,928.71094,-0.1365620655918199,0.022382800459276,-0.4116845987689932,45.9,9.6,97.35,-713.86719,-19.53125,737.79297,0.4707060490178351,-0.0883323351739094,-0.2001133433812878,55.5,19.95,35.1
-686.52344,127.92969,-310.54687,0.196915725658709,-0.6084669812728499,-0.0869999508229369,-9.9,29.55,13.95,411.13281,140.625,919.43359,-0.1745329251994329,0.057422728654015,-0.3241516243924973,46.5,11.25,97.5,-729.49219,-51.26953,732.42187,0.589947990711639,-0.0802052095119978,-0.0979250138087206,55.8,19.5,35.1
-731.44531,148.92578,-355.46875,0.2235620164147568,-0.4385972267688954,-0.1117810082073784,-9.3,28.95,14.7,410.15625,133.30078,928.71094,-0.1496186991930643,0.0227824808579827,-0.2909769295693646,45.6,8.85,98.4,-733.39844,-54.19922,714.35547,0.6609602019875321,-0.0666155523571943,-0.2945742276906501,55.8,19.5,35.1
-824.70703,112.30469,-393.55469,0.2502083071708046,-0.2542052856907969,-0.0710122112758932,-10.2,29.25,13.2,424.31641,104.98047,927.73437,-0.1847917960097304,0.0081271256619115,-0.3073645240480402,46.8,10.05,97.95,-711.91406,-86.91406,715.82031,0.5190689480576728,-0.1376279381660128,0.039569755735365,56.7,19.8,34.5
-915.52734,92.77344,-426.26953,0.1353630243956998,-0.1389601479840601,-0.0566231933236764,-10.2,29.25,13.2,436.03516,116.21094,904.29687,-0.0959264372822619,-0.0071944217096458,-0.3561271034865845,46.35,8.85,98.1,-719.23828,-85.9375,713.86719,0.4372648424179229,-0.0991240550048407,-0.093128674491315,57.0,19.95,35.85
-952.63672,56.15234,-419.92187,0.1502848913685505,-0.1330979360924615,-0.1642740543891354,-9.6,28.65,16.2,451.17187,62.01172,843.75,-0.1697365858820273,0.0029311059457992,-0.3032343769061208,46.35,8.85,98.1,-726.07422,-83.49609,707.51953,0.6963996360480527,-0.1163108357480045,-0.3229525831963771,57.0,19.95,35.85
-957.51953,46.38672,-400.87891,0.2434133913269403,-0.2061087238948135,-0.077007591789419,-9.3,27.9,15.15,432.61719,117.67578,919.43359,-0.0881991665519822,-0.0387702204050264,-0.3571929760607775,46.35,9.6,98.85,-742.1875,-47.85156,730.95703,0.6825436416493948,-0.1396263401595463,-0.0448989440734045,57.3,19.5,33.0
-918.94531,41.99219,-388.67187,0.2053093630974001,-0.1530826541594974,-0.2117044240096326,-8.55,28.65,16.2,481.44531,177.73437,797.85156,-0.0195850376683291,0.1015221373970809,-0.4074211084722215,46.65,8.85,97.05,-728.51562,-75.68359,729.49219,0.6453721428391952,-0.200246512003215,-0.2322219910973023,57.3,19.5,33.0
-904.29687,44.92188,-362.30469,0.2780536391229726,-0.1370949146124538,-0.1477534658214579,-8.55,28.65,16.2,470.70312,166.50391,815.91797,-0.1806614743348858,-0.0002665117767795,-0.3766446705742543,46.35,9.6,97.05,-708.98437,-64.94141,767.08984,0.672018433595243,-0.1688040564626867,-0.2440795835024266,57.0,21.45,35.4
-892.57812,48.33984,-361.32812,0.2490092659746846,-0.0042633157638465,-0.0331745202902074,-6.9,27.9,14.4,477.53906,168.45703,905.76172,-0.1576124817001235,-0.0177198042967228,-0.4088866614451211,46.35,9.6,97.05,-688.47656,-27.34375,704.10156,0.6874731495887276,-0.1774640311452322,-0.2708590428804016,56.4,19.05,34.5
-889.64844,62.01172,-371.58203,0.190254152969697,0.1251041535854023,-0.1208406632886305,-9.6,27.45,14.4,445.80078,101.5625,822.75391,-0.0542251109314362,-0.0398360929792193,-0.4311362932824701,47.25,8.55,98.25,-712.40234,-72.26563,719.23828,0.6144625363193009,-0.2202312300702509,-0.3425374463317811,56.4,19.05,34.5
-887.20703,71.28906,-396.97266,0.2462113286508125,0.1933186020703487,-0.0774072721881257,-8.1,27.75,15.3,425.29297,127.44141,875.97656,-0.0923293136939016,-0.0967257980796753,-0.4327350148772969,45.9,8.85,97.65,-699.21875,-49.80469,761.71875,0.4938882102745245,-0.2450122874546923,-0.1749326055981396,58.2,20.85,33.45
-912.10937,47.85156,-397.46094,0.2519401973875587,0.2078407886444927,-0.0862005900255235,-7.5,27.9,13.65,408.69141,131.34766,846.67969,-0.1593445464498027,-0.0648836621404404,-0.3890352865329376,45.9,8.85,97.65,-664.0625,-59.08203,717.28516,0.6622924118055794,-0.2756553821978072,-0.2175666359012311,57.0,20.7,35.1
-935.05859,41.50391,-417.96875,0.200779535556774,0.3936982826954909,-0.0936615235119489,-9.9,27.3,13.2,411.13281,151.85547,919.92187,-0.1937182824690554,-0.1652067583414012,-0.3743797568039412,47.1,8.85,98.85,-690.91797,-63.96484,726.07422,0.6415085074740554,-0.3537290210943443,-0.1938514510909826,57.0,20.7,35.1
-933.59375,47.85156,-431.64062,0.2003798551580673,0.3285482833111962,-0.0171867807431637,-9.9,28.5,13.95,436.03516,145.01953,915.52734,-0.1474869540446784,-0.1457548892949992,-0.4238085284179719,46.35,9.9,98.85,-684.57031,-82.51953,776.36719,0.6784134945074755,-0.312294031987373,-0.1413584049092255,56.7,20.85,35.25
-917.96875,37.59766,-426.75781,0.2458116482521058,0.3073645240480402,0.0862005900255235,-9.6,26.1,13.35,443.35937,127.92969,892.08984,-0.2430137109282336,-0.1585451856523893,-0.3889019433780853,47.1,8.1,98.85,-684.08203,-56.64063,741.21094,0.7631485315600993,-0.2672619192920413,-0.3971624121948492,56.7,20.85,35.25
-895.99609,31.73828,-408.69141,0.1765313271929664,0.3705161214388014,0.0077274452632048,-10.05,26.1,13.65,472.16797,127.44141,887.20703,-0.2099723592599534,-0.1941179628677621,-0.4244747205934581,47.1,8.1,98.85,-673.82812,13.67187,762.20703,0.6918698085074265,-0.3377411070143755,-0.2803185528932856,55.8,21.0,35.85
-876.46484,35.64453,-419.43359,0.2049096826986934,0.3958300278438768,0.0298437339457014,-10.05,26.1,13.65,445.3125,104.00391,904.78516,-0.237551353968267,-0.3774440313716677,-0.4260734421882849,47.1,8.1,98.85,-676.26953,-53.22266,791.01562,0.6367121681566498,-0.2347534166443949,-0.355860591709805,56.55,19.95,35.1
-849.60937,53.22266,-414.55078,0.1838590920574646,0.3727810352091144,0.0634181091675407,-8.4,27.3,15.0,515.625,140.625,940.91797,-0.1554809110846628,-0.2110382318341463,-0.4155482341341331,46.35,9.9,98.4,-691.40625,-32.22656,756.34766,0.6255205933940865,-0.2584686014546434,-0.1982481100096814,57.0,21.0,35.4
-844.23828,69.33594,-432.12891,0.1676048407336414,0.3751791176013546,-0.0069280844657914,-9.9,27.75,13.5,460.44922,129.39453,903.32031,-0.2158345711515519,-0.3209540066699184,-0.4247412323702376,47.1,8.85,98.85,-662.10937,-5.85937,760.74219,0.6191255324818542,-0.2920428021435576,-0.1609432680446295,56.55,21.45,35.1
-847.65625,60.05859,-446.77734,0.1192419416938038,0.4279386755598912,0.0868667822010097,-9.0,28.2,13.05,495.60547,122.07031,894.04297,-0.1676048407336414,-0.3594578898310905,-0.446724352430807,47.25,7.05,96.9,-677.24609,-41.99219,782.22656,0.7346370074324452,-0.1814610096652244,-0.1502848913685505,55.8,22.5,36.45
-855.95703,68.35938,-469.72656,0.2045100022999867,0.3895681355535715,0.0624854052152749,-10.35,27.15,13.35,485.83984,145.01953,861.32812,-0.200246512003215,-0.2348867597992472,-0.3951638356683905,46.5,7.5,98.55,-674.31641,33.20313,755.85937,0.7369019212027582,-0.1664057995375213,-0.1614762915981885,56.7,20.1,34.95
-844.72656,49.31641,-491.69922,0.1436233186795386,0.3871700531613313,0.0767412545455646,-10.35,27.15,13.35,476.07422,138.18359,861.81641,-0.2859142530081047,-0.2061087238948135,-0.3705161214388014,46.65,7.65,98.85,-663.57422,8.78906,760.25391,0.6548314783191541,-0.0727442760255724,-0.0243813769857347,56.7,20.1,34.95
-853.02734,53.71094,-494.14062,0.1429571265040523,0.4632449409984845,0.0051960197161123,-11.1,26.1,13.35,490.23437,133.30078,908.69141,-0.3025681847306345,-0.2191653574960579,-0.3881025825806719,46.65,8.1,98.4,-654.78516,59.08203,768.06641,0.697598851777098,0.0010658725741929,-0.0740764858436197,56.4,20.1,34.95
-884.27734,51.26953,-514.64844,0.1755987977736259,0.3478668092027458,-0.0046631706954784,-10.5,25.5,12.45,472.16797,143.55469,906.25,-0.2191653574960579,-0.1526829737607907,-0.3751791176013546,46.65,8.1,98.4,-687.5,139.16016,763.18359,0.6208575972315332,0.0734104682010586,-0.0421010067495324,57.9,22.35,34.95
-859.375,18.55469,-523.4375,0.1634746935917221,0.3213536870686251,0.0210505906412288,-11.55,27.3,11.85,491.69922,148.4375,918.45703,-0.1921193863413034,-0.1901209843477699,-0.3456018954324327,44.1,7.65,96.6,-694.33594,79.58984,739.74609,0.547180617253695,-0.0339738810876208,0.045165455850184,55.65,20.85,35.55
-850.58594,31.73828,-513.67187,0.1512174207878911,0.3284149401563438,-0.0189188454928429,-11.4,26.1,12.6,472.65625,158.20312,911.13281,-0.228624867508942,-0.1544150385104699,-0.3256171773653969,46.2,7.8,98.55,-660.64453,171.38672,775.39062,0.5539755330975593,-0.0149218669728507,-0.0070612530877186,54.3,21.9,35.55
-855.46875,42.96875,-514.16016,0.1657396073620351,0.2518070287656315,0.0350397536618137,-11.4,26.1,12.6,479.00391,154.29687,897.94922,-0.2247610576108769,-0.1542816953556175,-0.3328115990750427,45.9,6.9,98.4,-693.35937,107.91016,750.0,0.4898912317545323,-0.0187856768709157,-0.0226493122360556,56.1,22.35,34.5
-845.70312,18.55469,-513.67187,0.2486095855759778,0.2391500755630938,0.0058622118915985,-9.9,27.75,13.5,475.58594,142.57812,901.36719,-0.2364854813940741,-0.1149786259299572,-0.2719249154545945,46.8,7.5,99.0,-685.54687,137.69531,746.09375,0.5194686284563794,-0.1191087730718766,-0.0317089673173077,57.0,21.75,36.15
-839.35547,41.50391,-521.97266,0.2031776179490143,0.2540719425359445,-0.0053291883380394,-11.85,26.1,12.3,462.89062,121.09375,882.8125,-0.1697365858820273,-0.1287014517066878,-0.2526063895630449,45.15,8.1,100.2,-667.48047,153.80859,759.27734,0.4319356540798835,-0.060753514998521,0.0440995832759911,57.0,21.75,36.15
-836.91406,18.55469,-549.80469,0.2268928027592628,0.2077074454896403,-0.0447657754514773,-12.0,25.8,12.9,461.91406,129.39453,869.14062,-0.1168438593015635,-0.0651499993842947,-0.2701930252378405,45.45,7.5,98.55,-690.91797,92.28516,750.0,0.4226094872218518,-0.0155880591483369,0.0403691165327784,55.5,21.75,36.15
-864.74609,32.71484,-533.20312,0.211437912232853,0.2042434905232072,-0.032908183046353,-12.0,25.8,12.9,438.96484,111.81641,904.78516,-0.1179097318757565,-0.096459460835821,-0.2495421149953184,45.45,7.5,98.55,-657.71484,116.69922,715.82031,0.3653201017226891,-0.0655498543159266,0.1067181571131932,55.5,21.75,36.15
-856.44531,18.06641,-538.57422,0.193584939314203,0.2343537362456882,-0.1688040564626867,-11.25,27.3,11.1,406.73828,110.83984,854.98047,-0.2279586753334558,-0.045165455850184,-0.2296907400831349,45.45,7.05,97.2,-632.8125,90.82031,792.96875,0.2996370787848353,-0.0123904414257581,0.0747426780191059,56.55,22.5,35.1
-853.02734,21.97266,-544.92187,0.2851148922106912,0.122173047639603,-0.023448673033469,-13.5,24.9,12.3,435.54687,153.80859,866.69922,-0.0960597804371143,-0.0369049870334201,-0.2490092659746846,45.45,6.3,97.95,-651.36719,95.21484,735.83984,0.4115512556141409,0.0291777163031404,0.0634181091675407,55.5,21.75,36.15
-867.67578,27.34375,-536.62109,0.229290885151503,0.1120475199841579,-0.0873996312216436,-11.25,26.25,12.15,446.28906,151.36719,870.11719,-0.0604870032217414,-0.0317089673173077,-0.2586017700765706,46.8,6.0,98.25,-636.71875,97.16797,733.39844,0.3205543262712117,-0.0425006871482391,0.0229158240128351,55.5,21.75,36.15
-855.95703,13.18359,-529.29687,0.2210305908676643,0.1505512286124048,-0.1095160944370653,-11.85,26.1,11.55,468.26172,165.03906,847.65625,-0.1097826062138449,-0.0106585512090041,-0.1821270273077855,46.8,6.0,98.25,-661.13281,104.98047,749.51172,0.3204211576492846,0.0102588708102974,0.0009327039522657,55.65,21.9,33.9
-857.91016,5.85937,-502.92969,0.313493073183493,0.0816707624848974,-0.0932618431132422,-11.85,26.1,11.55,461.91406,172.36328,848.63281,-0.1085833904847996,0.0269126279999021,-0.1993139825838744,46.5,7.05,98.25,-652.83203,82.51953,752.44141,0.2827166352855259,-0.0988575432280612,0.0235820161883213,57.0,22.2,36.15
-840.82031,2.44141,-487.30469,0.3180229007241191,0.1135130729570576,-0.0952604196397009,-12.45,25.65,12.6,465.33203,177.73437,862.79297,-0.0727442760255724,-0.0892648645932499,-0.1923858981180829,45.75,6.3,99.0,-648.92578,81.05469,744.62891,0.2631317721501219,-0.014522186574144,-0.0559571756811154,56.7,23.85,34.95
-833.98437,1.95312,-478.02734,0.3486661700001592,0.1318988948963414,-0.0984578628293545,-11.4,25.65,12.6,485.83984,161.62109,866.21094,-0.0523598775598298,-0.070346019100407,-0.1446891912537315,45.75,6.3,99.0,-660.64453,94.23828,779.78516,0.2805850646700651,0.0357059458372999,-0.0434333911005048,56.1,20.85,34.5
-822.26562,-16.60156,-494.62891,0.3481333209795254,0.1608100994227023,-0.1265697065583019,-10.95,24.3,11.4,476.5625,161.62109,869.14062,-0.1092495826602858,-0.0378376909856858,-0.1147121141531777,45.45,7.8,97.5,-665.03906,92.28516,746.58203,0.3076308612918945,0.0470306892217904,-0.1025880099712739,56.1,20.85,34.5
-822.26562,14.64844,-481.44531,0.3497320425743521,0.1436233186795386,-0.1032542021467601,-12.9,25.65,12.0,480.95703,158.20312,878.41797,-0.0798055291132911,-0.0949939078629213,-0.13776110678794,47.1,7.35,98.1,-657.22656,91.30859,730.95703,0.2936416982713096,-0.0042633157638465,-0.0472970264656447,57.15,22.65,34.2
-842.28516,24.90234,-521.97266,0.314558945757686,0.1849249646316576,-0.1596110582265822,-11.4,24.6,12.6,468.26172,168.94531,879.39453,-0.059687642424328,-0.1092495826602858,-0.0984578628293545,45.6,5.4,99.45,-657.22656,101.07422,746.09375,0.2816509372442581,0.0126569532025376,-0.0423675185263119,57.3,22.2,35.4
-823.73047,35.64453,-535.15625,0.3270827303382965,0.1837259234355374,-0.1237717692344298,-11.85,24.9,13.35,472.16797,158.20312,886.71875,-0.0576890658978693,-0.0688804661275074,-0.0783399761403914,45.6,5.4,99.45,-677.24609,117.67578,738.76953,0.3153583065550994,0.0285115241276541,-0.0619525561946411,54.6,22.65,35.25
-844.72656,13.18359,-533.20312,0.3364088971963282,0.1878560705774568,-0.1609432680446295,-11.1,24.6,12.3,469.23828,163.08594,871.58203,-0.0858009096268168,-0.0691469779042869,-0.0722112524720134,45.9,6.9,99.45,-686.03516,88.37891,729.98047,0.2745895096236143,0.0043966589186989,0.0017320647496791,56.1,22.35,34.2
-850.58594,23.92578,-557.61719,0.2745895096236143,0.2483430737991983,-0.1504180599904777,-10.5,24.0,11.85,453.61328,165.52734,876.95312,-0.0738101485997654,-0.0438330714992115,-0.0586217698501351,45.9,6.6,99.45,-691.89453,101.07422,730.46875,0.2455451364753262,0.0149218669728507,-0.0154548905264097,56.25,24.0,34.05
-870.60547,0.97656,-571.28906,0.3108284790144733,0.2073077650909336,-0.1067181571131932,-10.5,24.0,11.85,442.87109,155.27344,898.4375,-0.037970859607613,-0.0479632186411309,-0.059154618870769,45.9,6.15,98.1,-692.87109,120.60547,742.67578,0.2022450885296737,-0.0317089673173077,-0.0083936374386911,55.65,23.4,34.2
-887.20703,-6.83594,-587.89062,0.2675282565358956,0.1966493884148547,-0.0847350370526239,-11.25,23.25,12.9,444.82422,145.50781,902.34375,-0.0350397536618137,-0.063684446411395,-0.0536922619108023,45.75,5.25,98.55,-701.17187,103.02734,755.85937,0.2051760199425478,-0.006128723668378,0.0014655529728996,55.65,23.4,34.2
-897.94922,-11.23047,-592.28516,0.1741332448007262,0.1889219431516497,-0.1079173728422385,-12.3,22.95,12.45,446.28906,141.60156,902.34375,0.0026645941690197,-0.0615528757959344,-0.0921959705390492,46.5,5.55,99.0,-708.98437,101.07422,764.64844,0.22196329481993,-0.0988575432280612,0.0426340303030914,55.8,21.75,35.4
-901.85547,-12.20703,-574.21875,0.2318223106985956,0.1685375446859072,-0.0138559943986577,-12.3,24.75,11.85,479.98047,136.71875,923.82812,0.052493046181757,-0.0957932686603347,-0.1237717692344298,46.2,6.3,99.0,-703.125,97.65625,777.83203,0.215301722130918,-0.1263031947815224,0.0310429496747467,55.8,21.75,35.4
-876.46484,-24.90234,-562.98828,0.1737335644020195,0.1160443239712249,-0.0932618431132422,-10.95,23.7,10.35,476.07422,131.34766,923.33984,0.0021317451483858,-0.0503614755662963,-0.1530826541594974,46.2,6.3,99.0,-701.66016,81.05469,777.83203,0.2617993877991494,-0.0726111074036452,-0.0155880591483369,56.1,23.4,33.9
-875.0,-23.92578,-570.3125,0.093128674491315,0.1104486238564059,-0.1429571265040523,-11.55,23.25,12.15,466.79687,137.20703,905.27344,0.0113245688515652,-0.0371714988101996,-0.132165406673121,46.2,6.3,99.0,-708.98437,60.05859,768.06641,0.2628652603733424,-0.1184425808963904,0.0162542513238231,54.9,21.6,34.95
-849.12109,-12.69531,-563.96484,0.1285681085518354,0.0698131700797731,-0.0659495347146333,-12.9,23.4,13.35,470.21484,141.11328,894.53125,0.0674150876875329,-0.0373046674321268,-0.1629418445710882,45.75,6.3,99.3,-672.85156,80.56641,755.85937,0.2652633427655826,-0.1139127533557643,-0.0010658725741929,56.55,20.7,34.8
-827.14844,-27.83203,-557.61719,0.0628850856139816,0.0385038831611721,-0.1072511806667523,-13.05,24.0,11.1,457.51953,142.57812,899.90234,0.0634181091675407,-0.069680001457846,-0.1577458248549758,46.8,6.0,100.05,-681.15234,97.16797,746.58203,0.294441059068723,-0.1131133925583509,-0.0059953805135257,54.75,22.2,34.05
-839.35547,-16.60156,-568.84766,0.0209172474863764,0.063018428768834,-0.0768744231674918,-12.45,22.35,13.35,479.00391,146.48437,892.08984,0.025713586803782,-0.0678147680862396,-0.1783965605645728,45.75,6.0,99.0,-655.76172,103.02734,736.32812,0.2474103698469326,-0.1692037368613934,-0.0390367321818059,55.8,22.95,35.1
-854.98047,-18.06641,-564.94141,-0.0142556747973644,0.0575558972759422,-0.089797888146809,-12.45,22.35,13.35,451.17187,147.94922,881.83594,-0.0013323843509724,-0.0446324322966249,-0.1272358987337882,45.75,6.0,99.0,-666.50391,115.72266,748.53516,0.2984380375887152,-0.1265697065583019,-0.0559571756811154,55.35,20.85,33.9
-834.47266,-20.50781,-581.54297,0.0221164632154217,-0.0014655529728996,0.0584886012282079,-12.6,22.95,11.1,462.40234,150.87891,867.1875,-0.0057288687367461,-0.0253139064050753,-0.1121806886060851,46.35,4.95,98.85,-638.67187,138.67187,724.12109,0.2355527774418083,-0.1119141768293056,-0.0519601971611231,55.35,20.85,33.9
-835.9375,-25.39063,-560.54687,-0.0748760211739583,0.0534257501340228,-0.0572893854991626,-12.0,22.5,11.4,457.03125,152.34375,865.72266,0.0029311059457992,0.016787100344457,-0.1131133925583509,45.15,4.95,97.35,-620.60547,164.0625,718.75,0.1746660938213601,-0.1228392398150893,-0.1177763887209041,56.7,22.65,34.5
-836.91406,-45.41016,-561.03516,-0.0488959225933967,-0.0229158240128351,-0.0099923590335179,-14.85,25.5,10.8,442.87109,196.77734,886.23047,-0.0406354537766327,-0.0245145456076619,-0.1071178375118999,45.15,4.95,97.35,-654.29687,198.24219,763.18359,0.1585451856523893,-0.1966493884148547,-0.0714118916745999,55.35,23.4,34.5
-841.30859,-54.6875,-559.08203,-0.0399694361340717,-0.0495619402359577,0.1080505414641657,-13.35,22.95,11.85,475.09766,191.40625,881.34766,-0.0345069046411798,-0.0722112524720134,-0.058088746296576,45.75,5.25,99.0,-579.58984,256.34766,571.28906,0.0911300979648563,0.0945942274642146,-0.1376279381660128,55.35,23.4,34.5
-797.36328,-44.92188,-554.19922,-0.0846018684306967,-0.0546247913301429,0.027312482931534,-13.35,22.95,11.85,472.16797,244.14062,879.39453,-0.0067947413109391,0.0177198042967228,0.0467641774450108,45.45,7.5,98.55,-718.75,238.28125,717.77344,-0.0985910314512816,0.1075176924435318,-0.0979250138087206,55.5,23.7,35.4
-768.55469,-63.47656,-574.21875,-0.0847350370526239,-0.014522186574144,0.0342403928644003,-11.55,24.75,11.1,404.78516,253.90625,883.78906,-0.0153215473715574,0.0294440535469947,0.1492190187943576,46.8,3.3,98.25,-638.67187,274.41406,717.77344,-0.3053659475215814,0.0443659205198454,-0.0254472495599277,55.65,21.9,34.2
-806.64062,-41.99219,-579.58984,-0.0161209081689708,-0.0138559943986577,0.0635512777894679,-12.0,23.25,10.35,421.38672,245.60547,858.39844,-0.0784731447623186,0.0038636353651398,0.2506079875695113,46.8,3.3,98.25,-649.41406,261.71875,791.99219,-0.428871379512157,-0.0170536121212365,-0.0488959225933967,54.9,23.1,34.95
-850.09766,-47.36328,-573.73047,-0.0814042507081179,0.0217166082837898,0.0259800985805615,-12.45,23.4,12.0,469.23828,237.30469,893.06641,0.0142556747973644,-0.0075941021083525,0.2106385514354396,45.75,6.3,99.0,-719.72656,251.95312,832.51953,-0.4784333197481148,-0.0270459711547545,0.0602204914449619,56.4,23.4,35.25
-881.34766,-17.08984,-562.5,-0.0564900247017492,-0.0550244717288496,0.0270459711547545,-11.4,23.1,10.65,466.30859,226.07422,895.99609,0.0083936374386911,0.0149218669728507,0.2339540558469814,45.0,3.75,99.0,-664.55078,247.55859,672.85156,-0.3863706923639179,0.0832694840797242,0.0255804181818548,56.4,23.4,35.25
-834.47266,34.17969,-521.48437,-0.0146553551960711,-0.1117810082073784,-0.0014655529728996,-11.4,23.1,10.65,449.21875,227.05078,846.19141,0.007860613885132,0.059154618870769,0.2941745472919434,46.65,6.15,99.45,-719.23828,205.56641,693.35937,-0.5112083341725407,-0.0358392889921523,0.1782633919426456,56.55,21.45,35.1
-801.26953,13.67187,-513.67187,-0.0405022851547056,-0.1514839325646706,-0.0486294108166172,-11.85,23.85,10.2,487.30469,192.87109,835.9375,0.0519601971611231,0.0157212277702641,0.2632649407720491,44.85,5.7,98.1,-679.19922,172.36328,683.10547,-0.5964762202457985,-0.1147121141531777,0.1397595087814735,56.55,21.45,35.1
-785.15625,12.69531,-521.97266,-0.0901975685455157,-0.1203078142679967,-0.0746095093971788,-12.45,23.1,11.55,487.79297,187.01172,850.09766,0.1028545217480534,0.0197182062902563,0.3025681847306345,45.75,4.05,99.0,-666.50391,137.69531,743.16406,-0.665889709926865,-0.0887320155726161,0.1746660938213601,56.25,21.75,35.4
-830.56641,15.625,-540.52734,-0.0899310567687362,-0.1618759719968953,-0.0846018684306967,-12.0,24.0,12.15,505.37109,167.48047,854.98047,0.0836691644784309,0.0294440535469947,0.3101622868389871,45.0,5.25,99.3,-676.26953,75.68359,775.39062,-0.7266432249253859,-0.096459460835821,0.1871898784019706,55.2,21.0,35.4
