IMU1_AccX,IMU1_AccY,IMU1_AccZ,IMU1_GyrX,IMU1_GyrY,IMU1_GyrZ,IMU1_MagX,IMU1_MagY,IMU1_MagZ,IMU2_AccX,IMU2_AccY,IMU2_AccZ,IMU2_GyrX,IMU2_GyrY,IMU2_GyrZ,IMU2_MagX,IMU2_MagY,IMU2_MagZ,IMU3_AccX,IMU3_AccY,IMU3_AccZ,IMU3_GyrX,IMU3_GyrY,IMU3_GyrZ,IMU3_MagX,IMU3_MagY,IMU3_MagZ
-808.59375,-40.52734,-299.31641,0.0534257501340228,0.3073645240480402,-0.0854012292281101,-6.45,25.35,14.7,474.60937,120.60547,881.34766,0.0297105653237742,-0.0819372742616769,-0.0972588216332344,47.25,6.3,98.25,-658.69141,-45.41016,764.64844,0.3789095843445673,0.0255804181818548,-0.2985712062106423,54.45,20.25,39.0
-792.48047,-74.21875,-352.53906,0.0598208110462552,0.3754456293781342,-0.1128468807815713,-7.2,26.7,15.45,458.98437,108.88672,908.20312,-0.0171867807431637,-0.0656830229378538,-0.0676814249313873,45.9,6.9,98.85,-659.17969,-20.99609,725.09766,0.4080873006477077,0.1322985752950481,-0.3217533674673318,54.45,20.25,39.0
-853.51562,-83.49609,-413.08594,0.1047197551196597,0.3685175449123427,-0.0824701232823108,-7.2,26.7,15.45,457.03125,133.30078,905.76172,-0.0433002224785777,-0.132165406673121,-0.0214502710399355,46.2,6.3,98.55,-682.12891,-43.45703,798.33984,0.4917564651261387,0.1566799522807829,-0.3286814519331233,55.2,19.95,37.5
-897.46094,-72.75391,-447.75391,0.0868667822010097,0.3789095843445673,-0.1239051123892822,-5.55,26.25,16.35,454.10156,161.13281,915.03906,-0.110981647409965,-0.1743997565775057,-0.0250473946282958,45.9,6.9,98.4,-636.71875,-50.29297,814.94141,0.5919463927051724,0.2689938095087952,-0.2669954075152617,54.9,20.55,37.35
-932.61719,11.23047,-452.63672,0.0888651841945432,0.357459487837557,-0.0766079113907123,-6.9,26.1,14.7,457.03125,140.13672,935.54687,-0.1159111553492978,-0.0975253334100139,-0.0054625314928918,45.6,7.65,98.85,-630.85937,-22.46094,846.19141,0.7058591460609367,0.3913002003032507,-0.2606003466030293,56.1,20.85,37.05
-940.91797,53.22266,-458.49609,0.1012558001532266,0.2711255546571811,-0.0427671989250186,-6.45,24.9,14.7,473.63281,122.07031,917.48047,-0.1618759719968953,-0.0858009096268168,-0.0289112045263608,46.35,5.7,99.15,-686.52344,4.88281,836.91406,0.8858546027532616,0.425540593167651,-0.2055758748741797,54.0,21.0,37.5
-944.82422,54.19922,-448.24219,0.0651499993842947,0.1975819178341952,-0.014522186574144,-6.0,25.05,16.35,502.44141,110.83984,899.41406,-0.1167105161467112,-0.187989239199384,-0.0263797789792682,46.35,5.7,99.15,-685.54687,-51.75781,807.12891,1.1467212866001453,0.3405390443382476,-0.1885222627529431,55.5,20.25,36.45
-938.47656,22.94922,-432.12891,-0.0612863640191548,0.1686707133078344,-0.1009892883764471,-6.0,25.05,16.35,527.34375,74.70703,879.39453,-0.0571562168772355,-0.0945942274642146,-0.0018652333716063,46.35,5.7,99.15,-627.44141,-74.21875,792.48047,1.183226593234859,0.0405022851547056,-0.1405590441118121,55.2,21.0,37.2
-917.96875,-6.34766,-421.38672,-0.0436999028772844,0.1012558001532266,-0.0627519169920545,-5.7,26.7,14.1,506.83594,39.0625,845.21484,-0.0688804661275074,-0.0475635382424242,-0.0087933178373978,46.35,6.6,99.15,-605.46875,-105.95703,785.64453,1.0237488781631288,0.0985910314512816,-0.1537488463349836,55.2,21.0,37.2
-900.39062,-37.10938,-415.03906,-0.0967257980796753,0.0560903443030425,-0.0732771250462063,-7.65,27.0,14.55,516.60156,31.73828,852.05078,-0.0824701232823108,-0.0302434143444081,-0.0033307863445059,46.2,8.25,99.75,-639.64844,-145.01953,729.98047,0.8380245527340577,0.2647304937449487,-0.1778637115439389,57.0,20.7,36.15
-888.67187,-35.15625,-428.71094,-0.1271025555789358,0.0426340303030914,-0.0575558972759422,-5.1,26.7,14.4,504.88281,-6.83594,857.91016,-0.1540153581117632,-0.0639509581881746,-0.1081837100860929,45.15,5.7,97.35,-686.52344,-95.70313,716.30859,0.7027946969602851,0.1610766111994818,-0.0684807857288007,57.0,20.7,36.15
-889.16016,-36.62109,-448.24219,-0.0190520141147701,0.0033307863445059,-0.0155880591483369,-5.1,26.7,14.4,481.93359,-34.66797,889.64844,-0.1385604675853534,-0.096459460835821,-0.1257703457608885,45.15,5.7,97.35,-678.71094,-75.68359,759.76562,0.567165335320731,0.032908183046353,-0.0425006871482391,57.15,19.35,34.5
-904.78516,-19.04297,-458.49609,-0.0185191650941362,0.0119907610270514,-0.0626187483701273,-7.2,27.15,14.4,478.02734,-56.64063,892.57812,-0.2223629752186367,-0.0905972489442224,-0.1322985752950481,44.55,6.6,99.45,-681.15234,-24.90234,737.79297,0.5583721920162583,-0.0827366350590903,0.0286446927495813,55.5,21.0,34.8
-899.41406,-35.15625,-482.42187,-0.0247810573844414,0.0588882816269146,-0.1041869060990259,-6.15,25.65,14.7,466.30859,-52.73438,905.27344,-0.0919296332951949,-0.0933951862680945,-0.1847917960097304,45.6,5.4,98.85,-643.06641,2.44141,712.40234,0.4872266375855126,-0.1265697065583019,0.0217166082837898,56.25,21.75,35.1
-893.55469,-37.10938,-494.62891,0.0210505906412288,0.0310429496747467,0.0093261668580317,-6.3,26.55,14.55,445.3125,-97.16797,885.25391,-0.1101822866125516,-0.0876661429984231,-0.1934517706922759,45.6,5.4,98.85,-681.64062,-45.41016,702.14844,0.315624818331879,-0.1021883295725672,0.0305099261211876,55.2,20.7,36.15
-915.03906,-54.6875,-503.90625,0.0455651362488907,0.0534257501340228,-0.027312482931534,-8.25,27.45,15.75,380.85937,-98.63281,945.80078,-0.1670719917130076,-0.1229724084370164,-0.2616662191772222,45.9,5.4,99.45,-662.10937,-37.10938,718.26172,0.268860640886868,-0.1474869540446784,-0.0194516945134768,55.2,20.7,36.15
-927.24609,-83.98438,-493.16406,0.0466310088230837,0.0944608843093623,-0.1293674693492489,-8.25,27.45,15.75,377.44141,-92.77344,934.57031,-0.018385996472209,-0.0746095093971788,-0.2984380375887152,46.2,6.75,100.05,-682.12891,-47.85156,780.27344,0.2127702965838255,-0.0662158719584876,-0.0723445956268657,55.8,21.75,36.15
-932.12891,-82.03125,-491.69922,0.0936615235119489,0.0386370517830992,-0.0175864611418704,-8.25,27.45,15.75,400.87891,10.74219,906.25,-0.0720780838500862,0.0366386497895657,-0.351863787722738,45.9,5.4,99.15,-694.82422,-2.44141,765.13672,0.1949173236651755,-0.0479632186411309,-0.0106585512090041,55.8,21.75,36.15
-919.92187,-99.12109,-486.81641,0.1205743260447762,-0.0026645941690197,0.0635512777894679,-6.0,27.75,15.0,455.56641,3.41797,973.63281,-0.0215834396618626,0.041834669505678,-0.3782433921690811,45.9,5.4,99.15,-698.73047,3.41797,772.46094,0.1766646703478188,-0.0822036115055313,-0.086467101802303,55.8,21.75,36.15
-923.82812,-100.09766,-478.51562,0.1164441789028568,0.0602204914449619,-0.0113245688515652,-6.9,26.1,14.7,458.00781,47.85156,944.33594,-0.1060521394706322,0.0054625314928918,-0.3322787500544089,45.0,5.25,98.25,-689.94141,23.92578,781.73828,0.1171101965454179,-0.0610198522423753,-0.0075941021083525,55.35,21.6,34.5
-908.20312,-95.70313,-475.58594,0.1883889195980907,-0.0237151848102485,0.0650168307623675,-6.45,25.35,13.65,534.66797,95.70313,847.65625,0.032908183046353,0.041301645952119,-0.3337443030273085,43.8,6.15,98.85,-706.54297,40.52734,765.625,0.1223062162615302,-0.118842261295097,-0.1372282577673061,56.1,21.9,36.6
-916.50391,-110.35156,-486.81641,0.1690703937065411,-0.0149218669728507,0.0319754790940873,-6.45,25.35,13.65,567.38281,157.22656,894.53125,-0.1982481100096814,-0.1008561197545199,-0.2115712553877054,43.8,6.15,98.85,-685.05859,55.66406,764.16016,0.1204409828899239,-0.1905206647464766,-0.1048529237415869,55.35,21.9,35.55
-924.80469,-94.72656,-485.83984,0.1509510835440367,0.0215834396618626,0.031309286918601,-6.45,25.35,14.4,529.29687,131.34766,849.60937,0.004529827540626,-0.0293108849250675,-0.2344869048676153,46.2,5.25,99.3,-688.96484,39.0625,789.55078,0.1175098769441246,-0.17346705262524,-0.0993905667816202,56.25,21.0,35.85
-942.38281,-81.05469,-476.5625,0.2102388710367329,-0.0221164632154217,0.0957932686603347,-7.05,25.05,14.25,649.90234,161.13281,901.36719,-0.1362955538150403,-0.023981696587028,-0.1341638086666545,44.55,6.6,98.85,-681.15234,55.17578,776.85547,0.1303001733015146,-0.1318988948963414,-0.0776737839649052,55.65,21.15,36.3
-930.17578,-97.16797,-441.89453,0.2090398298406128,-0.0262466103573411,0.0564900247017492,-8.1,24.75,15.0,511.71875,100.58594,926.26953,0.0515605167624164,-0.0807380585326316,-0.1694700741052478,45.75,5.25,99.0,-680.17578,58.10547,777.34375,0.0856677410048896,-0.089797888146809,-0.0940612039106556,56.55,22.5,36.45
-927.24609,-58.59375,-416.50391,0.1692037368613934,0.0375711792089063,0.0130566336012443,-7.65,24.75,13.95,392.57812,-20.01953,894.04297,-0.1702694349026612,-0.0141225061754373,-0.0941945470655079,45.75,5.25,99.0,-674.80469,78.125,782.71484,0.0382373713843925,-0.0411684773301918,-0.0896645449919567,56.55,22.5,36.45
-880.85937,-28.80859,-397.94922,0.1923858981180829,-0.0860674214035963,0.0655498543159266,-7.65,24.75,13.95,452.63672,70.80078,895.50781,-0.0450321126953316,0.0049295079393327,-0.1271025555789358,45.45,5.25,99.0,-665.52734,84.96094,779.29687,0.1120475199841579,0.0287778613715085,-0.1204409828899239,55.65,21.6,35.25
-846.67969,-28.80859,-363.28125,0.1783965605645728,-0.0003996803987067,0.0277121633302407,-6.9,26.1,14.7,451.66016,62.5,909.17969,-0.0439662401211387,-0.0916631215184153,-0.1366952342137471,46.35,6.15,99.45,-669.43359,112.79297,759.27734,0.1229724084370164,-0.0258469299586344,-0.0945942274642146,55.65,21.6,35.25
-845.70312,0.48828,-356.93359,0.1087167336396519,0.0555574952824086,0.0342403928644003,-8.1,25.5,14.25,501.95312,112.79297,891.60156,0.0363721380127862,-0.1216401986189692,-0.2155680593747724,45.0,5.55,98.25,-628.90625,116.21094,778.32031,0.1067181571131932,-0.0278453319521679,-0.0506278128101507,54.75,21.0,36.45
-837.40234,-11.71875,-358.88672,0.0154548905264097,0.1160443239712249,-0.0503614755662963,-7.05,24.0,15.6,522.94922,122.55859,875.97656,-0.005595700114819,-0.0446324322966249,-0.1462879128485583,44.1,4.95,99.45,-601.07422,121.58203,778.32031,0.0812710820861907,-0.0169204434993094,-0.0033307863445059,55.2,22.5,35.1
-871.58203,-31.25,-378.41797,0.0250473946282958,0.1185757495183175,-0.0334410320669869,-7.05,24.0,15.6,543.94531,138.18359,886.23047,0.0310429496747467,-0.132165406673121,-0.1303001733015146,44.55,4.65,99.15,-594.72656,123.53516,769.04297,0.0365053066347134,-0.0195850376683291,-0.0075941021083525,56.4,22.35,36.0
-902.83203,-16.11328,-413.57422,0.0568897051004559,0.0939280352887284,0.0119907610270514,-6.0,25.8,14.25,562.01172,166.50391,892.57812,0.0285115241276541,-0.1414915735311527,-0.1180429004976836,44.25,4.5,99.0,-560.05859,113.76953,761.23047,0.0586217698501351,0.0671485759107534,0.0305099261211876,55.2,21.45,36.15
-905.27344,-18.06641,-416.99219,-0.0021317451483858,0.1015221373970809,-0.0157212277702641,-6.45,24.9,15.15,540.52734,160.64453,851.5625,0.0189188454928429,-0.0768744231674918,-0.1067181571131932,44.25,4.5,99.0,-586.91406,92.28516,736.32812,0.0195850376683291,0.1354961930176269,-0.0299770771005538,55.35,20.55,36.3
-912.59766,-10.25391,-455.07812,0.0189188454928429,-0.0070612530877186,0.0301102457224809,-7.5,24.6,13.65,523.4375,142.57812,825.19531,0.0054625314928918,-0.0067947413109391,-0.0888651841945432,44.7,4.8,99.75,-581.54297,73.24219,764.64844,0.0021317451483858,0.1063184767144865,-0.0355727772153728,55.65,21.15,36.6
-918.94531,-14.16016,-472.16797,0.0299770771005538,-0.0527595579585365,0.0001331686219271,-8.4,25.5,15.0,523.4375,139.64844,808.59375,0.1108484787880378,0.0373046674321268,-0.1412250617543731,44.7,4.8,100.05,-611.81641,56.15234,776.36719,0.0576890658978693,0.1825268822394173,0.0038636353651398,55.65,21.15,36.6
-937.5,-14.16016,-481.44531,-0.0106585512090041,-0.0474303696204971,0.0007993607974134,-8.4,25.5,15.0,505.85937,143.55469,848.14453,0.0470306892217904,0.093128674491315,-0.1179097318757565,44.7,5.55,99.3,-647.94922,48.33984,756.34766,0.0743429976203992,0.1981147668548291,0.0159877395470436,55.8,20.7,36.9
-914.55078,-3.41797,-474.12109,0.0654165111610742,-0.1670719917130076,0.0099923590335179,-6.15,27.15,13.65,485.83984,138.67187,875.48828,0.0419678381276052,0.1153783063286639,-0.1055191159170731,44.7,5.55,99.3,-662.10937,36.13281,742.67578,0.1113813278086717,0.1368284028356742,0.0409019655534123,56.25,21.75,35.85
-905.27344,-1.46484,-468.75,0.0422343499043847,-0.1450888716524382,-0.0159877395470436,-6.15,25.35,13.35,472.16797,124.02344,897.46094,0.0122572728038309,0.1437564873014657,-0.1161776671260773,44.7,5.25,99.3,-686.52344,28.80859,755.37109,0.0903307371674429,0.1682710329091277,-0.0225161436141284,56.1,22.65,36.3
-870.11719,-4.88281,-467.28516,-0.0154548905264097,-0.148952507017578,-0.0662158719584876,-7.2,24.9,14.1,447.26562,114.74609,903.80859,-0.0010658725741929,0.0812710820861907,-0.0834028272345766,46.35,4.95,99.15,-725.58594,5.37109,762.69531,0.1089830708835063,0.0486294108166172,-0.0205175670876697,56.55,21.0,34.8
-873.04687,6.83594,-472.16797,0.0237151848102485,-0.1540153581117632,0.0041301471419193,-7.2,24.9,14.1,439.94141,105.95703,899.41406,-0.0126569532025376,0.132165406673121,-0.1139127533557643,46.35,4.95,99.15,-717.77344,30.27344,751.95312,0.1564134405040034,0.0206509102425221,-0.0237151848102485,55.65,22.35,35.55
-886.23047,-13.18359,-471.67969,0.0247810573844414,-0.1216401986189692,0.0390367321818059,-7.05,24.75,14.25,428.22266,88.86719,902.83203,-0.0203843984657425,0.11990813386929,-0.0795390173365115,45.9,4.65,100.2,-727.53906,25.87891,755.37109,0.1276355791324949,0.0250473946282958,-0.0109248884528585,55.65,21.6,35.25
-901.36719,-39.0625,-467.77344,0.0002665117767795,-0.0604870032217414,-0.0687472975055802,-6.6,24.3,13.2,416.01562,78.125,929.6875,-0.0069280844657914,0.0949939078629213,-0.0952604196397009,45.15,4.95,99.45,-737.79297,37.10938,760.74219,0.0960597804371143,-0.0043966589186989,0.0411684773301918,55.65,21.6,35.25
-893.55469,-47.36328,-490.72266,0.070346019100407,-0.1227058966602369,0.0122572728038309,-6.6,25.05,15.0,403.32031,62.5,912.10937,-0.0270459711547545,0.0762082309920056,-0.1033873707686873,46.2,5.25,99.0,-718.26172,37.10938,764.16016,0.152283293362084,-0.0707458740320389,-0.037970859607613,56.1,21.6,35.25
-903.32031,-45.89844,-470.21484,0.0584886012282079,-0.1077840296873862,0.0812710820861907,-7.95,23.85,14.7,406.73828,49.31641,935.54687,0.0095926786348112,0.0258469299586344,-0.1144456023763981,46.2,5.25,99.0,-707.03125,8.78906,772.94922,0.210771894590292,-0.054091942309509,-0.041301645952119,56.1,22.65,35.25
-888.18359,-48.82813,-430.17578,0.041301645952119,-0.0562235129249697,-0.032375159492794,-7.95,23.85,14.7,429.6875,63.96484,925.29297,-0.0130566336012443,0.0271791397766816,-0.1533491659362769,46.2,5.25,99.0,-724.60937,-7.32422,770.50781,0.1681378642872005,-0.1312327027208552,-0.0157212277702641,56.1,22.65,35.25
-869.14062,-17.57813,-430.66406,0.0514271736075641,-0.1099157748357721,-0.0017320647496791,-7.2,24.15,14.1,434.57031,58.10547,926.75781,-0.0178529729186499,0.0130566336012443,-0.1566799522807829,44.1,4.95,99.15,-712.40234,-18.06641,767.08984,0.2053093630974001,-0.1692037368613934,-0.0046631706954784,55.35,22.35,36.0
-860.35156,2.92969,-406.73828,0.0576890658978693,-0.0628850856139816,0.0246477142295891,-6.3,25.5,14.25,440.91797,29.29688,922.85156,-0.0351730968166661,0.0211837592631559,-0.2226293124624911,45.45,6.0,101.1,-686.03516,-59.57031,769.53125,0.2075742768677131,-0.1989143021851677,0.011191400229638,55.8,21.0,34.8
-850.58594,1.95312,-380.37109,0.0285115241276541,-0.039569755735365,-0.0086599746825454,-7.65,24.75,13.95,463.86719,2.44141,900.87891,-0.0382373713843925,-0.0370383301882724,-0.2033109611038666,44.7,4.05,99.75,-658.69141,-29.78516,788.57422,0.2791195116971655,-0.1441561677001724,-0.0077274452632048,54.6,23.1,36.3
-850.58594,-16.11328,-365.23437,-0.0229158240128351,-0.0049295079393327,-0.0582220894514284,-7.65,24.75,13.95,458.98437,12.20703,887.20703,-0.0059953805135257,-0.0225161436141284,-0.2629984289952695,45.9,5.4,99.15,-643.55469,-0.48828,732.91016,0.308963245642867,-0.1075176924435318,-0.0117244237831971,55.5,22.5,36.45
-801.26953,3.90625,-388.18359,0.006128723668378,-0.0218499514386422,-0.0747426780191059,-4.65,25.35,15.15,464.35547,22.46094,848.63281,-0.1209740064434829,-0.0421010067495324,-0.2825834666635987,45.15,5.4,98.4,-636.23047,54.19922,719.72656,0.3958300278438768,-0.0606201718436686,-0.027312482931534,54.9,22.65,36.3
-774.90234,12.20703,-417.48047,-0.0590214502488418,0.0598208110462552,-0.1405590441118121,-6.45,24.9,14.1,433.59375,19.04297,825.19531,-0.1722680114291199,-0.0267794593779749,-0.2596676426507636,44.85,5.4,98.4,-633.78906,73.73047,735.35156,0.4527197329443327,-0.016787100344457,0.0715452348294523,54.75,22.2,36.45
-823.24219,0.48828,-424.80469,-0.0350397536618137,0.1136462415789847,-0.1267028751802291,-6.0,24.75,14.25,435.54687,60.05859,836.91406,-0.1738667330239467,-0.0154548905264097,-0.2945742276906501,44.85,5.4,98.4,-650.87891,110.83984,763.67187,0.4804318962745735,0.0640843013430269,0.114312433754471,54.75,22.2,36.45
-862.30469,14.16016,-430.17578,0.0598208110462552,0.0846018684306967,-0.1300336615247351,-5.7,24.6,13.65,514.64844,102.53906,933.10547,-0.1801286253142519,0.016787100344457,-0.3851714766348726,45.75,5.25,99.3,-661.62109,129.39453,787.59766,0.5354563680034231,0.0640843013430269,0.1212403436873373,55.8,22.2,34.8
-880.85937,0.97656,-458.49609,0.0274456515534612,0.1164441789028568,-0.1803951370910315,-5.7,24.6,13.65,562.98828,173.82812,1003.90625,-0.2212971026444438,0.050761155965003,-0.3217533674673318,45.6,5.7,97.65,-671.38672,151.85547,858.39844,0.6311164680418307,0.0487625794385443,0.1460214010717788,54.9,22.65,36.0
-924.31641,-38.08594,-476.07422,0.0944608843093623,0.1161776671260773,-0.2246278889889497,-5.7,24.6,13.65,509.27734,208.00781,985.83984,-0.2069080846922269,0.0455651362488907,-0.23981626773858,45.45,5.25,99.0,-674.31641,236.81641,887.20703,0.7283752896750652,0.0347734164179594,0.1417580853079322,55.35,22.65,34.2
-947.26562,-67.87109,-465.33203,0.205842212118034,-0.0154548905264097,-0.2291577165295759,-5.55,23.7,14.55,475.09766,219.23828,961.91406,-0.2085068062870538,0.0159877395470436,-0.1893216235503565,44.1,5.4,99.9,-701.17187,236.32812,860.35156,0.9098361248073644,-0.0539585991546566,0.1670719917130076,54.75,23.7,36.15
-941.89453,-99.12109,-445.3125,0.2851148922106912,-0.0472970264656447,-0.3130933927847864,-7.05,24.75,15.6,515.625,268.06641,959.47266,-0.1729342036046061,-0.0163874199457503,-0.1682710329091277,45.6,4.95,99.15,-631.83594,315.42969,832.51953,0.9226262466318292,-0.1421577657066389,0.1409587245105188,55.2,22.5,34.8
-945.80078,-106.93359,-431.15234,0.3825068824658528,-0.1424242774834185,-0.2721914272313741,-7.5,24.15,14.4,533.69141,250.48828,952.14844,-0.140026020558253,0.0126569532025376,-0.1706692898342931,45.9,4.2,99.15,-504.39453,230.95703,725.09766,0.770076616025891,0.0999234158022541,0.1244379614099161,55.5,23.7,35.4
-969.72656,-93.26172,-452.63672,0.4892250395790461,-0.2681944487113818,-0.2034441297257938,-7.5,24.15,14.4,540.03906,224.60937,843.26172,-0.046897346066938,0.0782068075184643,-0.0640843013430269,45.9,4.2,99.15,-586.42578,232.91016,724.60937,0.3926324101212979,0.3817075216684394,0.0751423584178126,55.5,23.7,35.4
-996.58203,-90.33203,-482.42187,0.4198115498979796,-0.2827166352855259,-0.1569464640575625,-6.0,24.0,14.55,540.03906,238.28125,746.58203,-0.0643506385868813,0.1049862668964393,0.0314426300734534,45.15,4.95,98.85,-635.25391,324.70703,548.82812,0.5076110360512552,0.2720582586094469,0.1544150385104699,55.5,23.25,35.1
-955.56641,-64.94141,-484.375,0.4908239357067981,-0.3256171773653969,-0.1753322859968463,-7.2,22.65,14.4,489.25781,183.59375,749.51172,-0.1169770279234907,0.0182526533173567,0.1148452827751048,46.5,3.75,99.75,-600.58594,315.91797,620.11719,0.0259800985805615,0.0884655037958365,0.1231057515918688,55.5,23.25,35.1
-961.91406,-62.98828,-505.37109,0.4957534436461309,-0.4179464910592985,-0.1464210814704855,-6.3,22.5,14.55,481.93359,187.01172,669.43359,-0.0251807377831481,-0.1654732701181807,0.1366952342137471,47.4,3.9,99.15,-555.66406,304.19922,632.8125,-0.3220198792441113,-0.0818039311068246,0.1676048407336414,55.2,24.0,34.05
-1034.17969,-93.75,-442.87109,0.4108850634386546,-0.387569733560038,-0.2334212068263476,-6.45,23.4,13.35,461.42578,259.27734,724.60937,-0.1434899755246862,0.0724777642487929,0.1737335644020195,47.4,3.9,99.15,-558.59375,312.5,732.91016,-0.7306400289124529,-0.1064518198693389,0.1133797298022052,55.35,22.65,34.95
-1029.78516,-119.14063,-384.76562,0.3651867585678368,-0.4419280131134014,-0.2507411561914385,-6.45,23.4,13.35,454.58984,264.16016,813.47656,-0.2085068062870538,0.1620091406188224,0.2419480128869659,45.6,4.2,98.4,-584.96094,293.45703,722.65625,-0.8778606457132772,-0.0908637607210019,0.077540615342978,54.9,23.4,35.25
-917.48047,-127.92969,-313.96484,0.3408055561150271,-0.4868269571868059,-0.2149020417322114,-5.7,22.35,16.2,436.03516,230.46875,972.16797,-0.0576890658978693,0.0776737839649052,0.2684609604881613,46.35,3.9,99.9,-588.86719,220.70312,663.08594,-0.9045069364693248,-0.0427671989250186,0.1116478395854512,55.65,23.4,34.2
-778.80859,-86.91406,-298.82812,0.1837259234355374,-0.3766446705742543,-0.2327550146508613,-6.0,21.75,15.0,375.48828,117.1875,912.59766,-0.029044373148288,0.0822036115055313,0.3189556046763849,46.35,3.9,99.9,-651.85547,146.97266,696.77734,-0.9350168625905124,0.0730107878023519,0.0892648645932499,56.4,22.35,34.95
-780.76172,-61.03516,-355.95703,0.0771409349442713,-0.2883123354003449,-0.1833262430368307,-4.5,22.5,14.25,362.79297,59.08203,855.46875,0.0246477142295891,0.1405590441118121,0.3130933927847864,45.0,4.05,99.75,-660.15625,61.03516,748.04687,-0.9331516292189062,0.0082602942838387,0.2242282085902431,55.2,23.25,35.4
-860.35156,-98.14453,-390.13672,-0.0302434143444081,-0.1605435876459228,-0.1289677889505422,-4.5,22.5,14.25,351.5625,-13.67187,865.72266,0.0983246942074273,0.1388269793621329,0.2582020896778639,46.35,4.95,99.15,-699.21875,31.73828,786.13281,-0.7784700789316569,0.0014655529728996,0.182393539084565,55.2,23.25,35.4
-921.875,-103.51563,-432.61719,-0.1517504443414501,-0.0956601000384076,-0.1478866344433851,-5.4,20.85,13.65,375.97656,21.48438,900.87891,0.0791393369378048,0.0604870032217414,0.2428805423063064,45.45,4.5,99.75,-715.82031,39.55078,790.52734,-0.7627488511613927,-0.0997902471803269,0.2198315496715442,55.2,23.25,35.4
-937.98828,-109.375,-444.82422,-0.2612665387785156,-0.085934078248744,-0.1305666850782942,-5.4,21.9,14.4,423.33984,50.78125,860.83984,0.0867336135790826,0.0063950609122324,0.1845252842329509,45.45,4.5,99.75,-715.82031,59.08203,813.47656,-0.6489692664275555,-0.1370949146124538,0.231955653853448,54.3,23.1,35.25
-926.26953,-116.69922,-444.82422,-0.2904440805487308,-0.1088499022615791,-0.0692803210591393,-4.35,22.35,15.45,449.70703,30.76172,883.30078,0.1268362183350815,0.0474303696204971,0.1093829258151382,45.0,4.5,99.75,-729.00391,62.98828,780.76172,-0.5629020195568845,-0.1728008604497538,0.2619325564210766,54.3,23.1,35.25
-904.29687,-124.51172,-423.33984,-0.4593813056333446,-0.0899310567687362,-0.2079739572664199,-6.0,21.45,13.5,474.12109,88.37891,900.39062,0.2404824599140662,0.1279019163763492,0.0763415741468579,43.95,4.5,100.05,-728.51562,114.74609,769.53125,-0.5537090213207798,-0.2260934419618494,0.2456784796301786,56.1,23.4,34.95
-883.78906,-136.71875,-409.66797,-0.4673752626733291,-0.0891316959713228,-0.266595727116555,-6.0,21.45,13.5,484.86328,136.71875,982.91016,0.1096492630589925,0.1670719917130076,0.1630750131930153,45.75,4.5,99.75,-739.25781,145.50781,799.31641,-0.6187258520831475,-0.1593445464498027,0.2522067091643382,55.2,22.2,35.4
-876.95312,-125.48828,-416.50391,-0.4720382588358823,-0.1309663654770009,-0.264330813346242,-3.6,23.1,15.75,511.71875,145.99609,1002.92969,0.0555574952824086,0.1432236382808319,0.2327550146508613,47.1,4.2,99.45,-719.72656,192.87109,792.96875,-0.5852848200161606,-0.0731439564242791,0.2422143501308202,54.6,24.15,36.6
-897.94922,-93.26172,-375.48828,-0.5493123624020809,-0.0851347174513306,-0.2987043748325695,-4.65,22.35,15.15,515.625,134.76562,1048.82813,0.0259800985805615,0.1637412053685016,0.2178331476780106,46.8,4.5,99.75,-757.8125,228.02734,802.73437,-0.6260536169476456,0.096459460835821,0.2539387739140173,55.2,23.7,36.45
-842.28516,-82.03125,-354.49219,-0.6172602991102478,-0.0560903443030425,-0.3814410098916599,-4.05,21.6,15.15,479.49219,129.88281,1114.74609,0.0706125308771865,0.0616860444178615,0.3015023121564416,46.35,3.15,99.15,-736.32812,177.24609,810.05859,-0.576624845333615,0.1552143993078833,0.2003798551580673,55.2,23.7,36.45
-832.03125,-74.70703,-378.41797,-0.5967427320225781,-0.0771409349442713,-0.2987043748325695,-4.05,21.6,15.15,475.09766,136.71875,1104.00391,0.0955267568835552,-0.0578224090527217,0.3678515272697816,46.35,3.15,99.15,-682.61719,121.09375,807.61719,-0.5475804721853269,0.2065084042935202,0.2184991653205717,54.3,23.85,34.95
-859.86328,-82.51953,-393.55469,-0.6632251157578453,-0.073676805444913,-0.4783001511261876,-6.15,24.15,14.4,452.63672,148.4375,1042.96875,0.0935283548900217,-0.0366386497895657,0.4036906417290088,46.35,3.15,99.15,-658.20312,118.16406,779.29687,-0.4082204692696349,0.2785864881436065,0.245411967853399,54.3,23.85,34.95
-916.99219,-87.89063,-428.22266,-0.7090565892505903,-0.0612863640191548,-0.4669755822746224,-3.6,23.4,15.45,489.25781,130.85937,965.82031,0.0863337586474507,0.0178529729186499,0.4798988727210144,45.9,4.2,99.15,-613.28125,99.60938,764.16016,-0.4471240328295137,0.4012925593367686,0.2255604184082903,54.45,25.05,36.15
-953.125,-119.14063,-418.45703,-0.6508346743320872,-0.2062418925167407,-0.4896247199777528,-4.35,23.4,16.2,532.71484,123.04688,941.89453,0.0791393369378048,0.1849249646316576,0.4733706431868549,45.9,4.2,99.15,-600.09766,121.58203,757.8125,-0.4424608621340353,0.4126171281883338,0.264330813346242,54.75,23.25,36.9
-987.30469,-144.04297,-445.80078,-0.6328483582585848,-0.2771209351707068,-0.5255971775918323,-4.65,23.1,16.2,532.71484,92.77344,878.41797,0.0743429976203992,0.3758453097768409,0.4848285551932724,46.8,4.5,99.0,-585.9375,71.77734,757.8125,-0.5613032979620576,0.4492557779778995,0.2711255546571811,56.1,23.85,37.35
-1022.46094,-170.89844,-479.49219,-0.626852977745059,-0.3566599525072185,-0.5046799301054559,-4.65,23.1,16.2,480.95703,48.82813,828.61328,0.1205743260447762,0.3406722129601747,0.53199241303699,47.55,5.25,99.75,-598.63281,62.5,775.87891,-0.50134914376095,0.4372648424179229,0.2612665387785156,55.8,24.0,35.4
-1046.38672,-178.71094,-480.95703,-0.5222663912473264,-0.4443262700385668,-0.4071547712283672,-4.05,24.6,15.15,426.75781,53.22266,801.75781,0.2527397327178972,0.2376845225901941,0.4917564651261387,47.1,5.7,99.45,-616.21094,73.24219,739.25781,-0.4740368353623411,0.2819172744881125,0.2402159481372867,56.7,22.65,35.55
-1063.96484,-178.22266,-439.94141,-0.4996170790112708,-0.5025481849570701,-0.3956966846890244,-4.65,23.1,17.25,454.10156,60.05859,769.04297,0.2599341544275431,0.1569464640575625,0.3754456293781342,48.0,4.5,97.5,-599.60937,50.78125,692.87109,-0.5792894395026348,0.3052327788996543,0.2215636144212233,55.35,24.6,36.3
-1009.76562,-187.98828,-397.46094,-0.4789663433016738,-0.5000169339429027,-0.3468009366285529,-3.0,24.6,16.5,448.24219,-3.90625,736.32812,0.2049096826986934,0.1169770279234907,0.428871379512157,48.0,4.5,97.5,-629.88281,-9.76562,678.22266,-0.6455053114611223,0.1970490688135614,0.2386172265424599,55.35,24.6,36.3
-970.21484,-168.94531,-361.81641,-0.4027581123096682,-0.4934885298758178,-0.2343537362456882,-3.3,24.15,15.75,425.29297,4.88281,696.77734,0.3434701502840469,0.1330979360924615,0.4230091676205585,46.65,4.95,98.85,-645.01953,-25.87891,694.82422,-0.8027182872954645,0.0422343499043847,0.214768698577359,54.75,22.95,34.35
-954.58984,-168.45703,-327.63672,-0.3798422882968331,-0.4282051873366708,-0.0788728251610253,-2.1,23.7,17.4,440.91797,-10.74219,700.68359,0.3338774716492356,0.2594013054069092,0.3813078412697328,46.65,4.2,99.9,-651.85547,-36.13281,736.32812,-0.7644809159110718,-0.2262266105837766,0.3040337377035342,54.75,22.95,34.35
-938.47656,-183.10547,-300.29297,-0.32908113233183,-0.3081638848454536,-0.0119907610270514,-2.55,22.65,15.15,402.83203,-20.50781,776.36719,0.3579923368581909,0.2570030484817438,0.3422711090879268,46.8,5.25,99.0,-628.41797,-70.3125,781.25,-0.6577625842649533,-0.2976385022583765,0.2900444001500241,54.75,24.0,36.9
-915.03906,-173.82812,-283.69141,-0.2959066120416226,-0.2639311329475353,0.1011224569983742,-4.35,25.65,15.75,404.78516,-4.39453,834.96094,0.4002266867625757,0.2628652603733424,0.2705927056365472,46.8,5.25,99.0,-656.25,-32.22656,760.25391,-0.6024716007593243,-0.1191087730718766,0.3586585290336772,54.6,24.9,36.6
-881.83594,-164.55078,-298.82812,-0.2824502980416715,-0.1665389681594485,0.2396829245837277,-2.25,24.9,17.25,401.36719,0.48828,833.98437,0.4563170310656183,0.2440795835024266,0.2929755060958233,47.7,6.15,98.4,-753.90625,-8.30078,752.44141,-0.6336477190559981,-0.1193751103157309,0.327349242115076,55.35,23.4,36.3
-925.78125,-111.81641,-313.47656,-0.2765880861500729,0.0266462907560478,0.327349242115076,-2.25,24.9,17.25,434.08203,64.94141,952.14844,0.4214104460257317,0.2480765620224188,0.2093063416173923,46.8,6.3,98.25,-759.27734,-8.78906,794.43359,-0.5649004215504179,-0.1841256038342442,0.3104287986157666,55.5,23.25,36.9
-1007.32422,-108.88672,-345.70312,-0.1982481100096814,0.0919296332951949,0.389834647330351,-2.25,24.9,17.25,482.91016,82.03125,982.91016,0.4292710599108637,0.315624818331879,0.2038438101245005,46.8,6.3,98.25,-739.74609,5.85937,830.07812,-0.5690305686923374,-0.3354761932440624,0.3045665867241681,55.5,23.25,36.9
-1060.54688,-117.1875,-336.91406,-0.1882557509761635,0.0788728251610253,0.4872266375855126,-4.5,23.25,16.05,490.72266,93.26172,1127.92969,0.3246844734131311,0.2916431217448508,0.2552709837320646,47.7,4.95,100.2,-662.10937,42.96875,822.75391,-0.5301271796653837,-0.1207074946667034,0.3246844734131311,54.6,25.65,36.0
-1038.57422,-80.56641,-316.89453,-0.1417580853079322,0.052493046181757,0.5379877935505157,-3.45,24.3,16.35,451.17187,189.94141,949.70703,0.4740368353623411,0.1061853080925594,0.2126371279618983,47.4,6.9,97.65,-632.32422,62.98828,794.43359,-0.5550414056717523,0.1797289449155452,0.2648636623668758,55.5,24.0,36.45
-996.09375,-7.8125,-332.03125,-0.1610766111994818,0.027312482931534,0.5531761723001459,-3.15,26.55,17.1,414.55078,109.375,891.60156,0.4016922397354753,-0.0740764858436197,0.2531394131166039,47.25,7.5,99.0,-670.41016,20.99609,767.57812,-0.5730275472123294,0.2820506176429648,0.2090398298406128,55.5,24.0,36.45
-949.70703,12.69531,-296.875,-0.20917299846254,0.1127137121596442,0.5374547699969566,-4.2,25.5,16.65,459.96094,63.96484,882.32422,0.3954303474451701,-0.0728774446474996,0.1782633919426456,47.25,7.5,99.0,-646.48437,-18.06641,690.42969,-0.46564319792365,0.1989143021851677,0.2195650378947646,54.75,24.0,37.5
-895.99609,29.78516,-281.25,-0.2066415729154474,0.1775971997671594,0.4784333197481148,-3.6,26.4,17.25,478.51562,205.56641,859.375,0.605669218481903,-0.0463644970463041,0.0996569040254746,46.35,7.65,99.15,-650.87891,-63.96484,706.05469,-0.4516538603701397,0.2817841058661853,0.2022450885296737,54.3,24.6,37.35
-873.04687,38.08594,-284.17969,-0.20411032190128,0.2070414278470793,0.5233322638215193,-4.05,26.4,15.45,455.56641,66.89453,933.10547,0.3635880369730099,0.0963261176809686,0.1561469287272238,48.3,7.05,97.5,-666.01562,-43.94531,808.10547,-0.5900811593335661,0.2752557017991005,0.1453552088962925,55.35,23.85,37.05
-862.30469,54.6875,-315.42969,-0.2351530970431016,0.2611331956236632,0.4484564171804862,-4.65,25.65,16.8,501.46484,167.48047,886.23047,0.3280152597576371,0.0967257980796753,0.2027779375503076,48.3,7.05,97.5,-643.06641,-29.29688,792.48047,-0.6008728791644975,0.341338405135661,0.1380276185647195,56.4,24.15,37.35
-886.71875,55.17578,-339.35547,-0.193584939314203,0.3035007141499751,0.403157792708375,-3.75,27.3,17.4,477.05078,112.79297,906.73828,0.1386936362072806,0.2001133433812878,0.2069080846922269,47.55,7.05,97.95,-653.80859,44.92188,783.20312,-0.6028712811580309,0.2134364887593117,0.0996569040254746,57.0,24.75,36.9
-917.48047,30.76172,-366.21094,-0.177330862523305,0.3004364395822487,0.3954303474451701,-3.75,27.3,17.4,462.89062,95.70313,962.89062,0.1153783063286639,0.3611899545807697,0.2881791667784177,46.35,7.65,98.85,-695.80078,20.50781,817.38281,-0.6168606187115411,0.2109050632122192,0.0936615235119489,55.35,24.9,36.3
-934.08203,24.90234,-399.90234,-0.2290245479076487,0.3230857518183043,0.2883123354003449,-5.25,26.25,17.1,433.59375,75.19531,1025.87891,0.1229724084370164,0.3601240820065768,0.2430137109282336,47.1,8.4,98.85,-693.35937,-11.23047,800.78125,-0.5984747967722572,0.4798988727210144,0.057422728654015,55.35,24.9,36.3
-970.70312,17.57813,-431.15234,-0.0952604196397009,0.209706022016099,0.269926513461061,-3.6,27.45,16.5,467.77344,140.625,1064.94141,0.140026020558253,0.1381607871866467,0.2472772012250054,47.1,8.4,98.85,-747.55859,-8.78906,724.12109,-0.582220545448434,0.0858009096268168,0.0923293136939016,55.65,23.4,36.6
-965.33203,28.80859,-431.15234,-0.0750091897958855,0.1709356270781474,0.2640643015694625,-5.4,27.9,16.5,458.98437,145.01953,1051.26953,0.1975819178341952,-0.0011990411961201,0.2154348907528452,47.7,8.4,99.15,-711.91406,18.55469,797.85156,-0.6244548953528188,0.0406354537766327,0.0711455544307456,55.65,23.4,36.6
-950.68359,34.17969,-439.94141,-0.0788728251610253,0.1092495826602858,0.2238285281915364,-4.2,28.5,16.65,411.62109,121.58203,935.05859,0.2173001241244516,-0.0383705400063197,0.2334212068263476,47.4,6.9,99.9,-725.58594,18.06641,783.69141,-0.5182695872602594,0.1441561677001724,0.0676814249313873,55.5,25.8,35.85
-925.78125,44.43359,-412.10937,-0.0166539317225298,0.082603291904238,0.205842212118034,-4.5,26.55,17.1,401.85547,135.25391,896.97266,0.1938514510909826,-0.0121241041819038,0.2371516735695603,48.15,9.6,99.15,-705.07812,-9.27734,756.83594,-0.54984538595564,0.1831928998819784,0.1233720888357231,54.75,23.25,36.9
-898.92578,56.64063,-392.08984,-0.0039969785199922,0.0464976656682313,0.1497518678149914,-4.65,27.15,14.7,427.24609,146.48437,893.06641,0.1755987977736259,-0.0608866836204481,0.2514073483669248,46.65,9.6,98.85,-684.08203,-44.92188,791.01562,-0.5631683568007387,0.1196416220925105,0.1664057995375213,54.9,24.15,35.55
-896.48437,55.17578,-375.97656,-0.0382373713843925,0.0582220894514284,0.1299004929028079,-3.45,28.05,16.35,416.01562,152.34375,895.50781,0.1320322380511938,0.0002665117767795,0.2142358495567251,48.0,8.25,99.75,-665.52734,-32.22656,785.64453,-0.6031377929348105,0.1480199775982374,0.1401591891801802,54.9,23.4,37.05
-860.35156,53.71094,-364.74609,0.0114579120064175,0.0297105653237742,0.1267028751802291,-4.35,28.65,17.85,433.10547,127.44141,893.55469,0.0806048899107045,-0.023448673033469,0.2507411561914385,47.4,8.85,97.65,-698.73047,-62.98828,791.50391,-0.6248545757515255,0.193584939314203,0.1350965126189202,55.2,23.25,35.85
-876.46484,45.89844,-351.07422,-0.0037304667432126,0.0488959225933967,0.075275701572665,-4.35,28.65,17.85,428.71094,151.85547,897.46094,0.0543582795533633,-0.0442327518979182,0.2476768816237121,47.4,8.85,97.65,-697.75391,-75.19531,790.52734,-0.6027381125361038,0.0459648166475974,0.1213736868421896,54.9,24.15,37.65
-874.02344,43.45703,-352.05078,-0.0302434143444081,0.1356293616395541,0.0399694361340717,-4.35,27.45,16.2,443.84766,141.60156,923.82812,0.0871332939777893,-0.070346019100407,0.2038438101245005,46.2,8.25,98.25,-678.22266,-78.125,779.78516,-0.5912802005296861,-0.023981696587028,0.1566799522807829,54.9,24.15,37.65
-882.8125,32.22656,-353.02734,0.0043966589186989,0.0799386977352182,0.0920628019171221,-4.5,27.3,15.3,457.51953,140.625,924.80469,0.0650168307623675,-0.1330979360924615,0.3077642044467469,46.8,8.55,99.75,-639.64844,-42.48047,792.48047,-0.5748927805839358,-0.0358392889921523,0.1632081818149425,55.2,24.0,37.5
-898.92578,5.37109,-351.07422,0.0289112045263608,0.0374380105869791,0.1257703457608885,-5.4,27.45,16.5,459.96094,139.64844,925.78125,0.0740764858436197,-0.2037106415025733,0.2300904204818416,47.1,9.6,97.65,-628.90625,-61.03516,811.52344,-0.5840857788200403,0.0231821612566894,0.2288912047527963,55.2,22.95,36.45
-904.29687,14.64844,-340.33203,-0.069680001457846,0.0655498543159266,0.0409019655534123,-5.7,27.15,15.75,488.76953,176.26953,856.44531,0.0835359958565038,-0.1861240058277777,0.2169004437257448,47.1,9.6,97.65,-666.50391,-62.01172,821.28906,-0.5786232473271485,-0.1080505414641657,0.1736002212471671,55.8,24.3,36.15
-888.18359,4.88281,-340.82031,0.0734104682010586,0.0207840788644492,0.0692803210591393,-5.55,27.0,16.05,475.09766,136.71875,902.83203,0.0508943245869302,-0.1843921156110237,0.2759218939745868,47.1,9.6,97.65,-647.46094,-47.85156,854.49219,-0.5401195386989016,-0.0556906639043358,0.1465544246253378,53.85,23.1,36.3
-878.90625,-7.8125,-348.14453,0.0230489926347623,0.0226493122360556,0.03064326927604,-4.2,27.75,16.35,456.54297,116.69922,876.95312,0.041301645952119,-0.2158345711515519,0.2015788963541875,47.55,7.8,97.95,-704.10156,-97.16797,849.60937,-0.4242082088166786,-0.0652833425391471,0.0951270764848485,53.85,23.1,36.3
-838.37891,-9.76562,-367.67578,0.0071944217096458,0.0893982077481023,-0.0221164632154217,-6.15,29.7,16.5,442.87109,125.0,907.22656,-0.0243813769857347,-0.1490856756395052,0.1915865373206695,45.9,9.6,98.4,-719.72656,-178.22266,852.53906,-0.320154645872505,-0.2363521382392217,0.085934078248744,54.3,24.6,36.6
-825.68359,42.96875,-395.50781,0.1125803690047918,0.1480199775982374,-0.0568897051004559,-5.1,27.45,15.75,432.61719,157.71484,851.5625,-0.020117886688963,-0.1697365858820273,0.1858576685839233,45.9,9.6,98.4,-733.88672,-166.99219,843.75,-0.2192987006509103,-0.0782068075184643,0.0434333911005048,53.85,23.1,37.65
-821.28906,63.47656,-393.55469,0.0475635382424242,0.1558805914833695,-0.0444992636746978,-5.1,27.45,15.75,426.26953,212.40234,906.25,-0.0327748398915007,-0.1745329251994329,0.201845408130967,46.2,10.05,98.25,-794.43359,-189.45312,784.66797,0.0074609334864253,-0.170136266280734,0.1029876903699806,53.85,23.1,37.65
-849.12109,52.73438,-370.60547,0.0034639549664331,0.2251607380095836,-0.03064326927604,-6.0,28.5,15.6,369.62891,101.07422,1023.92578,-0.1300336615247351,-0.2098391906380262,0.1557472483285172,46.65,8.4,98.1,-781.25,-222.65625,837.89062,0.2291577165295759,-0.0702128504784798,0.0492956029921034,55.65,24.15,36.6
-910.15625,47.85156,-370.11719,0.0143890179522168,0.1693369054833206,0.0089264864593249,-4.95,26.25,17.4,466.30859,94.23828,980.46875,-0.1195084534705833,-0.2721914272313741,0.1156446435725182,46.2,8.55,97.2,-788.57422,-213.37891,855.46875,0.3964962200193629,-0.1518836129633773,-0.0317089673173077,55.65,24.15,36.6
-949.70703,43.94531,-379.88281,0.0115910806283447,0.113246561180278,0.0151883787496302,-5.4,27.45,17.25,465.33203,63.96484,988.76953,-0.0802052095119978,-0.2009127041787012,0.1209740064434829,46.2,8.55,97.2,-652.83203,-264.16016,850.09766,0.67095256102105,0.1560137601052967,-0.1445558480988791,53.7,23.7,36.9
-1005.37109,-8.30078,-366.69922,-0.0343737360192527,0.0871332939777893,-0.0706125308771865,-5.25,28.8,16.35,520.01953,-21.97266,914.55078,-0.1213736868421896,-0.1554809110846628,0.0538254305327295,46.65,8.1,98.1,-551.26953,-325.68359,735.35156,0.7873965653909818,0.252073540542411,-0.1396263401595463,54.6,26.1,36.6
-1008.78906,-1.95312,-373.04687,-0.0125237845806105,0.0137228257767306,0.0251807377831481,-4.95,27.75,15.6,570.3125,-34.17969,846.19141,-0.1967825570367818,-0.0823369546603836,0.0005328490206338,45.75,8.25,98.25,-469.23828,-265.13672,726.5625,0.8397564429508116,0.0455651362488907,0.0107917198309313,53.85,24.9,36.6
-1038.57422,9.76562,-354.49219,0.023981696587028,-0.209706022016099,0.0499617951675896,-6.6,28.8,16.65,558.59375,-134.76562,790.52734,-0.1501515482136981,-0.0495619402359577,-0.1446891912537315,45.9,9.15,97.05,-413.08594,-159.17969,752.92969,0.8031179676941711,0.1632081818149425,-0.0087933178373978,54.45,24.0,35.1
-1024.41406,-5.85937,-383.30078,0.0171867807431637,-0.1938514510909826,0.0298437339457014,-4.95,27.0,16.05,602.05078,-67.87109,770.50781,-0.1402925323350325,-0.0019984019935335,-0.1698697545039545,45.0,7.8,98.25,-452.14844,-73.73047,752.44141,0.8223031504308684,0.3241516243924973,0.0107917198309313,55.5,23.7,37.95
-1062.01172,-23.92578,-412.10937,0.0126569532025376,-0.2575358975023777,0.0193185258915496,-5.25,28.5,15.6,550.29297,-65.91797,650.39062,-0.1858576685839233,0.0835359958565038,-0.1938514510909826,45.6,9.15,98.1,-539.55078,35.15625,722.16797,0.8520138902875679,0.3749127803575003,0.0042633157638465,54.45,24.3,37.2
-1087.89063,-33.69141,-411.13281,0.1422909343285661,-0.3515972759459585,0.1422909343285661,-5.25,28.5,15.6,530.76172,8.30078,667.48047,-0.0592879620256213,0.140026020558253,-0.2234288477928296,46.5,7.5,97.2,-561.03516,101.07422,668.94531,0.731173052466012,0.3077642044467469,0.022382800459276,54.45,24.3,37.2
-1061.52344,-52.73438,-397.46094,0.1546815502872494,-0.3368085775950349,0.0644839817417337,-5.25,28.5,15.6,486.81641,92.28516,732.91016,-0.0975253334100139,0.1931852589154963,-0.2307564381244027,46.5,7.5,97.2,-542.48047,134.76562,638.67187,0.4941547220513041,0.3501317229730588,-0.0563568560798221,55.2,24.0,37.5
-1007.8125,-35.15625,-344.72656,0.1737335644020195,-0.2919096335216304,0.0909969293429291,-4.5,27.75,16.65,458.98437,175.29297,729.98047,-0.0832694840797242,0.1997136629825811,-0.2535390935153107,46.2,9.0,97.95,-583.00781,187.01172,611.32812,0.2159679143064043,0.5723613550368432,-0.085934078248744,55.35,23.85,36.6
-930.17578,-38.08594,-317.38281,0.2055758748741797,-0.2820506176429648,0.1035207139235396,-5.55,28.05,16.05,417.48047,284.17969,847.65625,-0.0879326547752027,0.1778637115439389,-0.1518836129633773,46.5,8.25,98.55,-655.76172,115.72266,570.3125,-0.0230489926347623,0.5136064165647809,-0.1180429004976836,55.5,25.5,35.4
-844.72656,-25.87891,-289.55078,0.2378176912121213,-0.0723445956268657,0.0101255276554451,-4.65,28.95,16.2,354.98047,309.08203,791.99219,-0.1512174207878911,0.125503833984109,-0.0246477142295891,45.75,7.8,99.0,-759.27734,111.81641,585.44922,-0.2406156285359934,0.1545482071323971,-0.1133797298022052,56.55,24.3,34.35
-820.80078,10.25391,-294.92187,0.2522067091643382,0.0528927265804637,-0.0560903443030425,-4.95,26.25,15.3,314.45312,259.76562,892.08984,-0.1682710329091277,0.1670719917130076,0.0151883787496302,46.2,7.8,100.05,-750.97656,57.12891,652.83203,-0.3284149401563438,-0.1207074946667034,-0.0452986244721112,55.5,24.75,35.85
-821.28906,18.06641,-340.33203,0.2872466373590772,0.1512174207878911,-0.0399694361340717,-3.75,27.3,17.7,286.62109,165.03906,1000.97656,-0.1954501726858094,0.6752158767848966,0.1008561197545199,46.65,7.65,97.65,-782.22656,129.39453,777.34375,-0.5129402243892947,-0.1358958734163337,-0.0913966097416358,54.9,25.65,35.25
-840.82031,-13.67187,-391.60156,0.2506079875695113,0.340272532561468,-0.1077840296873862,-4.5,27.0,16.65,333.49609,178.71094,961.91406,-0.2427473736843793,0.128834620328615,0.1897213039490632,48.0,8.25,98.55,-829.10156,113.28125,741.69922,-0.4901577435313119,-0.2612665387785156,-0.0357059458372999,54.9,25.65,35.25
-875.97656,-39.0625,-432.61719,0.2442129266572789,0.3702496096620219,-0.0985910314512816,-4.95,27.3,16.05,347.16797,157.71484,964.35547,-0.273257299805567,0.1990474708070949,0.1717349878755608,48.0,8.25,98.55,-885.74219,83.49609,749.51172,-0.5912802005296861,-0.390900519904544,-0.0639509581881746,54.75,24.0,37.95
-906.73828,-43.94531,-449.21875,0.2599341544275431,0.3249509851899106,-0.0587549384720623,-4.95,27.75,16.35,429.6875,150.87891,958.98437,-0.0448989440734045,0.0480965617959833,0.1849249646316576,45.9,7.35,98.1,-870.11719,51.26953,783.69141,-0.5951440104277512,-0.438863738545675,0.0030642745677264,54.75,24.0,37.95
-898.92578,-39.0625,-454.58984,0.2388835637863142,0.3983614533909693,-0.116577347524784,-4.95,27.75,16.35,459.96094,56.64063,1075.19531,-0.1641408857672083,-0.0832694840797242,0.2436799031037199,47.1,7.35,98.85,-828.125,-3.41797,795.41016,-0.5510444271517602,-0.4014257279586958,0.0179861415405771,55.5,24.0,37.95
-885.25391,-44.43359,-470.70312,0.1934517706922759,0.3976952612154831,-0.1097826062138449,-5.1,27.15,15.15,466.79687,50.78125,1004.39453,-0.1276355791324949,-0.1732005408484604,0.1782633919426456,46.65,7.35,97.65,-774.41406,-34.17969,845.70312,-0.4517872035249922,-0.3837059236619729,0.0668820641339739,55.2,25.05,36.9
-875.48828,-38.08594,-477.53906,0.1834594116587579,0.3021685043319279,-0.0827366350590903,-4.65,26.1,14.4,423.33984,44.43359,964.35547,-0.0479632186411309,-0.1990474708070949,0.1717349878755608,46.65,7.35,97.65,-756.34766,-52.24609,862.79297,-0.3108284790144733,-0.2824502980416715,0.0514271736075641,55.2,25.05,36.9
-889.16016,-37.10938,-472.16797,0.1235054319905755,0.2371516735695603,-0.0888651841945432,-6.15,25.35,16.5,428.71094,38.57422,941.89453,-0.0654165111610742,-0.1565467836588557,0.0873996312216436,46.35,6.9,99.15,-738.76953,-70.80078,836.91406,-0.1287014517066878,-0.1688040564626867,0.1127137121596442,55.5,22.5,37.2
-879.88281,-36.62109,-450.19531,0.0810045703094112,0.2518070287656315,-0.1200413024912172,-6.15,25.35,16.5,431.64062,22.94922,909.66797,-0.0588882816269146,-0.1710689702329998,0.0735436368229858,47.55,7.5,98.55,-722.65625,-61.03516,811.52344,-0.0267794593779749,-0.0988575432280612,0.1356293616395541,54.0,24.0,36.9
-860.83984,-17.57813,-444.33594,0.1084502218628724,0.1008561197545199,-0.0651499993842947,-6.0,24.75,16.35,458.98437,31.73828,938.47656,-0.0535589187559499,-0.1268362183350815,0.05475795995207,47.55,7.5,98.55,-699.70703,-75.68359,796.875,0.0153215473715574,-0.0900643999235885,0.1656064387401079,55.8,24.3,37.2
-841.79687,-12.20703,-433.59375,0.0405022851547056,0.095393588261628,-0.1306998537002213,-4.95,27.0,13.95,462.89062,38.08594,923.82812,-0.0165205885676775,-0.1452220402743654,-0.0109248884528585,46.35,6.6,99.9,-670.89844,-59.57031,770.50781,0.050228132411444,-0.082603291904238,0.10205516095064,55.5,24.75,38.25
-847.65625,1.46484,-426.75781,-0.0075941021083525,0.0804717212887773,-0.1283017713079811,-4.05,24.9,15.45,454.58984,64.94141,924.80469,0.0462311538914518,-0.0976585020319411,-0.0341072242424731,46.5,6.3,98.55,-650.39062,-62.5,750.48828,0.063018428768834,-0.1235054319905755,0.1088499022615791,55.5,24.75,38.25
-877.44141,-7.8125,-436.03516,0.0283781809728018,-0.0476967068643514,-0.0957932686603347,-6.45,26.4,15.15,480.95703,81.54297,876.95312,0.0802052095119978,-0.1822603704626378,-0.0399694361340717,46.65,6.9,99.9,-606.93359,-66.40625,735.35156,0.0407687969314851,-0.0810045703094112,0.0277121633302407,55.35,24.6,37.65
-893.55469,-0.97656,-464.84375,-0.0594211306475485,-0.0631515973907612,-0.1328315988486072,-6.45,26.4,15.15,484.375,109.86328,845.70312,0.0622190679714206,-0.1441561677001724,-0.0724777642487929,46.65,6.9,99.9,-570.80078,-64.45313,722.16797,0.0422343499043847,-0.0382373713843925,0.040235773377926,55.35,24.6,37.65
-920.89844,-6.83594,-474.60937,-0.0755420388165193,-0.0992572236267679,-0.0811377389313384,-6.6,26.55,15.6,486.81641,121.09375,851.07422,0.0997902471803269,-0.0555574952824086,-0.0073277648644981,47.4,7.35,99.9,-574.70703,-62.01172,717.77344,0.0852680606061829,-0.015055210127703,-0.0219831200605693,53.4,22.95,37.5
-929.6875,-11.71875,-455.07812,-0.0909969293429291,-0.3217533674673318,-0.0230489926347623,-5.1,26.7,16.2,493.16406,127.92969,842.77344,0.0738101485997654,-0.1007227765996675,0.0365053066347134,44.55,8.4,98.85,-539.55078,-62.01172,705.07812,0.0896645449919567,-0.0198513749121835,-0.0615528757959344,54.0,23.7,36.9
-924.80469,-30.76172,-426.75781,-0.1260366830047429,-0.3478668092027458,-0.0386370517830992,-6.45,26.4,14.7,479.98047,106.44531,786.13281,0.0181194846954295,-0.0422343499043847,0.0177198042967228,45.6,6.9,98.4,-559.08203,-35.15625,690.42969,0.1067181571131932,-0.0046631706954784,-0.096459460835821,54.75,23.25,37.5
