IMU1_AccX,IMU1_AccY,IMU1_AccZ,IMU1_GyrX,IMU1_GyrY,IMU1_GyrZ,IMU1_MagX,IMU1_MagY,IMU1_MagZ,IMU2_AccX,IMU2_AccY,IMU2_AccZ,IMU2_GyrX,IMU2_GyrY,IMU2_GyrZ,IMU2_MagX,IMU2_MagY,IMU2_MagZ,IMU3_AccX,IMU3_AccY,IMU3_AccZ,IMU3_GyrX,IMU3_GyrY,IMU3_GyrZ,IMU3_MagX,IMU3_MagY,IMU3_MagZ
-853.51562,15.13672,-565.91797,-0.1646737347878422,0.032375159492794,-0.0439662401211387,-13.5,24.15,11.55,457.03125,3.41797,898.92578,0.0997902471803269,0.0682144484849463,0.1633415249697949,47.4,6.9,97.35,-682.12891,-142.08984,800.29297,-0.1930520902935692,-0.0546247913301429,0.1646737347878422,55.65,22.35,36.3
-875.97656,-5.85937,-559.57031,-0.1201746456460695,-0.0203843984657425,-0.0018652333716063,-12.6,22.95,11.85,457.51953,-20.50781,984.375,0.0119907610270514,0.179062752740059,0.1745329251994329,47.4,6.9,97.35,-631.34766,-50.29297,833.98437,-0.1000565844241813,0.1677381838884938,0.208107125888347,56.4,22.35,35.25
-875.0,16.11328,-570.80078,-0.134430320443434,0.007860613885132,-0.042900542079871,-12.9,23.4,12.6,451.17187,50.29297,921.38672,0.0214502710399355,0.2150352103541385,0.1253706653621819,46.65,7.65,98.4,-664.55078,-18.55469,795.41016,-0.0265129476011954,0.2356861205966606,0.1256370026060362,55.5,22.2,36.45
-869.62891,39.0625,-563.96484,-0.0734104682010586,-0.0619525561946411,-0.0888651841945432,-12.9,23.4,12.6,451.66016,97.16797,985.35156,0.0282450123508746,0.1325650870718277,0.1295008125041012,46.35,6.6,98.1,-653.32031,46.875,774.90234,-0.0267794593779749,0.3064318200957744,0.1606769308007752,54.6,22.35,36.3
-861.81641,58.10547,-554.19922,-0.0338407124656936,-0.1585451856523893,-0.0157212277702641,-12.15,24.15,11.25,455.07812,109.86328,972.65625,0.0266462907560478,0.1263031947815224,0.1172435397002702,45.9,6.9,98.4,-655.76172,74.21875,770.01953,-0.1073843492886795,0.3088300770209398,0.1131133925583509,54.6,22.35,36.3
-857.42187,62.01172,-553.71094,-0.050761155965003,-0.1402925323350325,-0.0277121633302407,-12.45,23.4,11.25,457.03125,114.25781,923.33984,-0.0053291883380394,0.0660827033365605,0.1501515482136981,48.0,7.5,98.25,-651.85547,94.72656,740.23437,-0.1771975193684527,0.3499983798182065,0.0832694840797242,56.4,23.1,35.25
-859.375,53.71094,-529.29687,-0.0916631215184153,-0.0891316959713228,-0.1101822866125516,-12.15,24.9,12.0,464.84375,131.34766,916.99219,0.0330413516682802,0.0631515973907612,0.0932618431132422,45.15,8.1,98.4,-656.73828,96.67969,721.67969,-0.2558040072856237,0.3924992414993708,0.0838025076332833,56.4,23.1,35.25
-872.07031,61.52344,-530.27344,-0.0431668793237253,-0.1181760691196108,-0.0723445956268657,-12.3,25.05,10.35,475.58594,142.57812,873.53516,-0.0151883787496302,0.1219065358628235,0.1396263401595463,46.35,6.9,99.15,-662.59766,92.77344,742.1875,-0.3150917947783199,0.3565267838852912,0.0925956509377559,56.55,22.2,34.8
-867.67578,54.6875,-525.87891,-0.0294440535469947,-0.1961163648612956,-0.1031210335248329,-12.3,25.05,10.35,478.51562,123.53516,895.01953,0.0235820161883213,0.1017886491738605,0.1027213531261262,46.35,6.9,99.15,-663.57422,63.47656,779.29687,-0.4455253112346869,0.2594013054069092,0.0527595579585365,55.8,24.75,34.05
-885.74219,65.42969,-533.69141,-0.0759418937481512,-0.1231057515918688,-0.1763981585710393,-12.15,24.9,12.0,461.42578,139.16016,903.32031,0.1036538825454668,0.0901975685455157,0.1617428033749681,46.5,7.8,99.0,-665.52734,74.70703,767.08984,-0.4405956287624289,0.4568498800862521,0.0866002704242302,56.4,23.4,34.5
-879.39453,68.35938,-515.13672,-0.0433002224785777,-0.1922527294961557,-0.1374945950111605,-13.05,25.05,12.45,472.65625,105.46875,875.0,0.0119907610270514,0.1644073975439878,0.1755987977736259,46.5,7.5,98.25,-650.87891,14.16016,762.20703,-0.4930888494771112,0.3076308612918945,0.1040535629441735,57.0,22.95,35.4
-875.0,66.40625,-496.09375,-0.0050628510941851,-0.1917197059425967,-0.285514572609398,-14.1,24.0,11.85,469.72656,137.69531,868.65234,0.0730107878023519,0.143356806902759,0.2155680593747724,46.65,4.65,99.9,-694.33594,71.28906,767.08984,-0.4956202750242037,0.2917764648997032,0.0783399761403914,57.0,22.95,35.4
-839.84375,46.38672,-468.26172,-0.1005896079777403,-0.1548147189091766,-0.3048330985009476,-14.1,24.0,11.85,460.44922,130.37109,901.85547,0.0895313763700295,0.1513507639427435,0.1761316467942597,46.65,4.65,99.9,-694.82422,70.3125,761.23047,-0.4481899054037067,0.3537290210943443,0.1056524590719255,57.9,22.65,34.5
-833.00781,9.76562,-438.96484,-0.0944608843093623,-0.1633415249697949,-0.349199019020793,-9.9,23.7,11.4,458.00781,116.21094,901.36719,0.1015221373970809,0.0746095093971788,0.225960098806997,47.4,8.4,97.35,-713.37891,20.01953,732.91016,-0.4146157047147925,0.1658729505168874,0.145621720673072,57.9,22.65,34.5
-801.26953,-23.4375,-442.87109,-0.0924624823158288,-0.1850581332535847,-0.3433368071291945,-11.85,23.85,12.6,456.54297,133.30078,861.32812,0.0783399761403914,0.1630750131930153,0.2021117453748213,47.25,6.75,98.55,-712.89062,37.10938,795.41016,-0.4047565143032018,0.1360290420382608,0.1330979360924615,56.1,23.1,34.95
-800.78125,-55.66406,-449.21875,-0.1069846688899728,-0.0923293136939016,-0.3642542291484961,-12.6,25.5,12.9,470.21484,121.09375,883.78906,0.1385604675853534,0.1641408857672083,0.2220964634418572,47.25,6.75,98.55,-661.13281,17.08984,781.25,-0.2881791667784177,0.1654732701181807,0.1392266597608396,55.35,22.35,35.55
-816.89453,-49.31641,-456.54297,-0.0385038831611721,-0.1306998537002213,-0.207441108245786,-12.45,23.85,12.0,452.14844,134.76562,887.69531,0.1069846688899728,0.1685375446859072,0.1801286253142519,46.2,6.75,97.95,-677.24609,9.27734,754.88281,-0.22196329481993,0.2003798551580673,0.1305666850782942,55.35,22.35,35.55
-825.19531,-28.80859,-489.74609,-0.0179861415405771,-0.0803383781339249,-0.1806614743348858,-12.45,23.85,12.0,440.42969,83.98438,910.15625,0.1629418445710882,0.0983246942074273,0.2049096826986934,47.25,7.05,99.0,-671.38672,0.97656,749.02344,-0.2134364887593117,0.171202138854927,0.1472204422678988,56.55,22.95,33.3
-838.86719,-19.53125,-495.60547,-0.049162259837251,-0.0358392889921523,-0.064750318985588,-12.3,24.75,11.85,434.08203,98.14453,886.71875,0.1476202971995308,0.1235054319905755,0.1953170040638822,47.1,9.15,98.4,-666.50391,16.11328,702.14844,-0.1368284028356742,0.2416815011101863,0.2043766591451344,56.7,21.6,33.45
-842.77344,-6.34766,-512.20703,-0.0619525561946411,-0.0810045703094112,0.043566559722432,-11.4,24.15,13.05,437.01172,77.63672,888.18359,0.1349631694640679,0.0984578628293545,0.1646737347878422,47.1,9.15,98.4,-649.90234,22.46094,704.58984,-0.0972588216332344,0.2352864401979539,0.2224961438405639,55.8,22.2,35.85
-854.00391,7.32422,-526.85547,-0.0877993116203503,-0.080871401687484,0.0242480338308824,-11.25,24.3,12.45,418.45703,84.47266,879.39453,0.1521501247401568,0.0747426780191059,0.1831928998819784,47.55,6.3,98.25,-680.17578,44.43359,731.93359,-0.1420244225517865,0.2759218939745868,0.2119709357864121,56.4,24.15,34.5
-854.00391,0.97656,-537.10937,-0.1581455052536826,-0.0426340303030914,0.0504946441882235,-11.1,24.15,13.35,425.78125,98.63281,871.58203,0.1674716721117143,0.1103154552344788,0.1626753327943086,47.4,8.4,99.15,-691.40625,51.26953,719.72656,-0.1721348428071927,0.3004364395822487,0.2548713033333579,56.4,24.15,34.5
-855.46875,6.34766,-520.50781,-0.1151117945518844,-0.0139893375535101,0.0526263893366094,-10.5,22.95,13.2,438.96484,106.44531,894.53125,0.1504180599904777,0.1947841550432483,0.1709356270781474,47.4,7.65,98.85,-674.31641,79.10156,689.45312,-0.1706692898342931,0.3186890928996054,0.2703261938597677,56.55,22.5,35.1
-855.95703,4.88281,-502.44141,-0.1197749652473628,-0.0678147680862396,0.1325650870718277,-11.85,25.35,10.65,444.82422,88.86719,904.29687,0.1015221373970809,0.1660061191388146,0.1971822374354885,46.8,7.8,98.25,-718.75,69.82422,697.26562,-0.3066983318725539,0.1842587724561713,0.3256171773653969,56.55,22.5,35.1
-832.03125,30.76172,-504.39453,-0.1520167815853045,-0.0586217698501351,0.049162259837251,-11.1,24.6,12.3,364.25781,100.09766,872.55859,0.1219065358628235,0.2263599537386289,0.2222296320637844,45.9,8.4,98.85,-744.62891,112.79297,725.09766,-0.3723813548104077,0.1841256038342442,0.284448700035205,56.55,24.75,33.0
-831.05469,61.03516,-494.62891,-0.1264363634034496,-0.0699463387017003,0.1299004929028079,-12.0,23.25,12.15,398.4375,122.55859,910.64453,0.1838590920574646,0.1754656291516987,0.2215636144212233,47.4,8.85,98.85,-684.57031,44.92188,717.77344,-0.4404624601405018,0.1841256038342442,0.3301470049060229,55.8,25.8,34.05
-846.19141,67.87109,-496.58203,-0.107650861065459,-0.0393032439585855,0.0683476171068735,-12.0,23.25,12.15,392.08984,121.09375,923.33984,0.1501515482136981,0.2102388710367329,0.2069080846922269,47.4,8.85,98.85,-724.12109,127.44141,718.26172,-0.4436600778630806,0.1107151356331855,0.320154645872505,55.8,24.3,33.75
-844.23828,75.19531,-514.64844,-0.1390934911389125,0.0057288687367461,0.0067947413109391,-11.4,24.6,13.65,414.55078,130.37109,951.66016,0.1533491659362769,0.0712787230526728,0.1706692898342931,48.3,9.0,99.0,-726.07422,103.02734,690.91797,-0.4804318962745735,0.1187090926731699,0.3053659475215814,56.25,24.0,33.0
-860.83984,68.35938,-530.76172,-0.1660061191388146,-0.0374380105869791,0.0347734164179594,-11.25,24.75,12.45,406.73828,160.15625,952.63672,0.1333644478692411,0.0105252080541518,0.2199647182934713,46.5,7.8,99.3,-733.88672,85.44922,669.92187,-0.54984538595564,0.1949173236651755,0.2378176912121213,56.25,24.0,33.0
-878.41797,44.92188,-536.13281,-0.1052526041402936,-0.0548913031069224,0.0107917198309313,-10.2,24.75,12.15,433.10547,172.36328,924.31641,0.1573461444562691,-0.0318423104721601,0.2211639340225166,47.25,8.55,97.2,-762.20703,20.50781,706.05469,-0.6100658774006019,0.1316323831195619,0.2639311329475353,55.65,23.4,32.4
-894.53125,31.73828,-546.38672,-0.1753322859968463,-0.0309096065198943,-0.0479632186411309,-11.85,23.85,13.35,419.43359,149.41406,896.48437,0.1085833904847996,-0.0361056262360067,0.3393400031421275,47.25,8.55,97.2,-758.78906,21.48438,694.33594,-0.6019387517386903,0.1694700741052478,0.2552709837320646,55.65,23.4,32.4
-899.41406,11.23047,-551.26953,-0.0887320155726161,-0.1155114749505911,-0.0456983048708179,-11.85,23.85,13.35,409.17969,136.71875,862.30469,0.0716784034513795,-0.0049295079393327,0.3766446705742543,48.3,7.05,98.25,-741.69922,26.85547,723.63281,-0.6636247961565519,0.1552143993078833,0.1805283057129587,55.8,23.25,33.3
-897.46094,12.20703,-526.36719,-0.054091942309509,-0.1421577657066389,0.0355727772153728,-11.55,23.85,13.35,429.6875,145.99609,856.44531,0.1498852109698438,-0.0487625794385443,0.312294031987373,48.9,8.4,98.4,-767.57812,56.15234,725.09766,-0.6616263941630184,0.3161576673525128,0.2562036876843304,56.4,24.9,33.9
-886.71875,50.29297,-506.34766,-0.0514271736075641,-0.118842261295097,-0.0908637607210019,-11.55,24.75,12.45,430.66406,139.16016,898.92578,0.0848683802074762,0.0550244717288496,0.3566599525072185,48.9,8.4,98.4,-711.42578,75.68359,730.46875,-0.6550979900959337,0.2047763395438411,0.2460781600288853,57.3,24.75,33.0
-864.25781,70.3125,-500.48828,-0.0366386497895657,-0.192918921671642,-0.005595700114819,-10.95,24.3,12.9,427.24609,116.69922,854.98047,0.0858009096268168,0.0137228257767306,0.3602572506285039,48.9,8.4,98.4,-729.49219,21.48438,695.80078,-0.5974089241980644,0.2151683789760657,0.1975819178341952,56.55,26.25,33.75
-835.9375,93.75,-477.05078,-0.0426340303030914,-0.1795957762936181,-0.0131899767560967,-11.85,24.6,13.35,399.41406,63.47656,977.53906,0.0261132672024887,-0.0425006871482391,0.3765115019523271,47.55,9.3,97.5,-736.81641,-31.73828,700.19531,-0.6463046722585358,0.1854578136522914,0.1770643507465255,56.55,24.3,33.75
-830.07812,103.02734,-469.23828,-0.1582786738756097,-0.1069846688899728,-0.0090596550812521,-11.85,24.6,13.35,428.22266,148.92578,857.91016,0.0592879620256213,-0.0221164632154217,0.3960965396206563,47.4,7.65,97.35,-734.86328,-154.29687,689.45312,-0.7275757543447265,0.1963828766380752,0.1404257009569597,55.65,24.15,32.4
-822.75391,109.375,-478.51562,-0.1229724084370164,-0.0365053066347134,-0.0455651362488907,-11.4,23.85,12.6,434.08203,158.20312,883.30078,0.1914533686987423,-0.0426340303030914,0.332411918676336,48.45,8.85,99.15,-709.96094,-63.47656,701.66016,-0.6201914050560471,0.1664057995375213,0.1384272989634262,55.65,24.15,32.4
-840.82031,77.63672,-482.91016,-0.1264363634034496,-0.0839356762552105,-0.0006661921754862,-10.05,24.15,13.05,417.48047,125.97656,877.92969,0.1220398790176759,-0.0798055291132911,0.325750345987324,48.45,8.85,99.15,-742.67578,-141.60156,654.29687,-0.5273292423415116,0.0960597804371143,0.1067181571131932,54.9,23.85,33.9
-851.07422,55.66406,-481.93359,-0.1065849884912661,-0.0062618922903052,-0.0662158719584876,-11.25,24.3,13.5,421.38672,77.63672,904.29687,0.0726111074036452,-0.0527595579585365,0.371981674411701,49.05,8.25,98.55,-702.14844,-109.375,707.51953,-0.557172976287213,0.1241714496331365,0.1017886491738605,54.9,23.85,33.9
-865.23437,19.04297,-496.09375,-0.1117810082073784,-0.0027979373238721,-0.0141225061754373,-12.15,24.15,12.3,447.75391,134.27734,864.25781,0.0142556747973644,0.0611531953972277,0.3449357032569465,48.45,8.85,98.85,-710.9375,-164.55078,708.98437,-0.4783001511261876,0.1688040564626867,-0.0263797789792682,54.9,23.85,33.9
-865.23437,34.66797,-504.88281,-0.0576890658978693,-0.0371714988101996,-0.0259800985805615,-12.15,24.15,12.3,443.84766,96.67969,863.28125,-0.0242480338308824,0.0983246942074273,0.3180229007241191,46.8,8.55,97.95,-706.05469,-183.59375,708.49609,-0.3887687747561581,0.1633415249697949,0.0039969785199922,55.5,24.3,33.0
-884.76562,27.83203,-511.23047,-0.0560903443030425,0.0221164632154217,-0.0338407124656936,-11.25,25.05,13.2,429.19922,58.59375,913.08594,-0.0030642745677264,0.1104486238564059,0.3374747697705211,47.55,8.55,98.55,-707.03125,-181.15234,729.98047,-0.3140260967370522,0.1008561197545199,-0.045165455850184,57.45,23.85,34.2
-901.36719,59.57031,-505.85937,-0.0322419908708668,-0.0349065850398865,-0.0345069046411798,-11.4,23.1,14.4,442.87109,71.28906,894.53125,0.0363721380127862,0.2628652603733424,0.2965728042171088,47.7,9.6,97.05,-729.00391,-175.29297,728.02734,-0.1673385034897871,0.0487625794385443,-0.0520933657830503,54.75,23.7,34.35
-879.88281,84.47266,-512.69531,-0.0005328490206338,-0.05475795995207,-0.0158545709251164,-11.4,25.65,12.6,426.26953,32.71484,898.4375,0.0218499514386422,0.104320074720953,0.2952404198661363,47.55,9.3,97.95,-734.375,-177.73437,730.95703,-0.063684446411395,0.1196416220925105,-0.0482297304179105,57.6,23.7,33.75
-884.27734,87.40234,-508.30078,-0.1017886491738605,-0.0115910806283447,-0.0310429496747467,-11.4,25.65,12.6,421.875,21.97266,896.97266,0.0417013263508257,0.0740764858436197,0.2027779375503076,47.55,9.3,97.95,-768.06641,-176.26953,715.33203,0.0053291883380394,0.0243813769857347,-0.1216401986189692,56.4,23.85,34.2
-858.88672,88.86719,-520.50781,-0.0957932686603347,0.0358392889921523,-0.0341072242424731,-12.15,24.6,13.05,414.0625,9.76562,909.17969,0.0039969785199922,0.0908637607210019,0.1362955538150403,48.0,8.25,99.0,-754.88281,-195.80078,724.12109,0.1426906147272728,0.0197182062902563,-0.1125803690047918,55.65,23.85,33.9
-850.58594,84.96094,-521.97266,-0.0382373713843925,-0.0261132672024887,0.0218499514386422,-10.95,26.25,12.9,425.29297,-22.94922,916.99219,-0.0514271736075641,0.1414915735311527,0.029044373148288,48.45,8.4,97.65,-750.48828,-180.66406,730.95703,0.1305666850782942,0.0992572236267679,-0.1576124817001235,55.65,23.85,33.9
-865.23437,54.6875,-532.22656,-0.0662158719584876,0.0391699008037331,-0.059154618870769,-10.5,24.0,13.5,411.62109,4.88281,901.85547,-0.0319754790940873,0.1705359466794407,0.0442327518979182,48.0,9.0,97.95,-765.13672,-160.15625,719.23828,0.2331546950495681,0.1292343007273217,-0.1573461444562691,57.0,22.5,34.35
-866.21094,42.96875,-524.90234,-0.0992572236267679,-0.0019984019935335,0.005595700114819,-10.35,24.9,13.65,375.97656,8.30078,944.33594,-0.0158545709251164,0.105385947295146,-0.0494287716140306,47.4,10.65,99.45,-771.48437,-124.02344,722.16797,0.2867136138055181,0.1481531462201646,-0.1585451856523893,56.25,22.95,34.05
-872.55859,41.99219,-523.92578,0.0074609334864253,0.0510274932088574,0.0141225061754373,-10.35,24.9,13.65,372.55859,29.78516,928.71094,0.0033307863445059,0.1424242774834185,-0.0393032439585855,47.7,8.4,99.9,-765.13672,-88.37891,689.94141,0.3384072991898617,0.1040535629441735,-0.1167105161467112,56.7,24.9,32.85
-859.86328,26.85547,-511.71875,0.0,0.0618192130397887,0.0065284040670847,-10.95,26.55,13.95,365.23437,44.43359,922.85156,0.0025314255470925,0.0860674214035963,-0.077540615342978,47.25,9.75,99.75,-761.23047,-57.61719,687.01172,0.3729142038310416,0.1125803690047918,-0.1597442268485094,55.65,22.35,32.85
-846.67969,27.83203,-513.18359,-0.0129234649793172,0.0879326547752027,-0.0138559943986577,-10.35,24.9,13.05,381.83594,81.54297,901.85547,0.020117886688963,0.0803383781339249,-0.068614128883653,47.25,9.75,99.75,-760.25391,-28.32031,685.05859,0.3641208859936438,0.0566231933236764,-0.1546815502872494,57.3,24.0,33.75
-844.72656,22.94922,-508.30078,0.0599539796681824,0.0940612039106556,-0.0237151848102485,-11.4,24.9,13.35,379.88281,86.91406,896.97266,0.0189188454928429,0.016787100344457,-0.0806048899107045,48.6,9.0,97.5,-777.83203,3.41797,674.80469,0.3527963171420786,0.0771409349442713,-0.1799954566923248,57.45,24.9,33.15
-841.30859,8.78906,-497.07031,0.0538254305327295,0.0806048899107045,-0.0082602942838387,-11.4,24.9,13.35,365.23437,77.14844,883.78906,-0.0053291883380394,0.0595542992694757,-0.0945942274642146,48.0,8.25,99.75,-772.94922,17.57813,662.10937,0.2547381347114308,0.0326416712695735,-0.1541485267336904,57.45,24.9,33.15
-835.44922,11.71875,-500.48828,0.0628850856139816,0.1478866344433851,-0.0265129476011954,-9.3,25.35,12.0,388.67187,77.14844,913.08594,0.0341072242424731,0.0592879620256213,-0.0794058487145844,47.25,9.75,98.25,-766.11328,4.88281,679.6875,0.1777305429220118,-0.0051960197161123,-0.1105819670112583,57.3,22.95,32.55
-845.70312,23.92578,-505.85937,0.0782068075184643,0.0895313763700295,0.0375711792089063,-11.55,25.05,11.85,386.23047,75.19531,920.89844,-0.0063950609122324,0.0103920394322246,-0.0564900247017492,47.25,9.75,98.25,-756.83594,24.41406,701.17187,0.1035207139235396,-0.0173201238980161,-0.1025880099712739,57.3,22.95,32.55
-853.51562,27.83203,-517.57812,0.0365053066347134,0.1081837100860929,-0.0535589187559499,-10.35,25.65,11.25,391.11328,99.12109,905.76172,0.0070612530877186,0.0219831200605693,-0.0985910314512816,47.4,9.6,98.85,-738.76953,11.23047,713.86719,0.1064518198693389,-0.1017886491738605,-0.0903307371674429,56.25,24.0,31.2
-846.67969,59.08203,-513.18359,0.0546247913301429,0.1477534658214579,0.0245145456076619,-11.25,24.0,12.45,409.17969,86.91406,930.17578,0.0175864611418704,0.0243813769857347,-0.0411684773301918,48.6,9.3,97.5,-739.74609,15.625,708.00781,0.0929953313364626,-0.077540615342978,-0.0373046674321268,57.9,23.4,33.15
-850.58594,72.75391,-500.0,0.0767412545455646,0.0619525561946411,-0.0287778613715085,-11.25,24.0,12.45,415.52734,99.12109,912.10937,-0.0181194846954295,0.0047963393174056,-0.0824701232823108,48.6,9.3,97.5,-734.375,17.57813,705.07812,0.0714118916745999,-0.0695466583029936,-0.0411684773301918,56.55,24.0,32.55
-838.86719,58.59375,-495.11719,0.0166539317225298,0.1201746456460695,-0.0302434143444081,-11.4,24.15,11.25,437.5,133.78906,919.92187,0.0013323843509724,0.0027979373238721,-0.0893982077481023,48.45,9.15,98.85,-738.76953,25.87891,721.67969,0.0410353087082646,-0.0595542992694757,-0.0089264864593249,55.65,22.35,31.8
-833.00781,39.55078,-510.25391,-0.0229158240128351,0.1072511806667523,-0.0335742006889141,-12.6,24.75,12.9,436.52344,129.39453,902.34375,0.0023980823922402,-0.0350397536618137,-0.0730107878023519,48.0,7.8,97.95,-727.53906,14.64844,691.89453,0.0397029243572922,-0.036238969390859,-0.0394364125805126,57.15,23.4,33.15
-835.9375,38.08594,-497.55859,0.0387702204050264,0.1093829258151382,-0.0027979373238721,-12.0,25.05,13.5,452.14844,140.625,877.44141,-0.006128723668378,-0.0238483534321757,-0.0788728251610253,48.9,8.85,97.35,-729.49219,2.44141,693.35937,-0.0021317451483858,-0.0554241521275563,-0.0243813769857347,56.25,22.95,32.55
-811.03516,31.73828,-508.30078,-0.0133231453780239,0.0778071271197576,-0.0137228257767306,-12.0,25.05,13.5,447.26562,139.16016,871.58203,-0.0190520141147701,0.0191853572696224,-0.0945942274642146,48.9,8.85,97.35,-710.9375,-9.27734,701.66016,0.0127901218244648,-0.0599539796681824,0.0042633157638465,56.25,22.95,32.55
-825.19531,51.75781,-512.69531,-0.0250473946282958,0.1056524590719255,0.0207840788644492,-11.55,26.25,12.15,447.26562,128.90625,877.44141,-0.0046631706954784,0.0179861415405771,-0.1133797298022052,48.45,9.6,98.4,-690.42969,-63.96484,639.16016,0.1673385034897871,-0.0010658725741929,0.0185191650941362,56.25,22.95,32.55
-834.96094,73.24219,-496.09375,-0.0219831200605693,0.0539585991546566,0.0511608363637097,-12.15,26.1,12.0,477.53906,110.35156,901.36719,0.0514271736075641,0.0014655529728996,-0.1493521874162847,49.2,7.65,98.85,-815.91797,-85.44922,759.76562,-0.0548913031069224,-0.0575558972759422,0.0027979373238721,56.7,23.1,31.35
-799.80469,61.52344,-517.08984,-0.0691469779042869,0.0687472975055802,0.0779402957416847,-13.2,26.4,13.35,415.52734,99.60938,929.6875,0.1016554805519333,0.0282450123508746,-0.1279019163763492,47.4,8.85,98.4,-742.67578,-74.70703,723.14453,0.3220198792441113,-0.070346019100407,-0.0189188454928429,55.5,24.3,31.2
-799.31641,71.77734,-542.48047,-0.1341638086666545,0.1300336615247351,0.0433002224785777,-11.4,26.1,12.3,391.60156,82.51953,919.92187,0.0690138092823597,-0.0175864611418704,-0.1781302233207184,47.4,9.6,98.85,-745.60547,-74.70703,716.79687,0.2204977418470304,-0.1926524098948624,-0.0419678381276052,56.55,23.7,33.0
-877.92969,68.84766,-555.17578,-0.1136462415789847,0.0929953313364626,0.132165406673121,-11.4,26.1,12.3,396.48437,39.55078,943.35937,0.0582220894514284,0.014522186574144,-0.2011792159554807,47.25,8.55,99.75,-713.86719,-89.84375,769.04297,0.1664057995375213,-0.2411484775566273,0.0511608363637097,57.0,23.7,33.3
-939.45312,52.73438,-547.85156,-0.095393588261628,0.0728774446474996,0.1148452827751048,-11.4,26.1,12.3,411.62109,44.92188,938.47656,0.0687472975055802,-0.0041301471419193,-0.1914533686987423,47.7,8.85,99.45,-696.28906,-98.14453,749.02344,0.2299570773269893,-0.0214502710399355,-0.0554241521275563,57.0,23.7,33.75
-913.57422,34.17969,-533.20312,-0.146687593247265,0.0795390173365115,0.1220398790176759,-11.4,25.35,13.05,405.27344,26.36719,948.24219,0.04849624219469,-0.0595542992694757,-0.2146355299554318,47.7,8.85,99.45,-732.42187,-87.89063,698.24219,0.2743231723797599,0.0409019655534123,-0.1172435397002702,56.4,23.85,34.5
-876.95312,8.78906,-496.09375,-0.0241148652089552,0.0726111074036452,0.2001133433812878,-11.25,24.75,13.5,413.57422,84.47266,953.61328,0.0810045703094112,-0.0121241041819038,-0.2306232695024755,47.7,8.85,99.45,-742.1875,-63.96484,702.14844,0.2399494363605072,0.007860613885132,-0.0844685252758443,56.4,23.85,34.5
-868.65234,21.48438,-471.67969,0.0185191650941362,0.0807380585326316,0.1378942754098671,-13.05,24.3,13.2,431.64062,120.11719,953.125,0.0923293136939016,-0.0608866836204481,-0.2207642536238099,47.1,10.65,97.65,-735.35156,-28.80859,698.73047,0.3104287986157666,-0.0427671989250186,-0.1099157748357721,56.25,24.75,31.5
-845.21484,20.50781,-468.75,-0.0369049870334201,0.150018379591771,0.1424242774834185,-13.05,24.3,13.2,437.98828,123.53516,942.87109,0.0086599746825454,-0.0249142260063686,-0.2199647182934713,48.3,9.3,99.0,-717.28516,1.95312,702.63672,0.232621671496009,-0.0780734643636119,-0.0911300979648563,56.25,24.75,31.5
-877.44141,41.01563,-503.90625,0.0337075438437664,0.0448989440734045,0.1596110582265822,-11.55,26.55,11.1,458.98437,137.69531,897.46094,0.0101255276554451,-0.0562235129249697,-0.2187656770973512,47.25,9.75,99.75,-689.45312,50.29297,733.88672,0.1957166844625889,-0.0365053066347134,-0.1225727280383097,56.25,24.3,32.55
-878.41797,49.80469,-530.76172,0.0750091897958855,0.0795390173365115,0.1815941782871516,-12.6,25.8,14.25,445.3125,164.55078,932.61719,0.0433002224785777,-0.0355727772153728,-0.2155680593747724,47.4,10.35,98.1,-736.81641,52.24609,728.02734,0.1922527294961557,0.0030642745677264,-0.1047197551196597,56.25,25.05,32.25
-858.39844,86.91406,-551.75781,0.0237151848102485,0.1187090926731699,0.1287014517066878,-10.95,26.25,12.9,434.08203,203.125,918.45703,0.0086599746825454,-0.0655498543159266,-0.1775971997671594,46.8,8.25,97.95,-715.33203,69.33594,700.68359,0.2230291673941229,-0.0166539317225298,-0.1807948174897382,56.4,22.65,34.2
-858.39844,90.82031,-545.41016,0.0961929490590414,0.0905972489442224,0.0683476171068735,-12.9,25.35,12.0,422.85156,203.125,945.80078,0.0155880591483369,-0.0595542992694757,-0.1634746935917221,48.15,9.15,98.4,-739.25781,42.96875,697.26562,0.1817273469090787,-0.046897346066938,-0.1036538825454668,56.25,23.7,32.25
-856.44531,108.39844,-559.08203,0.1201746456460695,0.1080505414641657,0.0783399761403914,-12.9,25.35,12.0,414.0625,206.54297,924.80469,-0.023448673033469,-0.0170536121212365,-0.1354961930176269,48.15,9.15,98.4,-751.95312,27.34375,719.72656,0.1586783542743164,-0.1111148160318922,-0.1716018192536337,55.8,24.0,32.55
-877.92969,99.60938,-571.28906,0.0488959225933967,0.1865236862264844,0.0414349891069713,-13.35,25.05,12.15,416.99219,170.89844,930.17578,-0.0555574952824086,0.0255804181818548,-0.0868667822010097,47.7,9.15,98.1,-748.04687,12.69531,712.89062,0.1750657742200668,-0.0844685252758443,-0.0812710820861907,56.7,22.65,34.2
-885.25391,102.53906,-557.61719,0.0584886012282079,0.0727442760255724,0.0139893375535101,-10.5,25.5,12.15,396.48437,134.27734,922.85156,-0.0189188454928429,0.0175864611418704,-0.1438898304563181,45.9,7.35,99.15,-745.60547,3.41797,732.91016,0.1276355791324949,-0.0855343978500373,-0.1237717692344298,56.7,22.65,34.2
-852.53906,106.44531,-542.48047,0.041834669505678,0.1009892883764471,0.0117244237831971,-12.45,24.6,12.0,408.20312,125.97656,932.61719,-0.0417013263508257,0.0165205885676775,-0.1047197551196597,49.2,8.1,98.4,-748.53516,-34.66797,742.67578,0.1430902951259795,-0.1200413024912172,-0.1642740543891354,56.4,24.15,33.15
-860.83984,93.75,-541.01562,-0.0361056262360067,0.1057856276938527,-0.0009327039522657,-12.45,24.6,12.0,413.08594,119.14063,943.84766,-0.0147886983509235,-0.018385996472209,-0.0822036115055313,49.2,8.1,98.4,-746.58203,-40.03906,752.44141,0.1787964154962047,-0.1172435397002702,-0.158944866051096,55.5,23.25,33.75
-834.96094,51.75781,-515.13672,0.0182526533173567,0.079272505559732,-0.0626187483701273,-13.5,24.9,12.0,416.99219,98.14453,948.73047,-0.054091942309509,0.0089264864593249,-0.1438898304563181,49.35,10.05,98.25,-738.28125,-39.0625,730.95703,0.2571362171036709,-0.0911300979648563,-0.1938514510909826,57.3,24.0,33.3
-844.23828,30.76172,-514.16016,0.0171867807431637,0.0231821612566894,-0.0430337107017981,-13.2,23.1,11.55,414.0625,86.42578,944.33594,-0.0579555776746489,-0.0193185258915496,-0.1513507639427435,48.0,10.8,99.75,-738.76953,-40.03906,741.21094,0.2362189696172945,-0.1080505414641657,-0.161209779821409,56.7,23.1,34.5
-826.66016,35.15625,-505.85937,-0.0123904414257581,0.0838025076332833,-0.0967257980796753,-12.45,23.4,11.55,420.41016,77.63672,913.57422,-0.0683476171068735,-0.0583552580733556,-0.1309663654770009,48.0,10.8,99.75,-733.39844,-22.94922,743.16406,0.3077642044467469,-0.0278453319521679,-0.1799954566923248,57.15,23.85,33.45
-815.42969,40.52734,-513.67187,0.0466310088230837,0.0390367321818059,-0.0006661921754862,-12.6,26.25,12.15,428.71094,83.49609,884.27734,-0.0410353087082646,-0.0414349891069713,-0.1698697545039545,48.0,9.3,98.55,-697.26562,-46.38672,709.96094,0.3282817715344166,0.0070612530877186,-0.1821270273077855,56.7,22.35,32.85
-816.40625,50.29297,-521.48437,0.0193185258915496,0.0255804181818548,0.0106585512090041,-12.6,26.25,12.15,431.64062,109.375,894.04297,-0.0632847660126884,-0.0226493122360556,-0.1480199775982374,48.3,9.0,97.95,-696.77734,-49.80469,742.67578,0.3041669063254614,-0.1434899755246862,-0.1353630243956998,56.7,22.35,32.85
-816.89453,37.10938,-513.18359,-0.0026645941690197,0.0103920394322246,-0.0222496318373489,-11.85,23.4,12.0,410.15625,80.56641,894.04297,0.0129234649793172,-0.0643506385868813,-0.1967825570367818,48.15,8.4,97.65,-686.52344,-51.26953,740.23437,0.3205543262712117,-0.1113813278086717,-0.1801286253142519,56.7,22.35,32.85
-826.17187,37.10938,-530.27344,0.0393032439585855,0.0271791397766816,-0.0688804661275074,-11.55,25.5,11.1,401.85547,100.09766,910.15625,-0.0748760211739583,-0.0532925815120956,-0.2239616968134635,48.15,8.4,97.65,-684.57031,-17.08984,719.23828,0.3330781108518222,-0.1649402465646217,-0.1601439072472161,56.4,23.1,33.15
-833.98437,20.50781,-517.57812,0.015055210127703,0.015055210127703,-0.0668820641339739,-13.95,24.15,11.55,409.66797,93.75,885.25391,0.0085268060606182,-0.0298437339457014,-0.195183835441955,47.7,8.4,97.35,-685.05859,14.64844,750.0,0.312294031987373,-0.1267028751802291,-0.212503784807046,56.4,23.1,33.15
-829.58984,26.36719,-522.46094,0.0058622118915985,0.0371714988101996,-0.0551578148837019,-13.95,24.15,11.55,424.80469,124.51172,895.99609,0.0250473946282958,-0.0560903443030425,-0.2038438101245005,48.15,8.85,97.65,-685.05859,23.92578,748.53516,0.3214870302234775,-0.1915865373206695,-0.2038438101245005,56.55,23.25,34.35
-813.96484,31.25,-500.97656,-0.0270459711547545,0.0171867807431637,-0.054091942309509,-13.5,26.1,10.95,451.66016,148.4375,861.32812,-0.0385038831611721,-0.0694134896810664,-0.1552143993078833,48.15,9.15,98.1,-682.12891,47.36328,740.23437,0.3278820911357099,-0.1653399269633284,-0.2503414757927318,55.8,23.25,32.55
-824.70703,20.99609,-519.53125,-0.0041301471419193,-0.0354394340605204,0.0102588708102974,-14.25,24.9,12.0,429.19922,140.625,898.92578,-0.0278453319521679,-0.1168438593015635,-0.2103722141915853,47.7,9.15,99.15,-661.13281,89.84375,696.28906,0.3412052365137338,-0.1357627047944065,-0.1861240058277777,57.3,22.5,32.25
-830.56641,10.74219,-507.8125,-0.0490290912153239,-0.0138559943986577,0.0215834396618626,-11.4,24.6,11.55,409.66797,112.79297,886.71875,-0.1225727280383097,-0.1135130729570576,-0.1402925323350325,48.9,7.65,99.15,-687.01172,17.08984,743.65234,0.2472772012250054,-0.2001133433812878,-0.1725345232058994,56.1,21.9,32.85
-840.33203,21.97266,-511.71875,-0.0687472975055802,-0.0345069046411798,0.0523598775598298,-12.6,25.05,12.15,447.26562,121.09375,944.33594,0.0118575924051242,-0.0989908863829135,-0.216367594705111,48.45,8.85,97.35,-672.85156,21.97266,744.14062,0.2378176912121213,-0.1670719917130076,-0.1577458248549758,55.8,24.3,34.8
-825.68359,28.80859,-517.08984,-0.0387702204050264,-0.0286446927495813,0.0860674214035963,-12.6,25.05,12.15,440.42969,127.44141,889.64844,0.0135896571548034,-0.1353630243956998,-0.1797289449155452,48.45,8.85,97.35,-693.35937,28.32031,715.33203,0.3007029513590282,-0.1586783542743164,-0.2103722141915853,57.15,22.35,34.2
-838.37891,46.875,-509.76562,-0.0819372742616769,-0.0444992636746978,0.0911300979648563,-12.15,25.35,11.25,462.89062,139.64844,908.20312,-0.0243813769857347,-0.1272358987337882,-0.2038438101245005,46.8,9.0,98.55,-707.51953,7.32422,712.40234,0.267661599690748,-0.1248376418086228,-0.2211639340225166,57.15,22.35,34.2
-840.82031,53.71094,-508.30078,-0.0763415741468579,-0.0443659205198454,0.0768744231674918,-12.3,25.5,12.15,446.77734,137.69531,860.83984,-0.0227824808579827,-0.1089830708835063,-0.1528161423827179,48.6,10.05,96.45,-684.57031,24.90234,758.30078,0.2628652603733424,-0.1381607871866467,-0.2478100502456393,56.4,21.15,35.25
-826.66016,59.08203,-508.78906,-0.0718115720733066,-0.0464976656682313,0.1576124817001235,-12.9,25.65,12.0,446.77734,156.25,865.72266,-0.0071944217096458,-0.0937948666668012,-0.1548147189091766,47.55,7.8,97.2,-714.84375,-13.18359,693.35937,0.3162910105073652,-0.1428239578821251,-0.2547381347114308,57.0,21.75,34.35
-839.35547,51.26953,-515.13672,-0.1497518678149914,0.0166539317225298,0.1124472003828646,-11.1,25.65,11.55,432.12891,136.71875,888.67187,-0.0326416712695735,-0.0811377389313384,-0.1326982556937548,47.55,7.8,97.2,-704.58984,-28.80859,752.92969,0.2629984289952695,-0.1779968801658661,-0.1632081818149425,56.55,23.25,34.8
-854.00391,52.73438,-527.83203,-0.1450888716524382,-0.0026645941690197,0.0627519169920545,-12.0,26.55,11.85,415.03906,115.72266,893.06641,-0.0684807857288007,-0.096459460835821,-0.1406922127337393,47.25,8.55,97.5,-723.14453,-39.55078,773.4375,0.3193552850750916,-0.1661392877607418,-0.2388835637863142,55.5,21.75,33.75
-854.98047,46.875,-516.11328,-0.0759418937481512,-0.0622190679714206,0.1157779867273706,-13.05,25.5,12.15,413.08594,128.41797,937.5,-0.0270459711547545,-0.114312433754471,-0.1564134405040034,47.4,8.1,98.4,-726.07422,-43.94531,738.76953,0.3168238595279991,-0.0579555776746489,-0.2736569802042737,56.7,21.9,33.45
-860.35156,51.26953,-516.11328,-0.1147121141531777,-0.0059953805135257,0.0627519169920545,-12.9,24.9,13.05,406.25,123.53516,923.82812,-0.0888651841945432,-0.1566799522807829,-0.1765313271929664,47.4,8.1,98.4,-731.44531,-38.08594,731.93359,0.3048330985009476,-0.1538820149569108,-0.1867901980032639,57.15,22.35,33.45
-852.05078,64.94141,-521.97266,-0.114312433754471,-0.0254472495599277,0.0317089673173077,-11.85,27.15,10.65,455.56641,109.375,921.38672,-0.0831363154577971,-0.1389601479840601,-0.1299004929028079,49.2,8.85,96.6,-695.3125,2.92969,738.28125,0.2861807647848842,-0.0996569040254746,-0.1905206647464766,57.15,22.35,33.45
-832.51953,67.87109,-519.53125,-0.068614128883653,-0.0731439564242791,0.118842261295097,-11.85,27.15,10.65,437.98828,103.02734,933.10547,-0.1261700261595952,-0.1887885999967974,-0.0848683802074762,47.55,9.3,97.5,-681.15234,-50.78125,738.76953,0.3384072991898617,-0.1970490688135614,-0.1397595087814735,56.4,21.15,33.45
-830.07812,64.45313,-522.46094,-0.0764747427687851,0.0610198522423753,0.0353062654385932,-11.85,27.15,10.65,444.33594,87.40234,910.64453,-0.1596110582265822,-0.1886554313748702,-0.1225727280383097,47.7,8.4,98.1,-690.91797,-35.64453,754.39453,0.3964962200193629,-0.0952604196397009,-0.1438898304563181,56.4,21.15,33.45
-833.00781,65.91797,-534.66797,-0.0824701232823108,-0.0367718184114929,-0.0456983048708179,-12.6,25.8,12.15,444.82422,70.3125,929.19922,-0.1364287224369675,-0.1736002212471671,-0.1370949146124538,47.7,8.4,98.1,-730.95703,9.76562,752.92969,0.4689739842681559,-0.0888651841945432,-0.1265697065583019,54.6,22.35,33.15
-842.77344,66.40625,-544.43359,-0.040235773377926,-0.0047963393174056,0.0411684773301918,-11.25,25.8,12.45,444.33594,78.125,935.54687,-0.1171101965454179,-0.2043766591451344,-0.167871352510421,47.7,8.4,98.1,-726.5625,-2.44141,730.46875,0.450055138775313,-0.1179097318757565,-0.0787396565390981,56.55,21.45,34.05
-859.86328,70.3125,-562.98828,-0.0317089673173077,0.0563568560798221,-0.0542251109314362,-13.35,26.25,11.1,424.80469,59.08203,918.94531,-0.0975253334100139,-0.2199647182934713,-0.1641408857672083,45.9,9.15,97.35,-724.60937,13.67187,750.48828,0.4342005678501965,-0.1565467836588557,-0.0951270764848485,56.55,21.45,33.75
-873.53516,66.40625,-559.08203,-0.0612863640191548,0.0812710820861907,-0.0261132672024887,-12.45,25.35,10.95,442.38281,50.29297,878.90625,-0.0835359958565038,-0.2057090434961068,-0.1906538333684037,47.7,9.15,98.1,-729.49219,-10.74219,754.39453,0.4771011099300675,-0.1714686506317065,-0.0704793622552594,56.4,23.85,34.5
-881.83594,68.84766,-562.98828,-0.0026645941690197,-0.0249142260063686,-0.0026645941690197,-12.45,25.35,10.95,428.22266,57.12891,890.13672,-0.1124472003828646,-0.1520167815853045,-0.2675282565358956,47.7,8.4,96.6,-723.63281,9.76562,773.92578,0.4324686776334425,-0.1008561197545199,-0.0923293136939016,56.4,23.85,34.5
-917.48047,44.43359,-559.08203,-0.0334410320669869,-0.005595700114819,-0.0090596550812521,-12.0,27.75,12.45,453.61328,32.22656,903.80859,-0.0615528757959344,-0.1069846688899728,-0.2739234919810532,46.35,8.4,97.35,-712.89062,-18.55469,759.76562,0.4291378912889365,-0.2070414278470793,-0.0587549384720623,56.55,22.5,33.3
-895.01953,37.10938,-563.47656,-0.0154548905264097,0.0069280844657914,-0.0270459711547545,-13.5,25.65,12.0,443.84766,68.84766,922.85156,-0.0444992636746978,-0.0831363154577971,-0.287779486379711,46.35,8.4,98.4,-710.44922,34.66797,769.04297,0.4396630993430884,-0.1854578136522914,-0.0563568560798221,56.7,23.1,35.25
-891.11328,52.24609,-536.13281,0.0397029243572922,-0.1120475199841579,0.0081271256619115,-13.05,25.8,12.9,478.51562,109.375,944.33594,-0.0542251109314362,-0.1300336615247351,-0.3330781108518222,45.9,8.4,98.1,-685.54687,49.31641,764.16016,0.4954869318693514,-0.2234288477928296,-0.1334976164911682,56.7,23.1,35.25
-874.02344,55.17578,-519.04297,-0.0286446927495813,-0.0343737360192527,-0.041301645952119,-13.05,25.8,12.9,462.40234,109.375,914.55078,-0.0270459711547545,-0.1416247421530798,-0.337341601148594,45.9,8.4,98.1,-688.96484,-9.76562,746.09375,0.5161378421118735,-0.2350199284211744,-0.0322419908708668,55.8,23.25,34.35
-848.14453,49.80469,-509.76562,0.0019984019935335,-0.0758085505932989,-0.0366386497895657,-12.3,25.8,11.85,470.21484,129.88281,920.89844,-0.0716784034513795,-0.1949173236651755,-0.3218867106221842,46.2,7.05,98.25,-668.45703,-8.78906,753.41797,0.52040115787572,-0.2959066120416226,-0.0001331686219271,56.1,21.9,35.55
-821.77734,26.36719,-523.92578,0.0608866836204481,-0.0887320155726161,-0.0098591904115907,-13.2,25.35,12.6,450.68359,124.02344,860.83984,-0.1509510835440367,-0.158944866051096,-0.2677947683126752,47.7,7.35,97.65,-650.87891,43.45703,758.30078,0.5804884806987548,-0.3140260967370522,-0.0511608363637097,57.45,21.6,34.2
-822.26562,26.85547,-538.08594,0.075275701572665,0.0038636353651398,-0.0026645941690197,-13.35,25.8,12.9,456.54297,64.45313,906.73828,-0.2246278889889497,-0.134430320443434,-0.2919096335216304,47.55,8.25,97.95,-652.34375,14.16016,787.59766,0.6137963441438147,-0.1314992144976347,-0.0766079113907123,57.15,23.1,34.95
-841.79687,17.08984,-545.41016,0.063684446411395,0.0299770771005538,0.005595700114819,-12.15,25.65,12.6,467.77344,72.75391,866.69922,-0.1052526041402936,-0.1059187963157798,-0.3282817715344166,46.2,8.25,98.25,-657.71484,112.30469,795.41016,0.6738836669668493,-0.1135130729570576,-0.0097258472567384,54.75,24.75,35.4
-871.58203,7.8125,-557.61719,0.1280352595312016,-0.004529827540626,0.0554241521275563,-12.15,25.65,12.6,472.65625,42.48047,947.75391,-0.0564900247017492,-0.1686707133078344,-0.3507979151485451,46.5,7.05,97.95,-645.50781,139.16016,804.6875,0.6892052143384068,-0.0448989440734045,-0.0652833425391471,55.5,22.5,35.1
-914.0625,-1.95312,-571.28906,0.1506845717672572,0.0476967068643514,0.0999234158022541,-13.05,26.25,12.15,469.23828,48.82813,910.15625,0.0117244237831971,-0.1309663654770009,-0.3301470049060229,45.9,6.9,97.35,-636.23047,145.50781,791.99219,0.649102609582408,-0.0587549384720623,0.0070612530877186,55.5,22.5,35.1
-935.05859,-40.52734,-562.01172,0.1152449631738115,-0.0622190679714206,0.1244379614099161,-12.3,25.05,12.45,466.30859,80.56641,850.58594,0.1077840296873862,-0.0562235129249697,-0.3928989218980775,45.9,6.9,97.35,-649.41406,150.87891,756.83594,0.7550214058981878,0.091529778363563,-0.0490290912153239,56.4,23.85,34.2
-943.35937,-41.01563,-556.15234,0.2223629752186367,-0.0746095093971788,0.2191653574960579,-12.15,26.4,13.05,528.80859,115.23438,932.12891,0.184658452854878,-0.1184425808963904,-0.3886356061342309,46.65,7.65,99.15,-650.39062,130.37109,714.84375,0.6995972537706314,0.2094395102393195,-0.0161209081689708,56.4,23.85,34.2
-911.13281,-12.20703,-531.25,0.2590014504752773,-0.0746095093971788,0.2067749160702998,-12.15,26.4,13.05,441.89453,104.00391,906.73828,0.2704593624816949,-0.0788728251610253,-0.4781669825042605,45.15,8.85,98.85,-628.90625,119.14063,718.75,0.7245114797770001,0.2523400523191905,0.011191400229638,56.7,23.1,34.95
-856.93359,14.64844,-524.90234,0.2728576194068603,-0.1097826062138449,0.2231623360160501,-12.3,25.5,12.9,505.37109,127.92969,906.73828,0.3481333209795254,0.0298437339457014,-0.4455253112346869,46.65,7.65,98.85,-674.80469,119.14063,711.42578,0.5838192670432608,0.2983046944338628,-0.0011990411961201,55.8,23.25,33.75
-824.70703,29.78516,-524.90234,0.3368085775950349,-0.1490856756395052,0.2450122874546923,-10.65,24.9,12.0,453.61328,172.36328,882.8125,0.2474103698469326,0.0483628990398376,-0.4006263671612824,46.65,7.65,98.85,-640.13672,115.72266,687.98828,0.5351898562266436,0.2347534166443949,0.0814042507081179,56.25,23.7,32.25
-819.33594,57.61719,-509.76562,0.3401393639395409,-0.1341638086666545,0.1738667330239467,-11.25,25.8,10.8,465.33203,200.68359,814.45312,0.2860474216300318,0.0576890658978693,-0.4056890437225423,46.8,8.55,98.25,-664.0625,118.16406,704.58984,0.5848851396174538,0.2836493392377916,0.1156446435725182,54.9,23.1,33.15
-827.14844,66.89453,-501.95312,0.2680612800894547,-0.1021883295725672,0.148952507017578,-13.05,25.05,11.4,460.9375,173.33984,840.33203,0.2853812294545456,0.1120475199841579,-0.3318790696557022,48.3,8.25,98.25,-662.10937,149.41406,709.47266,0.4347335914037555,0.3124272006093001,0.0750091897958855,55.65,24.15,34.2
-820.80078,67.87109,-491.69922,0.302301672953855,-0.1212403436873373,0.2131699769825322,-13.05,25.05,11.4,466.79687,210.44922,849.12109,0.1977150864561224,0.0815375938629702,-0.3040337377035342,48.3,8.25,98.25,-671.875,169.92187,700.19531,0.3511975955472518,0.2701930252378405,0.0407687969314851,55.2,24.75,34.8
-805.66406,62.5,-493.16406,0.2880459981564905,-0.071944915228159,0.1755987977736259,-11.25,25.5,11.85,455.56641,226.07422,886.71875,0.2444792639011333,0.1077840296873862,-0.2744563410016871,47.4,6.6,98.1,-685.05859,180.17578,684.08203,0.3911668571483984,0.2781868077448998,0.1295008125041012,55.2,24.75,34.8
-795.41016,61.52344,-497.55859,0.2027779375503076,-0.0170536121212365,0.0634181091675407,-13.35,27.3,12.15,436.03516,269.04297,874.02344,0.1831928998819784,0.069680001457846,-0.1693369054833206,47.4,8.1,97.35,-704.10156,208.49609,667.48047,0.3157579869538061,0.2382175461437532,0.0339738810876208,57.0,24.3,33.75
-803.22266,37.59766,-495.11719,0.2247610576108769,-0.0691469779042869,0.0198513749121835,-13.05,25.05,12.15,415.52734,260.25391,843.75,0.1504180599904777,0.080871401687484,-0.1632081818149425,46.8,7.8,98.25,-701.17187,217.77344,670.41016,0.2287580361308692,0.1428239578821251,0.0499617951675896,57.15,24.9,32.4
-810.54687,14.64844,-515.13672,0.2159679143064043,-0.0520933657830503,0.0274456515534612,-13.05,25.05,12.15,419.43359,288.57422,873.53516,0.0909969293429291,0.1203078142679967,-0.067015232755901,46.8,7.8,98.25,-694.82422,227.05078,667.96875,0.1265697065583019,0.0318423104721601,0.0812710820861907,56.7,23.1,32.1
-824.70703,9.76562,-532.22656,0.1580123366317554,-0.0487625794385443,0.0738101485997654,-12.6,24.75,12.45,405.27344,253.90625,877.92969,0.1745329251994329,0.0824701232823108,-0.0985910314512816,47.55,8.25,98.55,-691.40625,210.44922,660.64453,0.0378376909856858,0.0876661429984231,-0.0366386497895657,57.9,24.15,31.35
-824.70703,8.30078,-536.13281,0.210771894590292,0.0066615726890119,-0.0047963393174056,-13.05,23.25,13.2,392.57812,254.39453,885.25391,0.0222496318373489,0.0810045703094112,0.0174532925199432,48.6,7.8,97.95,-728.51562,177.24609,679.19922,-0.0255804181818548,0.0198513749121835,-0.0159877395470436,56.4,24.15,31.35
-818.84766,23.92578,-537.59766,0.1191087730718766,-0.0443659205198454,0.0530260697353161,-13.2,23.4,12.3,386.71875,250.97656,836.42578,0.0050628510941851,0.0559571756811154,0.0564900247017492,45.9,8.85,97.05,-688.47656,161.13281,723.63281,-0.0828698036810175,-0.0089264864593249,0.0988575432280612,55.8,24.15,34.2
-798.82812,24.90234,-530.27344,0.0001331686219271,0.0674150876875329,-0.0309096065198943,-10.95,23.25,12.45,380.37109,261.23047,849.60937,0.1005896079777403,-0.0175864611418704,0.0856677410048896,47.1,8.85,97.35,-740.72266,140.625,681.15234,-0.1669388230910804,-0.0334410320669869,0.0165205885676775,55.8,24.3,31.95
-790.52734,41.99219,-533.69141,0.0739433172216925,-0.0281118437289474,0.0057288687367461,-10.95,23.25,12.45,366.21094,161.13281,897.94922,0.0504946441882235,0.0269126279999021,0.1484196579969441,47.25,10.5,98.25,-756.83594,141.11328,703.61328,-0.2053093630974001,-0.1269693869570086,0.069680001457846,55.8,24.3,31.95
-796.38672,43.94531,-541.99219,0.0207840788644492,-0.059687642424328,0.023981696587028,-12.3,24.3,11.85,371.58203,155.27344,872.55859,-0.0195850376683291,0.0163874199457503,0.2133031456044594,46.8,8.25,97.95,-724.60937,133.30078,703.125,-0.2129034652057527,-0.1263031947815224,-0.0330413516682802,57.15,23.85,33.9
-811.52344,47.85156,-528.80859,-0.069680001457846,0.0448989440734045,-0.0885988469506889,-12.15,23.4,11.55,381.34766,156.73828,935.54687,0.0486294108166172,0.011191400229638,0.1123138572280122,46.8,8.25,97.95,-714.84375,143.06641,709.96094,-0.3603905937833563,-0.086467101802303,0.1217733672408963,57.15,23.85,33.9
-833.98437,62.5,-533.69141,-0.0788728251610253,-0.0026645941690197,-0.068081105330094,-12.3,24.0,11.4,420.89844,138.18359,967.77344,-0.0195850376683291,-0.036238969390859,0.1530826541594974,46.8,8.25,97.95,-718.26172,148.92578,672.36328,-0.300036759183542,-0.1717349878755608,0.1942511314896893,57.0,25.8,31.95
-813.47656,77.14844,-555.66406,-0.1550812306859561,-0.0077274452632048,-0.0980581824306478,-12.3,24.0,11.4,384.76562,150.87891,896.97266,-0.1203078142679967,-0.0683476171068735,0.1418912539298594,46.8,8.25,97.95,-688.47656,175.29297,708.98437,-0.3611899545807697,-0.0728774446474996,0.0646171503636608,56.4,23.85,32.1
-822.26562,77.14844,-548.82812,-0.2199647182934713,0.0707458740320389,-0.164540566165915,-12.3,24.0,11.4,408.20312,209.96094,883.30078,-0.018385996472209,-0.0326416712695735,0.1029876903699806,47.25,8.55,97.5,-729.98047,196.77734,743.16406,-0.4036906417290088,-0.1333644478692411,0.0600873228230347,56.4,24.15,32.85
-838.37891,65.91797,-548.33984,-0.1861240058277777,0.0327748398915007,-0.1389601479840601,-13.05,24.0,11.85,437.5,202.63672,924.80469,-0.0555574952824086,-0.0002665117767795,0.1574793130781963,46.5,9.3,99.0,-640.625,220.70312,619.62891,-0.2436799031037199,-0.0178529729186499,0.0579555776746489,55.8,24.0,32.55
-812.5,52.73438,-556.64062,-0.1858576685839233,0.0105252080541518,-0.1601439072472161,-12.0,24.75,11.1,443.84766,238.76953,944.82422,-0.0760750623700784,-0.0043966589186989,0.2498086267720979,46.5,9.3,99.0,-749.51172,250.48828,700.19531,-0.4659097097004295,0.0391699008037331,0.0716784034513795,55.65,24.15,34.5
-812.01172,37.10938,-606.44531,-0.2530060699617516,0.0764747427687851,-0.2268928027592628,-12.15,24.6,13.35,375.97656,240.23437,906.73828,-0.0847350370526239,-0.04849624219469,0.3426707894866335,47.55,7.8,98.25,-660.64453,250.0,675.29297,-0.5554410860704591,0.0070612530877186,0.1473537854227512,55.2,25.05,33.3
-862.79297,33.20313,-609.375,-0.1873230470238978,0.0025314255470925,-0.1826600508613445,-11.55,24.75,12.9,396.48437,244.14062,862.30469,-0.1231057515918688,-0.0159877395470436,0.326816218561517,46.2,9.0,99.75,-671.38672,240.72266,766.11328,-0.8558775256527077,0.0051960197161123,0.0774072721881257,55.2,25.05,33.3
-924.31641,33.20313,-598.14453,-0.1642740543891354,-0.032375159492794,-0.1749326055981396,-11.55,24.75,12.9,451.66016,257.32422,895.50781,-0.094860564708069,-0.0123904414257581,0.405422706478688,46.2,9.0,99.75,-688.47656,201.17187,787.10937,-0.9623293455220469,0.0726111074036452,0.1225727280383097,55.35,24.15,34.2
-935.05859,42.96875,-554.19922,-0.2176998045231583,-0.0831363154577971,-0.230889781279255,-12.0,24.0,11.85,477.53906,219.72656,912.59766,-0.0342403928644003,-0.0094593354799588,0.4320689972347358,47.25,8.55,98.25,-699.70703,193.84766,712.89062,-0.8734639867945782,0.057422728654015,0.1553475679298105,56.25,23.7,33.75
