IMU1_AccX,IMU1_AccY,IMU1_AccZ,IMU1_GyrX,IMU1_GyrY,IMU1_GyrZ,IMU1_MagX,IMU1_MagY,IMU1_MagZ,IMU2_AccX,IMU2_AccY,IMU2_AccZ,IMU2_GyrX,IMU2_GyrY,IMU2_GyrZ,IMU2_MagX,IMU2_MagY,IMU2_MagZ,IMU3_AccX,IMU3_AccY,IMU3_AccZ,IMU3_GyrX,IMU3_GyrY,IMU3_GyrZ,IMU3_MagX,IMU3_MagY,IMU3_MagZ
-834.96094,276.36719,-380.85937,0.0608866836204481,0.0393032439585855,0.054091942309509,-11.1,28.65,21.45,-80.56641,-104.49219,1170.41016,0.0459648166475974,-0.2127702965838255,-0.1839922606793918,72.45,3.75,86.55,-881.34766,-125.48828,587.89062,0.6405758035217896,-0.0644839817417337,-0.1326982556937548,58.35,24.3,22.5
-889.16016,268.55469,-405.76172,-0.0091929982361045,0.041301645952119,-0.0519601971611231,-12.45,27.45,21.0,-88.37891,-94.23828,1177.24609,-0.1625421641723815,-0.2613997074004427,-0.1524164619840112,73.05,3.15,86.7,-869.14062,-148.4375,566.89453,0.7742067631678103,-0.0707458740320389,-0.004529827540626,57.45,25.65,21.6
-921.38672,277.34375,-394.53125,-0.0106585512090041,0.0604870032217414,0.0294440535469947,-11.4,28.95,22.05,-83.00781,-116.69922,1104.98047,-0.2907105923255103,-0.2931086747177505,-0.2256937615631427,70.2,3.45,87.0,-833.49609,-130.37109,555.66406,0.922359909387975,-0.0762082309920056,-0.2304901008805483,57.45,25.65,21.6
-957.51953,270.01953,-412.10937,-0.0194516945134768,-0.0109248884528585,-0.0007993607974134,-10.65,29.7,20.7,-87.89063,-169.43359,1041.01563,-0.3890352865329376,-0.2258269301850698,-0.2282251871102353,70.8,1.65,87.75,-807.12891,-87.40234,511.23047,0.9643277475155804,-0.1041869060990259,-0.2029111061722347,58.2,23.85,19.5
-973.63281,274.41406,-429.19922,-0.0724777642487929,-0.0249142260063686,-0.0198513749121835,-10.65,29.7,20.7,-91.30859,-281.25,976.5625,-0.1698697545039545,-0.2412818207114797,-0.345202215033726,70.8,1.65,87.75,-812.5,7.32422,502.44141,0.9775175497387516,-0.0587549384720623,-0.2133031456044594,58.2,23.85,19.5
-973.14453,276.85547,-418.94531,-0.1099157748357721,-0.1045865864977326,0.0810045703094112,-11.1,27.9,20.4,-78.61328,-382.32422,844.72656,0.2608666838468836,0.0684807857288007,-0.6236555345554053,73.05,2.4,85.95,-804.19922,120.60547,479.98047,0.8457519979972625,-0.0476967068643514,-0.2158345711515519,56.7,25.65,21.15
-965.82031,259.27734,-425.29297,-0.0924624823158288,-0.1369617459905266,0.0712787230526728,-10.95,29.25,20.85,-51.26953,-181.64062,719.23828,0.403157792708375,0.5529096605233664,-0.6626922667372114,72.15,1.05,87.9,-830.07812,194.82422,467.77344,0.141091893132446,-0.3246844734131311,-0.389301623776792,57.6,24.3,19.95
-955.56641,235.35156,-420.41016,-0.1437564873014657,-0.1572128013014168,0.1031210335248329,-11.25,27.75,20.55,-80.07813,-20.99609,895.01953,0.3777105431484472,0.10205516095064,-0.5378544503956634,71.55,3.15,85.95,-825.68359,289.0625,514.16016,0.5750259492058629,-0.1220398790176759,-0.3400061953176138,57.15,24.6,20.1
-935.05859,223.14453,-392.57812,-0.0933951862680945,-0.2244947203670226,0.1243047927879889,-10.95,27.75,21.6,-11.23047,-47.36328,1047.85156,0.3833062432632662,0.0459648166475974,-0.5032143771325562,71.55,3.15,85.95,-834.96094,313.96484,535.64453,0.4044900025264222,-0.071944915228159,-0.1624088210175291,57.3,24.75,21.0
-898.92578,228.51562,-364.25781,-0.0658161915597809,-0.1763981585710393,0.2053093630974001,-10.95,27.75,21.6,-16.11328,62.98828,1014.16016,0.510275630220275,0.1247044731866956,-0.4536524368965985,70.8,2.4,86.25,-835.9375,294.92187,519.04297,0.3050996102777272,-0.0626187483701273,-0.1308330223221485,57.3,24.75,21.0
-890.13672,238.76953,-346.19141,-0.1189754299170242,-0.1388269793621329,0.2057090434961068,-11.85,29.7,20.4,-55.17578,50.78125,999.51172,0.3573261446827047,0.1417580853079322,-0.3450688718788737,72.15,2.25,87.15,-824.70703,260.25391,515.13672,0.2756553821978072,0.0608866836204481,-0.114312433754471,56.25,23.25,21.75
-879.88281,256.83594,-337.40234,-0.0503614755662963,-0.1405590441118121,0.1445558480988791,-9.9,29.25,21.3,-93.26172,47.36328,1051.75781,0.2412818207114797,0.082603291904238,-0.2847152118119845,72.45,1.05,84.3,-828.61328,232.42187,499.51172,0.1991806394290221,0.0403691165327784,-0.1333644478692411,56.25,23.25,21.75
-877.44141,250.0,-348.14453,-0.007860613885132,-0.1530826541594974,0.2133031456044594,-12.0,29.85,20.25,-126.95313,23.4375,1002.44141,0.1437564873014657,0.0806048899107045,-0.234220567623761,72.45,1.05,84.3,-833.49609,213.37891,502.92969,0.2364854813940741,0.0531592383572432,-0.1405590441118121,58.5,24.15,21.15
-884.76562,260.25391,-346.67969,-0.0572893854991626,-0.0832694840797242,0.1084502218628724,-9.6,28.95,22.8,-136.71875,-14.64844,964.84375,-0.0135896571548034,0.1201746456460695,-0.1374945950111605,70.65,3.0,86.55,-832.51953,226.07422,510.74219,0.2198315496715442,0.0014655529728996,-0.0977916706538682,57.3,24.0,21.3
-887.20703,261.71875,-362.30469,0.0025314255470925,-0.032908183046353,0.2065084042935202,-9.6,28.95,22.8,-137.20703,-29.29688,963.37891,0.032375159492794,0.1373614263892333,-0.1501515482136981,70.5,3.45,85.95,-831.05469,230.95703,523.4375,0.1468207618691921,0.0171867807431637,-0.0594211306475485,58.2,23.1,19.5
-881.34766,286.62109,-345.70312,0.0544916227082157,-0.0698131700797731,0.1448223598756587,-9.6,28.95,22.8,-130.37109,-37.59766,955.07812,-0.029044373148288,0.1152449631738115,-0.1329647674705344,71.4,0.75,85.5,-816.89453,237.30469,530.27344,0.0631515973907612,0.1093829258151382,-0.0019984019935335,57.45,21.9,19.5
-907.71484,272.94922,-357.91016,0.0126569532025376,-0.0546247913301429,0.0027979373238721,-10.65,28.65,20.4,-116.21094,-82.51953,977.05078,-0.0170536121212365,0.1332312792473139,-0.1195084534705833,71.4,0.75,85.5,-818.84766,232.42187,536.62109,-0.0623522365933478,0.0567565364785288,0.0117244237831971,57.45,22.35,20.55
-920.89844,278.32031,-370.11719,0.0639509581881746,-0.095393588261628,-0.0115910806283447,-10.65,28.95,20.7,-79.10156,-88.86719,977.05078,0.0278453319521679,0.1501515482136981,-0.1275022359776425,71.7,0.0,85.5,-809.08203,216.79687,538.08594,-0.0896645449919567,0.0354394340605204,0.0444992636746978,57.0,23.25,20.25
-923.33984,258.78906,-363.76953,0.0163874199457503,-0.0698131700797731,0.0258469299586344,-10.5,27.75,20.85,-64.94141,-89.35547,986.81641,0.0656830229378538,0.1047197551196597,-0.0884655037958365,70.8,2.4,86.7,-813.47656,200.19531,546.875,-0.1438898304563181,0.0191853572696224,0.0401026047559989,57.0,23.25,20.25
-916.50391,259.76562,-364.25781,-0.0409019655534123,-0.0170536121212365,-0.1095160944370653,-10.2,28.8,19.5,-44.43359,-68.84766,992.67578,0.0515605167624164,0.11990813386929,0.0271791397766816,70.8,2.4,86.7,-816.40625,148.4375,582.03125,-0.2194318692728375,0.0656830229378538,0.0377045223637587,56.7,23.1,20.55
-893.55469,275.87891,-351.07422,-0.0631515973907612,0.0123904414257581,-0.0780734643636119,-10.2,28.8,19.5,-38.08594,-61.03516,1024.41406,0.0263797789792682,0.0851347174513306,0.0405022851547056,72.45,2.25,86.55,-834.96094,94.23828,561.03516,-0.1855911568071438,0.0740764858436197,0.040235773377926,56.7,23.1,20.55
-879.88281,279.78516,-336.42578,-0.0848683802074762,-0.050761155965003,-0.0562235129249697,-11.1,29.7,21.45,-38.08594,-64.45313,1034.17969,0.0142556747973644,0.1189754299170242,0.0231821612566894,71.55,1.2,87.0,-852.05078,78.125,605.95703,-0.1817273469090787,0.0397029243572922,0.0095926786348112,56.7,23.1,20.55
-848.63281,304.6875,-354.49219,-0.1484196579969441,-0.0466310088230837,-0.0747426780191059,-10.95,28.8,22.65,-69.82422,-58.10547,1005.85937,-0.0294440535469947,0.1117810082073784,0.0571562168772355,70.65,2.55,85.05,-824.21875,79.10156,587.89062,-0.1361623851931132,0.067015232755901,0.0115910806283447,56.25,22.95,19.65
-837.40234,287.59766,-333.98437,-0.1791960958949114,-0.0347734164179594,-0.0266462907560478,-9.9,29.55,20.85,-83.00781,-59.57031,1000.97656,-0.0433002224785777,0.1322985752950481,0.0171867807431637,70.65,2.55,85.05,-836.42578,62.5,584.96094,-0.1085833904847996,0.0666155523571943,-0.031309286918601,58.8,22.95,20.25
-817.38281,273.92578,-332.03125,-0.225960098806997,-0.0430337107017981,0.0051960197161123,-11.4,29.7,20.7,-163.57422,-50.29297,849.12109,-0.0907304175661496,-0.140026020558253,0.0235820161883213,71.25,2.4,85.95,-818.84766,65.42969,603.02734,-0.1424242774834185,0.0799386977352182,-0.0471638578437175,56.7,23.85,20.85
-801.75781,238.76953,-336.91406,-0.2973721650145223,0.0363721380127862,-0.0369049870334201,-11.4,29.7,20.7,-83.49609,-115.23438,1020.99609,-0.1051194355183664,0.0101255276554451,0.0326416712695735,73.05,2.4,87.45,-806.64062,66.89453,573.24219,-0.0831363154577971,0.0342403928644003,-0.0739433172216925,57.0,24.75,20.7
-827.63672,236.81641,-336.42578,-0.2929755060958233,0.0564900247017492,0.0019984019935335,-9.9,29.25,20.85,-55.66406,-70.3125,990.23437,-0.0730107878023519,0.0043966589186989,-0.0042633157638465,71.7,2.25,86.55,-816.89453,73.24219,589.84375,-0.0956601000384076,0.0038636353651398,-0.0639509581881746,57.0,24.75,20.7
-829.58984,240.23437,-339.35547,-0.2400826049824344,0.0123904414257581,-0.0003996803987067,-10.65,28.65,21.75,-83.00781,-68.84766,952.14844,-0.0995237354035474,0.0688804661275074,0.0231821612566894,72.0,1.95,86.7,-807.12891,69.33594,606.93359,-0.093128674491315,-0.0258469299586344,-0.0599539796681824,58.2,23.4,18.75
-845.70312,239.25781,-340.82031,-0.2723245958533012,0.0746095093971788,-0.0632847660126884,-10.65,28.95,21.45,-78.125,-121.09375,1031.73828,-0.0548913031069224,-0.0301102457224809,-0.0237151848102485,72.3,1.95,84.9,-821.28906,59.57031,612.30469,-0.0442327518979182,-0.0479632186411309,-0.0353062654385932,58.2,23.4,18.75
-853.51562,246.58203,-361.32812,-0.2644639819681691,-0.0439662401211387,-0.0595542992694757,-10.65,29.7,20.4,-80.07813,-112.30469,997.07031,0.002264913770313,-0.0259800985805615,-0.0246477142295891,71.4,1.8,84.3,-804.19922,61.03516,615.72266,-0.0226493122360556,-0.0656830229378538,-0.0704793622552594,58.35,23.25,21.75
-866.69922,269.04297,-359.86328,-0.1943843001116164,-0.0604870032217414,-0.0707458740320389,-10.65,29.7,20.4,-90.33203,-85.44922,1003.90625,-0.0069280844657914,-0.0472970264656447,-0.0387702204050264,71.4,1.8,84.3,-813.96484,65.42969,599.12109,-0.0357059458372999,0.0043966589186989,-0.1164441789028568,57.6,23.7,20.25
-885.25391,283.20312,-368.65234,-0.2993705670080557,-0.0666155523571943,-0.1252373222073295,-10.65,30.9,21.0,-71.28906,-92.28516,1017.57812,-0.0560903443030425,-0.0206509102425221,-0.0511608363637097,71.1,1.05,87.15,-822.75391,82.03125,594.23828,0.0091929982361045,0.0034639549664331,-0.0730107878023519,58.05,22.5,19.95
-970.70312,103.51563,80.56641,0.2043766591451344,0.1057856276938527,0.0804717212887773,4.5,25.5,36.9,-123.53516,-220.70312,1018.06641,-0.1155114749505911,0.0091929982361045,0.218099484921865,72.9,1.5,88.35,-848.63281,14.16016,557.12891,-0.1906538333684037,-0.0181194846954295,0.0666155523571943,57.6,23.25,20.25
-1009.27734,102.53906,72.75391,0.1545482071323971,0.1264363634034496,0.0498284520127373,4.5,25.5,36.9,-102.53906,-244.62891,1020.99609,-0.0600873228230347,0.0528927265804637,0.1502848913685505,72.3,1.2,88.05,-865.23437,18.06641,569.82422,-0.1732005408484604,-0.0053291883380394,0.0952604196397009,56.7,24.6,20.1
-1039.55078,94.23828,53.22266,0.1680045211323481,0.1454885520511449,0.0318423104721601,5.1,25.35,37.8,-87.40234,-237.30469,1005.37109,0.0314426300734534,0.0389035635598788,0.1580123366317554,72.15,0.75,87.15,-843.75,-18.06641,546.875,-0.1494855305711371,0.0159877395470436,0.0844685252758443,56.7,24.6,20.1
-1041.50391,108.88672,54.6875,0.1235054319905755,0.0795390173365115,0.1087167336396519,6.15,26.1,34.95,-68.35938,-201.17187,998.53516,0.1444226794769519,0.0823369546603836,0.0642174699649541,72.3,1.95,87.45,-844.72656,1.46484,569.82422,-0.1642740543891354,-0.005595700114819,0.096459460835821,56.7,23.1,21.15
-1043.45703,123.53516,63.47656,0.1460214010717788,0.0551578148837019,0.0947273960861418,6.3,25.5,36.3,-62.5,-149.90234,978.51562,0.23981626773858,0.1184425808963904,-0.0011990411961201,72.3,1.95,87.45,-848.63281,1.46484,575.19531,-0.059687642424328,-0.0157212277702641,0.0623522365933478,56.7,23.1,21.15
-1048.33984,117.67578,58.10547,0.089797888146809,0.0258469299586344,0.1334976164911682,5.7,25.65,36.45,-89.35547,-54.6875,1004.88281,0.242081181508893,0.1215068554641168,0.0334410320669869,73.05,1.95,88.5,-838.37891,14.16016,557.61719,-0.0209172474863764,-0.0161209081689708,0.0531592383572432,57.45,23.4,20.85
-1037.10938,122.07031,64.45313,0.0103920394322246,0.0756753819713717,0.0941945470655079,5.7,25.65,36.45,-94.72656,-22.94922,1070.3125,0.2027779375503076,0.1059187963157798,-0.071944915228159,73.05,2.7,86.7,-848.63281,49.80469,583.98437,-0.0486294108166172,0.0350397536618137,0.0664823837352672,57.15,24.15,21.6
-1033.20313,132.8125,64.94141,0.0047963393174056,0.0069280844657914,0.0937948666668012,5.7,24.9,36.0,-97.16797,-7.32422,1067.38281,0.131099534098928,0.040235773377926,0.049162259837251,73.05,2.7,86.7,-845.70312,68.35938,537.59766,-0.0365053066347134,0.022382800459276,0.0626187483701273,57.9,23.1,21.15
-1029.78516,122.55859,65.42969,-0.0330413516682802,-0.0560903443030425,0.0784731447623186,6.0,26.55,35.85,-110.83984,-52.73438,1033.69141,-0.0034639549664331,0.0371714988101996,0.1184425808963904,74.25,3.0,87.15,-838.37891,74.70703,553.22266,-0.0885988469506889,0.0138559943986577,0.0357059458372999,58.2,23.4,19.05
-1013.18359,113.76953,78.125,-0.046897346066938,0.0083936374386911,0.0057288687367461,5.7,24.9,36.45,-98.63281,-96.19141,991.69922,-0.0181194846954295,0.05475795995207,0.1228392398150893,72.6,0.45,87.45,-825.68359,75.19531,566.40625,-0.094860564708069,0.0351730968166661,0.0496952833908101,58.2,23.4,21.15
-1008.78906,103.02734,67.87109,-0.0779402957416847,0.0209172474863764,-0.0157212277702641,5.25,25.5,35.55,-75.68359,-109.375,1005.37109,-0.0439662401211387,0.0989908863829135,0.1338974714228001,71.25,3.45,87.0,-813.96484,59.08203,540.52734,-0.049162259837251,0.0530260697353161,0.032375159492794,58.35,23.7,22.05
-988.28125,114.25781,70.80078,-0.070346019100407,-0.0913966097416358,-0.0355727772153728,5.25,25.5,35.55,-90.82031,-110.35156,993.16406,0.0143890179522168,0.1494855305711371,0.1119141768293056,71.25,3.45,87.0,-824.21875,50.29297,573.73047,-0.1047197551196597,0.0542251109314362,0.0698131700797731,58.35,23.7,22.05
-981.93359,117.67578,67.38281,-0.1007227765996675,-0.0006661921754862,-0.0470306892217904,4.65,25.65,35.7,-73.24219,-129.39453,984.375,0.0123904414257581,0.1023216727274195,0.1709356270781474,72.15,3.0,85.8,-836.91406,51.26953,587.89062,-0.1252373222073295,0.0967257980796753,0.0109248884528585,57.15,23.85,20.1
-990.72266,117.67578,79.58984,-0.1003230962009608,-0.0154548905264097,-0.0972588216332344,4.35,26.4,36.45,-84.47266,-125.97656,1013.18359,0.0105252080541518,0.0627519169920545,0.0806048899107045,72.9,2.25,86.55,-830.07812,60.54688,579.58984,-0.0587549384720623,0.0448989440734045,0.087532974376496,57.3,23.7,20.25
-966.30859,116.69922,72.26563,-0.0973919902551615,-0.0632847660126884,-0.041834669505678,6.45,25.65,36.0,-95.70313,-121.09375,980.46875,0.0338407124656936,0.0494287716140306,0.0615528757959344,72.6,1.95,87.0,-823.73047,50.29297,589.35547,-0.0476967068643514,0.0438330714992115,0.0796723604913639,58.05,24.0,21.75
-961.42578,124.02344,77.63672,-0.1779968801658661,0.0536922619108023,-0.0608866836204481,4.5,26.55,35.85,-100.58594,-100.09766,1000.48828,0.070346019100407,0.0556906639043358,0.0933951862680945,72.6,1.95,87.0,-836.91406,60.05859,584.47266,-0.014522186574144,0.0712787230526728,0.0728774446474996,58.5,25.35,20.55
-957.51953,102.05078,83.00781,-0.1867901980032639,0.0655498543159266,-0.0893982077481023,4.5,26.55,35.85,-107.91016,-83.98438,1012.69531,0.080871401687484,0.0881991665519822,0.0692803210591393,72.15,2.25,86.85,-838.86719,81.05469,585.9375,-0.0515605167624164,0.0095926786348112,0.0238483534321757,57.0,24.3,21.3
-946.28906,99.60938,83.00781,-0.1501515482136981,0.0342403928644003,-0.0365053066347134,4.5,26.55,35.85,-96.19141,-58.10547,998.04687,0.1041869060990259,0.0383705400063197,0.0816707624848974,73.35,1.95,85.95,-844.72656,72.26563,595.70312,-0.0798055291132911,0.0839356762552105,0.027312482931534,57.6,24.0,21.75
-982.42187,92.28516,72.75391,-0.0832694840797242,0.0187856768709157,-0.1228392398150893,6.3,25.8,35.85,-89.35547,-46.875,1022.94922,0.1326982556937548,0.0017320647496791,0.0868667822010097,72.15,2.25,86.55,-839.84375,79.58984,574.21875,-0.0940612039106556,0.0270459711547545,0.0390367321818059,57.6,24.0,21.75
-981.44531,85.44922,62.5,-0.1469541050240445,0.1009892883764471,-0.1271025555789358,7.05,26.55,35.55,-94.72656,-41.99219,1015.13672,0.0695466583029936,0.0147886983509235,0.085934078248744,72.15,2.25,86.55,-828.61328,83.98438,593.75,-0.1526829737607907,0.0619525561946411,0.0458314734927451,57.0,24.3,21.75
-962.40234,98.14453,62.5,-0.0892648645932499,0.0059953805135257,-0.0522267089379027,5.1,26.7,37.05,-81.54297,-53.71094,1062.5,0.0698131700797731,0.0213169278850831,0.1155114749505911,72.3,2.4,88.05,-833.49609,84.47266,579.58984,-0.1855911568071438,0.0654165111610742,0.0436999028772844,57.0,24.3,22.05
-983.39844,113.76953,65.91797,-0.114312433754471,-0.0154548905264097,-0.0102588708102974,5.1,26.7,37.05,-108.88672,-42.96875,1029.29688,0.0221164632154217,-0.0038636353651398,0.1011224569983742,71.7,2.25,86.85,-826.66016,84.47266,565.42969,-0.1384272989634262,0.0277121633302407,-0.0091929982361045,57.0,24.3,22.05
-979.49219,148.4375,64.45313,-0.1653399269633284,0.057422728654015,-0.0924624823158288,4.95,25.5,35.55,-104.00391,-25.87891,984.86328,0.0301102457224809,-0.0097258472567384,0.1743997565775057,74.7,3.0,88.35,-818.84766,92.77344,546.38672,-0.1541485267336904,-0.0119907610270514,-0.0019984019935335,58.05,24.75,21.0
-985.83984,157.22656,52.24609,-0.1889219431516497,0.0213169278850831,-0.0787396565390981,4.65,26.1,34.65,-94.72656,-48.82813,1006.34766,0.0029311059457992,-0.0153215473715574,0.1672051603349347,74.7,3.0,88.35,-819.82422,92.28516,577.63672,-0.193584939314203,0.0083936374386911,0.0314426300734534,58.35,25.05,20.25
-1006.34766,173.82812,60.05859,-0.2588682818533501,0.0322419908708668,-0.0506278128101507,4.65,26.7,37.8,-104.00391,-29.29688,1019.04297,-0.0161209081689708,0.0077274452632048,0.2083736376651266,72.0,2.7,87.45,-828.125,80.56641,582.51953,-0.2014455531993351,0.0139893375535101,0.0110582316077108,56.4,23.85,20.55
-996.58203,171.38672,48.33984,-0.3449357032569465,0.0018652333716063,-0.1119141768293056,6.45,25.35,35.4,-18.55469,-51.75781,1125.0,0.0297105653237742,0.2542052856907969,0.2158345711515519,73.35,3.15,87.45,-824.21875,74.21875,596.19141,-0.1993139825838744,0.0515605167624164,0.0310429496747467,58.2,24.15,20.55
-997.07031,166.01562,63.96484,-0.4292710599108637,0.0009327039522657,-0.1653399269633284,6.45,25.35,35.4,-48.82813,-21.97266,1026.85547,-0.0957932686603347,0.0231821612566894,0.2188988457192784,73.35,3.15,87.45,-812.5,50.78125,588.86719,-0.1624088210175291,0.0535589187559499,0.0440995832759911,57.3,24.3,21.3
-993.65234,160.64453,62.01172,-0.4126171281883338,-0.0566231933236764,-0.2021117453748213,5.55,26.25,36.6,-55.17578,-53.71094,1041.01563,-0.1036538825454668,0.0427671989250186,0.2051760199425478,72.3,2.4,85.95,-822.75391,45.89844,590.33203,-0.1209740064434829,0.0309096065198943,-0.0305099261211876,57.6,24.0,20.25
-979.49219,141.11328,57.12891,-0.4717717470591028,-0.0423675185263119,-0.237551353968267,5.4,27.9,35.7,-58.10547,-80.56641,1064.45313,-0.1056524590719255,-0.0512940049856369,0.2023782571516009,72.6,2.7,86.7,-817.38281,19.04297,578.125,-0.0771409349442713,0.0620857248165682,0.0298437339457014,57.6,24.0,20.25
-990.23437,104.00391,51.75781,-0.4716385784371756,-0.0658161915597809,-0.2335543754482748,4.65,25.65,36.45,-75.19531,-139.64844,1040.03906,-0.145621720673072,-0.0650168307623675,0.1998468316045083,72.9,3.75,87.15,-831.05469,-1.95312,565.42969,-0.0631515973907612,0.0778071271197576,0.018385996472209,58.05,24.3,21.3
-1003.41797,74.21875,42.48047,-0.4048896829251289,-0.1068515002680456,-0.2267596341373356,5.1,26.1,36.45,-101.5625,-155.76172,1010.25391,-0.0626187483701273,-0.0222496318373489,0.2195650378947646,72.9,3.75,87.15,-834.47266,-18.06641,561.03516,0.0089264864593249,0.0548913031069224,0.0560903443030425,58.8,24.75,20.7
-986.81641,50.29297,48.82813,-0.4417948444914742,-0.0350397536618137,-0.3035007141499751,5.1,26.1,36.45,-111.81641,-141.60156,1016.60156,-0.0158545709251164,-0.0498284520127373,0.1842587724561713,73.05,3.15,86.25,-839.35547,-15.625,539.55078,0.0751423584178126,0.0310429496747467,0.0419678381276052,57.6,25.5,21.75
-1025.87891,51.26953,59.57031,-0.3733138842297483,-0.0127901218244648,-0.3301470049060229,5.55,24.75,37.35,-117.67578,-128.90625,1018.55469,-0.0017320647496791,-0.0023980823922402,0.1777305429220118,73.35,4.2,85.65,-855.95703,-13.18359,541.99219,0.107650861065459,0.045165455850184,0.0269126279999021,60.0,25.35,21.15
-1026.85547,34.66797,60.54688,-0.4184793400799323,-0.0496952833908101,-0.3020351611770755,5.7,26.4,36.0,-157.22656,-85.9375,999.51172,0.0398360929792193,0.0075941021083525,0.1027213531261262,72.15,2.25,86.55,-860.35156,11.23047,537.59766,0.1135130729570576,0.0051960197161123,0.0190520141147701,57.45,24.6,21.6
-1041.01563,55.66406,43.94531,-0.305632459298361,-0.0945942274642146,-0.2482097306443459,5.25,26.25,36.6,-152.83203,-74.70703,998.04687,0.0406354537766327,0.0046631706954784,0.1312327027208552,72.3,2.4,85.65,-868.16406,14.16016,541.01562,0.0969923098564548,0.0659495347146333,-0.0430337107017981,57.15,24.9,20.85
-1025.39063,58.59375,29.78516,-0.3595910584530177,-0.1012558001532266,-0.2388835637863142,6.15,26.1,36.0,-157.71484,-57.61719,992.1875,0.0627519169920545,0.0179861415405771,0.0892648645932499,72.3,3.45,86.25,-898.4375,13.67187,520.01953,0.1040535629441735,0.0343737360192527,-0.0154548905264097,57.15,24.9,20.85
-1023.92578,52.73438,42.48047,-0.2843155314132778,-0.0988575432280612,-0.1771975193684527,6.15,26.1,36.0,-136.23047,-66.40625,1004.39453,0.0014655529728996,0.0646171503636608,0.0900643999235885,72.9,3.0,85.05,-875.48828,20.01953,538.57422,0.0877993116203503,-0.0342403928644003,-0.0007993607974134,56.7,25.35,20.1
-1018.55469,31.73828,46.875,-0.2478100502456393,-0.103787051167394,-0.1546815502872494,5.1,24.9,36.45,-158.20312,-63.47656,981.93359,-0.031309286918601,0.0174532925199432,0.0956601000384076,72.9,3.0,85.05,-886.23047,16.60156,551.75781,0.0528927265804637,-0.0345069046411798,-0.043566559722432,56.7,25.35,20.1
-997.55859,28.80859,65.42969,-0.3101622868389871,-0.0578224090527217,-0.1672051603349347,5.4,26.1,36.75,-145.01953,-102.05078,995.60547,-0.1039203943222463,-0.0492956029921034,0.1136462415789847,72.45,3.3,85.5,-889.64844,-6.83594,538.57422,0.0912634411197086,-0.0578224090527217,-0.0173201238980161,58.5,25.65,19.8
-991.21094,47.85156,54.6875,-0.2182328280767173,-0.0811377389313384,-0.1072511806667523,5.25,25.05,37.65,-144.04297,-125.0,1007.8125,-0.1301670046795875,-0.0620857248165682,0.1163108357480045,73.8,3.15,87.0,-888.67187,19.53125,563.96484,0.0608866836204481,-0.0539585991546566,-0.0671485759107534,57.45,23.4,20.85
-980.95703,40.52734,45.41016,-0.2194318692728375,-0.0847350370526239,-0.0835359958565038,6.0,25.5,36.9,-134.27734,-140.625,992.1875,-0.1657396073620351,-0.0619525561946411,0.0579555776746489,73.35,3.9,86.25,-899.90234,-0.48828,531.73828,0.1072511806667523,-0.0844685252758443,0.0131899767560967,58.95,24.9,21.6
-970.21484,39.0625,43.94531,-0.2171669555025244,0.027312482931534,-0.1063184767144865,6.0,25.5,36.9,-132.32422,-149.41406,992.67578,-0.1093829258151382,-0.0213169278850831,0.0470306892217904,73.35,3.9,86.25,-890.625,7.32422,548.82812,0.0822036115055313,-0.0624854052152749,-0.0062618922903052,58.5,24.9,20.55
-989.25781,42.48047,43.94531,-0.1135130729570576,0.0398360929792193,-0.0062618922903052,5.7,28.2,37.5,-166.50391,-166.01562,1007.32422,-0.0839356762552105,-0.0588882816269146,0.0042633157638465,71.7,2.55,86.85,-873.53516,25.87891,537.59766,0.1496186991930643,-0.0582220894514284,-0.039569755735365,56.7,23.85,20.85
-997.55859,41.99219,40.52734,-0.1285681085518354,0.042900542079871,-0.0115910806283447,5.25,26.55,37.65,-161.62109,-165.52734,997.55859,-0.0644839817417337,-0.0863337586474507,-0.0472970264656447,72.0,3.15,87.45,-862.79297,54.19922,538.08594,0.1883889195980907,-0.1279019163763492,0.0170536121212365,57.9,24.15,21.15
-1016.11328,54.19922,31.73828,-0.1128468807815713,0.077007591789419,-0.0029311059457992,6.3,26.25,37.35,-154.78516,-145.50781,1002.92969,-0.006128723668378,-0.0850015488294034,-0.05475795995207,71.55,3.9,87.0,-862.30469,46.875,541.50391,0.1845252842329509,-0.1147121141531777,0.0158545709251164,57.9,24.15,21.15
-1021.48437,59.08203,26.85547,-0.0492956029921034,0.049162259837251,-0.0058622118915985,6.3,25.8,35.55,-132.32422,-143.06641,996.09375,0.007860613885132,-0.0851347174513306,-0.1035207139235396,72.3,3.15,85.95,-849.12109,60.05859,531.25,0.2015788963541875,-0.1233720888357231,0.0450321126953316,57.9,24.15,21.15
-1015.13672,54.6875,32.71484,-0.0546247913301429,0.0174532925199432,0.0158545709251164,6.3,25.8,35.55,-124.02344,-119.14063,997.07031,0.0243813769857347,-0.0716784034513795,-0.0872664625997164,71.55,1.95,86.7,-854.98047,61.03516,538.57422,0.1505512286124048,-0.1191087730718766,0.0506278128101507,57.15,24.15,20.55
-1009.76562,75.68359,29.29688,-0.0759418937481512,0.0430337107017981,-0.0852680606061829,7.2,26.4,36.75,-98.63281,-112.30469,1006.34766,0.0834028272345766,-0.0259800985805615,-0.085934078248744,72.9,3.3,87.15,-854.49219,46.38672,541.50391,0.1192419416938038,-0.069680001457846,-0.015055210127703,57.9,24.15,21.6
-1021.97266,62.5,46.875,-0.0433002224785777,0.0341072242424731,-0.0357059458372999,6.45,25.35,37.5,-106.44531,-96.19141,1009.76562,0.0576890658978693,-0.0728774446474996,-0.0923293136939016,72.9,3.3,87.15,-848.63281,33.20313,515.13672,0.1524164619840112,-0.0848683802074762,0.0109248884528585,58.8,24.0,21.3
-1029.78516,69.33594,40.03906,-0.0057288687367461,-0.0338407124656936,-0.0281118437289474,6.9,25.35,37.5,-102.53906,-90.82031,999.02344,0.0419678381276052,-0.0583552580733556,-0.0992572236267679,72.3,3.15,87.45,-838.37891,29.78516,527.34375,0.0814042507081179,-0.0867336135790826,0.0314426300734534,57.15,25.35,21.9
-1016.11328,80.56641,35.15625,-0.0095926786348112,0.0117244237831971,-0.0778071271197576,6.0,25.8,35.85,-111.32813,-97.16797,980.95703,0.0194516945134768,-0.0031976177225788,-0.0869999508229369,72.6,4.2,86.7,-831.54297,37.10938,547.36328,0.1272358987337882,-0.1097826062138449,0.0462311538914518,57.15,24.6,21.6
-1028.32031,105.95703,49.31641,-0.0235820161883213,-0.071944915228159,-0.0253139064050753,6.0,25.8,35.85,-116.21094,-104.98047,979.49219,0.0050628510941851,-0.004529827540626,-0.1384272989634262,71.4,3.75,87.15,-853.02734,47.36328,536.62109,0.2089066612186856,-0.1175098769441246,0.0073277648644981,57.6,24.0,21.0
-1031.25,81.05469,41.99219,-0.0053291883380394,-0.0976585020319411,-0.0282450123508746,5.55,26.55,37.35,-111.81641,-104.49219,989.74609,0.0017320647496791,-0.0285115241276541,-0.1318988948963414,71.4,3.75,87.15,-856.93359,44.92188,577.14844,0.2149020417322114,-0.1159111553492978,-0.0086599746825454,57.6,24.0,21.0
-1011.23047,83.98438,58.10547,-0.0836691644784309,-0.0706125308771865,-0.0818039311068246,5.25,27.3,37.95,-108.88672,-95.70313,1016.60156,0.007860613885132,0.0,-0.1548147189091766,71.4,3.75,87.15,-859.375,39.55078,553.71094,0.2731241311836399,-0.1032542021467601,-0.031309286918601,57.3,24.3,21.75
-1013.67187,64.94141,61.03516,-0.0983246942074273,-0.0430337107017981,-0.0884655037958365,5.25,26.25,36.6,-125.97656,-105.46875,994.14062,0.0251807377831481,-0.0283781809728018,-0.1121806886060851,72.6,1.95,87.75,-848.63281,45.41016,543.45703,0.242081181508893,-0.0768744231674918,0.0086599746825454,57.3,24.3,21.75
-1002.44141,45.41016,68.84766,0.0133231453780239,-0.1172435397002702,-0.0363721380127862,7.05,26.55,37.95,-111.81641,-98.14453,1034.66797,-0.0041301471419193,-0.0298437339457014,-0.1160443239712249,71.55,3.9,86.7,-829.10156,53.71094,545.89844,0.198514621786461,-0.0678147680862396,-0.0103920394322246,58.2,23.4,21.15
-1020.50781,40.03906,83.49609,-0.0419678381276052,-0.0578224090527217,-0.122173047639603,7.05,26.55,37.95,-94.23828,-101.07422,1029.29688,-0.0283781809728018,-0.0059953805135257,-0.1249709849634751,71.55,3.9,86.7,-849.12109,55.17578,554.19922,0.2103722141915853,-0.0258469299586344,0.0107917198309313,58.05,24.3,21.0
-1016.60156,35.15625,85.9375,0.0166539317225298,-0.0758085505932989,-0.132165406673121,7.05,26.55,37.95,-115.23438,-97.16797,1016.60156,0.0162542513238231,-0.0287778613715085,-0.1057856276938527,73.35,2.4,86.25,-833.00781,58.59375,571.28906,0.2078407886444927,-0.0800720408900706,-0.0074609334864253,56.55,25.5,20.25
-1021.97266,41.50391,86.42578,0.1091164140383586,-0.0754088701945922,-0.1024548413493467,6.0,26.55,36.9,-118.16406,-104.00391,1013.67187,-0.0178529729186499,-0.0199847180670358,-0.1035207139235396,71.7,2.55,85.05,-850.58594,67.87109,595.21484,0.1889219431516497,-0.0941945470655079,-0.0209172474863764,58.2,23.85,21.6
-1011.23047,41.99219,94.23828,0.0684807857288007,-0.0347734164179594,-0.1372282577673061,7.05,25.8,37.95,-119.14063,-119.62891,1006.34766,0.0503614755662963,-0.0414349891069713,-0.1490856756395052,72.3,2.7,86.7,-850.58594,78.61328,583.00781,0.2671285761371889,-0.0997902471803269,-0.0209172474863764,57.15,24.9,21.6
-1021.48437,62.98828,91.30859,0.0271791397766816,-0.0405022851547056,-0.1869233666251911,7.05,26.25,37.95,-99.60938,-103.51563,1023.92578,0.0130566336012443,0.0039969785199922,-0.1373614263892333,72.3,2.7,86.7,-859.86328,95.70313,604.00391,0.2383507147656804,-0.0474303696204971,0.0117244237831971,57.6,24.3,21.3
-1001.95312,61.52344,90.33203,0.0387702204050264,-0.0779402957416847,-0.095393588261628,6.45,26.4,36.75,-101.5625,-104.98047,1053.22266,0.0407687969314851,-0.0005328490206338,-0.2115712553877054,72.9,2.25,87.15,-868.65234,97.16797,588.86719,0.234220567623761,-0.0480965617959833,-0.0778071271197576,57.6,24.3,21.3
-1013.18359,45.89844,80.56641,0.0443659205198454,0.0046631706954784,-0.1430902951259795,6.45,26.4,36.75,-114.25781,-62.01172,1045.89844,0.0147886983509235,-0.0423675185263119,-0.1370949146124538,71.7,2.55,87.6,-863.28125,125.48828,575.19531,0.2635314525488286,-0.0263797789792682,-0.0255804181818548,58.05,24.75,21.3
-1015.13672,50.78125,80.56641,0.0062618922903052,0.0051960197161123,-0.0972588216332344,4.65,25.65,36.75,-113.76953,-61.03516,1045.41016,0.0293108849250675,0.0035972981212855,-0.1413584049092255,72.45,1.5,86.55,-845.70312,136.71875,570.3125,0.2208974222457371,-0.0295773967018471,-0.0893982077481023,56.7,24.6,20.55
-1020.99609,37.59766,85.9375,0.0058622118915985,0.0399694361340717,-0.1057856276938527,5.55,25.8,36.6,-102.53906,-44.92188,1025.87891,0.0375711792089063,-0.0873996312216436,-0.1193751103157309,72.0,1.95,87.75,-842.28516,128.90625,545.89844,0.2073077650909336,-0.0303767574992605,-0.0892648645932499,57.45,24.15,20.1
-1028.32031,45.41016,96.67969,0.0043966589186989,0.0005328490206338,-0.1349631694640679,5.7,24.6,36.75,-100.58594,-48.82813,1030.27344,0.0006661921754862,-0.0299770771005538,-0.1041869060990259,71.55,2.4,87.45,-838.37891,136.71875,567.38281,0.1728008604497538,-0.0087933178373978,-0.0626187483701273,57.0,24.0,22.5
-1029.29688,36.13281,107.91016,0.0654165111610742,-0.0305099261211876,-0.1184425808963904,6.0,25.5,36.3,-78.125,-42.48047,1019.53125,-0.0595542992694757,0.0011990411961201,-0.0846018684306967,71.7,2.55,85.8,-835.9375,118.65234,564.45312,0.1097826062138449,0.0274456515534612,-0.0504946441882235,57.6,24.3,21.0
-1021.48437,41.01563,87.40234,-0.0186523337160634,0.0500949637895168,-0.0634181091675407,6.0,25.5,36.3,-89.84375,-72.75391,1022.46094,-0.0937948666668012,-0.0266462907560478,-0.073676805444913,71.7,2.55,85.8,-840.33203,111.81641,587.40234,0.1137794102009119,0.0053291883380394,-0.0255804181818548,56.7,23.85,21.15
-1014.16016,53.71094,114.25781,-0.0235820161883213,0.041834669505678,-0.1051194355183664,7.35,26.55,37.95,-74.70703,-93.75,1036.62109,-0.1185757495183175,-0.0006661921754862,-0.0366386497895657,70.8,1.95,86.25,-816.40625,112.30469,581.54297,0.0883323351739094,-0.0199847180670358,0.0082602942838387,56.7,23.85,21.15
-995.11719,57.61719,102.05078,-0.0017320647496791,0.0171867807431637,-0.0554241521275563,5.4,24.9,36.45,-71.28906,-99.60938,1016.60156,-0.1161776671260773,-0.0293108849250675,-0.0843353566539172,72.9,2.25,87.15,-814.45312,92.77344,547.36328,0.1496186991930643,-0.0141225061754373,-0.032375159492794,56.7,23.85,21.15
-991.21094,67.87109,90.82031,-0.0511608363637097,0.0430337107017981,-0.1223062162615302,6.15,24.9,37.8,-88.37891,-96.19141,1006.34766,-0.1032542021467601,-0.0253139064050753,-0.0440995832759911,71.55,2.4,87.45,-823.24219,116.21094,545.89844,0.1508177403891844,0.0037304667432126,-0.058088746296576,57.15,24.6,21.15
-1000.48828,53.22266,101.07422,-0.0071944217096458,0.0170536121212365,-0.0030642745677264,6.15,24.9,37.8,-74.21875,-100.58594,1007.8125,-0.0755420388165193,0.0181194846954295,-0.0337075438437664,71.55,2.4,87.45,-814.94141,94.23828,531.73828,0.1240382810112094,0.0281118437289474,-0.005595700114819,57.15,24.6,21.15
-1018.06641,35.15625,101.5625,-0.0177198042967228,0.0238483534321757,-0.0019984019935335,6.15,24.9,37.8,-98.14453,-75.68359,993.65234,-0.1103154552344788,0.0067947413109391,-0.0610198522423753,72.15,1.5,87.6,-813.96484,83.49609,528.80859,0.1292343007273217,0.0759418937481512,-0.0149218669728507,56.25,24.0,20.7
-1028.80859,25.39063,88.86719,-0.0198513749121835,0.0381042027624654,-0.080871401687484,5.7,24.9,37.8,-98.14453,-87.40234,999.51172,-0.060753514998521,0.0102588708102974,-0.0439662401211387,71.4,2.25,86.55,-815.42969,106.44531,517.08984,0.0943277156874351,0.1013889687751538,-0.0310429496747467,57.3,23.7,21.3
-1024.41406,20.50781,96.67969,-0.0338407124656936,0.0486294108166172,-0.0341072242424731,6.0,24.3,37.65,-57.61719,-97.16797,994.14062,-0.1501515482136981,0.0836691644784309,-0.0266462907560478,71.4,2.25,86.55,-798.82812,91.79688,508.30078,0.1119141768293056,0.0767412545455646,-0.0249142260063686,57.15,23.85,21.6
-1011.23047,34.17969,100.09766,0.0265129476011954,0.0339738810876208,-0.0350397536618137,6.3,25.05,35.55,-97.65625,-109.86328,951.17187,-0.1396263401595463,0.0531592383572432,0.0005328490206338,71.25,1.95,87.0,-822.26562,114.25781,505.85937,0.0755420388165193,0.0623522365933478,0.015055210127703,58.8,24.0,22.05
-1019.53125,28.80859,78.125,-0.0162542513238231,0.0463644970463041,-0.0947273960861418,6.3,25.05,35.55,-104.98047,-135.25391,949.70703,-0.0854012292281101,0.0704793622552594,-0.0041301471419193,72.3,2.7,85.65,-808.10547,90.33203,542.96875,0.014522186574144,0.0371714988101996,0.0107917198309313,58.5,25.35,21.15
-1006.83594,18.55469,75.19531,-0.0097258472567384,0.0610198522423753,-0.0945942274642146,5.4,24.6,37.05,-119.14063,-134.27734,906.73828,-0.0077274452632048,0.0858009096268168,-0.0110582316077108,72.6,2.4,87.0,-825.68359,81.54297,560.54687,-0.0009327039522657,0.0385038831611721,0.032375159492794,58.5,22.35,20.55
-998.53516,28.80859,80.56641,-0.0070612530877186,0.0114579120064175,-0.0564900247017492,6.9,23.4,37.5,-111.32813,-118.16406,954.58984,0.0422343499043847,0.1533491659362769,-0.0627519169920545,72.6,2.4,87.0,-834.47266,76.66016,596.67969,-0.0555574952824086,0.0967257980796753,-0.0472970264656447,58.5,22.35,20.55
-966.79687,4.39453,100.58594,0.0043966589186989,0.0734104682010586,-0.0909969293429291,6.3,24.75,37.65,-102.05078,-104.00391,1019.04297,0.0949939078629213,0.1089830708835063,-0.0771409349442713,71.7,2.55,87.15,-850.58594,77.63672,599.60937,-0.0486294108166172,0.0274456515534612,-0.0010658725741929,57.9,24.6,21.6
-936.52344,-14.16016,105.46875,0.0143890179522168,0.0860674214035963,-0.0660827033365605,6.45,25.35,36.75,-121.58203,-100.09766,1003.90625,0.0338407124656936,0.1173767083221974,-0.0381042027624654,72.9,1.8,86.55,-851.5625,82.03125,637.69531,-0.064750318985588,0.0263797789792682,0.0253139064050753,57.9,24.6,21.6
-939.94141,-3.90625,95.21484,0.086467101802303,0.0980581824306478,-0.0888651841945432,6.45,25.35,36.75,-114.25781,-138.18359,1028.80859,0.0398360929792193,0.0751423584178126,-0.0471638578437175,73.35,2.7,85.95,-855.95703,64.94141,645.50781,-0.0373046674321268,-0.0463644970463041,0.0462311538914518,57.6,24.0,21.0
-947.75391,7.8125,87.40234,0.0438330714992115,0.2339540558469814,-0.1117810082073784,6.0,24.75,37.65,-105.95703,-151.85547,1034.17969,0.0620857248165682,0.0608866836204481,-0.0583552580733556,72.6,1.95,87.0,-847.16797,48.33984,631.83594,0.0642174699649541,-0.0474303696204971,-0.005595700114819,56.55,24.3,22.5
-939.94141,29.78516,72.75391,-0.0047963393174056,0.2340872244689086,-0.0480965617959833,7.65,25.5,36.6,-90.33203,-176.26953,1028.32031,0.1097826062138449,0.0409019655534123,-0.0984578628293545,72.15,1.8,85.8,-832.03125,43.45703,644.53125,0.069680001457846,-0.0606201718436686,0.0706125308771865,56.1,23.85,20.85
-956.05469,21.48438,79.58984,0.0199847180670358,0.1971822374354885,-0.0314426300734534,6.9,25.65,36.45,-102.53906,-161.62109,1015.625,0.1326982556937548,0.0098591904115907,-0.1285681085518354,73.05,1.95,85.95,-834.96094,33.69141,625.97656,0.1136462415789847,-0.0454317930940384,-0.0271791397766816,57.45,23.1,21.15
-979.00391,33.69141,69.33594,-0.0422343499043847,0.2667288957384822,-0.0407687969314851,5.4,24.6,37.05,-78.61328,-92.28516,1010.25391,0.1366952342137471,-0.0090596550812521,-0.1865236862264844,73.05,1.95,85.95,-801.26953,28.32031,612.30469,0.1799954566923248,-0.0209172474863764,0.0221164632154217,57.45,23.1,21.15
-986.81641,59.57031,69.33594,-0.0495619402359577,0.2023782571516009,-0.0274456515534612,5.4,24.6,37.05,-51.75781,-47.85156,1007.8125,0.0956601000384076,-0.0350397536618137,-0.1361623851931132,72.3,1.2,87.45,-787.59766,59.57031,618.65234,0.1291011321053945,-0.0361056262360067,-0.0114579120064175,58.2,25.65,21.9
-998.53516,60.54688,50.29297,-0.0249142260063686,0.1653399269633284,0.0269126279999021,5.55,27.0,36.3,-25.87891,-27.83203,1016.60156,0.0767412545455646,-0.063018428768834,-0.1325650870718277,71.4,2.25,87.15,-779.29687,45.89844,602.05078,0.1333644478692411,-0.0584886012282079,-0.0726111074036452,58.2,25.65,21.9
-1023.92578,71.28906,55.17578,-0.1414915735311527,0.1482863148420918,0.0217166082837898,6.0,24.3,36.3,9.27734,-58.10547,1056.64063,-0.0125237845806105,-0.1328315988486072,-0.1104486238564059,71.7,1.8,86.1,-764.16016,71.77734,597.16797,0.1342971518215068,-0.0149218669728507,-0.0651499993842947,57.45,23.85,22.65
-1025.87891,47.85156,61.52344,-0.1181760691196108,0.093128674491315,0.0117244237831971,5.4,25.35,36.0,-10.25391,-59.57031,1020.99609,-0.1092495826602858,-0.1073843492886795,-0.0971256530113072,71.7,1.8,86.1,-764.16016,103.51563,579.58984,0.1713353074768541,-0.0159877395470436,-0.0868667822010097,57.45,23.85,21.15
-1026.85547,43.45703,58.59375,-0.1241714496331365,0.0037304667432126,0.0277121633302407,6.0,24.3,35.85,-22.46094,-109.375,1007.8125,-0.1753322859968463,-0.132165406673121,-0.0366386497895657,71.7,1.8,86.1,-776.36719,97.16797,570.3125,0.1566799522807829,-0.0242480338308824,-0.071944915228159,57.9,23.4,21.6
-1026.85547,37.10938,59.57031,-0.1526829737607907,0.0199847180670358,0.0075941021083525,6.0,24.3,35.85,-33.69141,-149.41406,963.37891,-0.2139693377799456,-0.0868667822010097,-0.0274456515534612,72.15,1.05,86.85,-779.29687,105.46875,581.54297,0.1120475199841579,-0.0098591904115907,-0.058088746296576,56.55,25.05,22.05
-1025.87891,44.92188,54.19922,-0.1501515482136981,-0.0568897051004559,-0.0258469299586344,6.9,25.35,36.45,-58.59375,-184.08203,954.10156,-0.1831928998819784,-0.0063950609122324,-0.0867336135790826,71.7,2.55,88.35,-807.61719,97.16797,573.73047,0.1797289449155452,0.0070612530877186,-0.0421010067495324,56.55,25.05,22.05
-1010.74219,45.89844,59.08203,-0.1414915735311527,-0.0744763407752516,-0.0443659205198454,5.25,25.05,37.95,-91.79688,-170.89844,1008.30078,-0.1107151356331855,0.0301102457224809,-0.1249709849634751,71.7,2.55,88.35,-816.40625,79.10156,579.10156,0.1297671497479555,0.1048529237415869,-0.0608866836204481,56.7,23.4,22.2
-1008.78906,41.50391,47.85156,-0.1216401986189692,-0.1227058966602369,0.0683476171068735,6.6,24.3,36.6,-116.21094,-163.57422,1009.76562,-0.0824701232823108,0.037970859607613,-0.1716018192536337,71.25,0.9,87.0,-855.46875,92.77344,577.14844,0.1592113778278755,0.0623522365933478,-0.0444992636746978,57.9,24.15,21.6
-999.51172,46.875,50.78125,-0.1348300008421407,-0.0762082309920056,-0.023448673033469,6.6,25.5,36.6,-141.11328,-157.22656,998.04687,-0.06634921511334,0.0194516945134768,-0.1396263401595463,72.9,1.5,87.15,-875.48828,108.39844,555.17578,0.2066415729154474,0.040235773377926,-0.0098591904115907,57.9,24.15,21.6
-979.00391,30.76172,41.01563,-0.0827366350590903,-0.0728774446474996,-0.0005328490206338,6.6,25.5,36.3,-154.29687,-175.78125,1031.25,-0.0695466583029936,-0.0014655529728996,-0.1473537854227512,72.45,1.05,85.5,-875.48828,120.60547,537.59766,0.2428805423063064,0.0590214502488418,-0.031309286918601,58.8,24.75,22.05
-1004.88281,19.04297,25.87891,-0.0684807857288007,-0.0241148652089552,0.0102588708102974,6.6,25.5,36.3,-165.52734,-170.41016,1019.04297,0.0103920394322246,-0.0217166082837898,-0.1981147668548291,72.45,1.05,85.5,-885.74219,117.67578,543.45703,0.1970490688135614,-0.0411684773301918,0.0222496318373489,58.8,24.75,22.05
-999.51172,5.37109,19.53125,-0.0419678381276052,0.0330413516682802,-0.046897346066938,4.35,25.65,37.05,-176.26953,-119.14063,989.25781,0.0466310088230837,-0.0373046674321268,-0.1517504443414501,72.45,1.5,87.15,-884.76562,123.53516,530.27344,0.1674716721117143,-0.0161209081689708,0.0399694361340717,57.3,24.0,20.7
-1027.83203,10.25391,4.88281,0.0354394340605204,-0.016787100344457,-0.0905972489442224,5.7,25.35,36.45,-176.75781,-93.75,1004.88281,0.0868667822010097,-0.0442327518979182,-0.1534823345582041,71.1,0.75,87.6,-881.83594,138.18359,543.45703,0.1488193383956508,-0.0790061683158777,0.034640073263107,57.3,24.75,20.25
-1021.48437,11.71875,11.23047,0.0798055291132911,0.0570230482553083,-0.0455651362488907,6.15,27.45,35.7,-192.38281,-81.54297,990.23437,0.0600873228230347,-0.0684807857288007,-0.1497518678149914,72.0,-0.15,87.45,-881.83594,119.62891,515.13672,0.0771409349442713,-0.0844685252758443,0.0572893854991626,56.55,23.25,20.7
-1025.39063,24.41406,20.01953,0.0572893854991626,0.1149786259299572,-0.0726111074036452,6.45,24.9,36.75,-176.75781,-85.44922,1007.32422,0.0351730968166661,-0.0386370517830992,-0.170136266280734,73.8,0.45,87.0,-877.44141,135.25391,519.04297,0.0214502710399355,-0.0187856768709157,0.015055210127703,58.05,24.0,21.3
-1011.23047,49.80469,14.16016,0.1129800494034985,0.0483628990398376,-0.0626187483701273,6.45,24.9,36.75,-158.20312,-82.51953,983.88672,0.0496952833908101,-0.034640073263107,-0.0738101485997654,72.0,-0.15,87.75,-868.65234,155.27344,526.85547,-0.040235773377926,-0.0830031468358699,0.0281118437289474,58.05,24.0,21.3
-1002.92969,39.55078,22.94922,0.1017886491738605,0.0414349891069713,-0.1027213531261262,7.2,23.85,37.5,-141.11328,-75.19531,1008.30078,0.0011990411961201,-0.0105252080541518,-0.0947273960861418,71.7,1.05,86.85,-860.83984,143.55469,513.67187,-0.0532925815120956,-0.1003230962009608,-0.0255804181818548,57.45,24.9,21.15
-992.1875,27.83203,13.67187,0.0564900247017492,0.0675482563094601,-0.1418912539298594,6.45,25.35,37.5,-134.76562,-81.05469,1009.76562,-0.0067947413109391,-0.0154548905264097,-0.006128723668378,71.7,1.05,86.85,-860.83984,152.34375,533.20312,-0.0487625794385443,-0.1017886491738605,0.0127901218244648,57.45,24.9,21.15
-991.21094,20.01953,23.92578,0.1163108357480045,0.043566559722432,-0.1071178375118999,6.15,26.1,36.45,-115.23438,-101.5625,1007.8125,-0.0229158240128351,-0.0214502710399355,-0.0476967068643514,70.8,0.45,85.65,-860.83984,127.92969,538.08594,-0.1036538825454668,-0.0668820641339739,0.0077274452632048,56.7,23.4,22.65
-995.60547,-9.76562,5.85937,0.0787396565390981,0.0712787230526728,-0.1077840296873862,5.1,24.9,35.7,-106.44531,-121.58203,1003.41797,0.0094593354799588,-0.0070612530877186,0.0105252080541518,72.45,0.75,88.65,-857.42187,114.74609,539.55078,-0.182393539084565,-0.050228132411444,-0.0102588708102974,58.2,23.85,22.2
-1014.64844,-18.55469,-2.44141,0.0706125308771865,0.0929953313364626,-0.2065084042935202,5.1,24.9,35.7,-104.49219,-117.67578,1010.74219,0.0550244717288496,0.0109248884528585,-0.0539585991546566,72.0,1.95,87.45,-836.91406,95.21484,539.0625,-0.1588116974291688,-0.0267794593779749,-0.016787100344457,55.65,24.15,21.6
-1026.36719,-26.36719,12.20703,0.0550244717288496,0.1283017713079811,-0.1893216235503565,5.4,25.35,36.75,-121.58203,-103.02734,1026.85547,0.0371714988101996,0.0307764378979672,0.0018652333716063,72.0,1.95,87.45,-838.37891,96.19141,529.78516,-0.1885222627529431,-0.0242480338308824,-0.0033307863445059,57.3,23.25,21.75
-1039.55078,-10.25391,8.30078,0.1181760691196108,0.0615528757959344,-0.1196416220925105,7.35,26.25,36.3,-106.44531,-119.14063,1048.82813,-0.0122572728038309,0.0149218669728507,0.0049295079393327,71.1,1.5,87.15,-823.24219,99.12109,525.39062,-0.1260366830047429,-0.0632847660126884,-0.0109248884528585,57.45,23.4,21.9
-1046.875,-28.32031,15.13672,0.0750091897958855,0.1279019163763492,-0.1690703937065411,5.55,25.5,36.6,-117.1875,-121.09375,1025.87891,-0.0141225061754373,-0.0003996803987067,0.0708790426539661,71.7,0.75,87.15,-832.03125,97.65625,522.46094,-0.11990813386929,-0.0033307863445059,0.0182526533173567,58.05,24.0,22.05
-1040.52734,-32.22656,20.01953,0.0795390173365115,0.0702128504784798,-0.2451454560766195,6.3,25.5,36.3,-114.74609,-123.53516,1015.625,-0.0089264864593249,0.0237151848102485,-0.014522186574144,71.7,0.75,87.15,-826.66016,106.93359,524.41406,-0.1430902951259795,-0.0283781809728018,-0.0035972981212855,58.05,24.0,22.05
-1059.08203,-40.52734,14.64844,0.1241714496331365,-0.0363721380127862,-0.0885988469506889,6.3,25.5,36.3,-119.14063,-131.83594,1000.48828,-0.0041301471419193,0.0499617951675896,-0.0166539317225298,71.7,1.05,87.6,-827.14844,112.79297,543.94531,-0.0740764858436197,-0.0107917198309313,0.0619525561946411,57.0,23.7,21.3
-1046.38672,-36.62109,12.69531,0.049162259837251,-0.0302434143444081,-0.1055191159170731,5.1,24.6,36.0,-125.0,-123.04688,971.67969,0.0177198042967228,0.0519601971611231,-0.0002665117767795,73.2,1.5,87.15,-822.26562,128.41797,528.32031,-0.0888651841945432,-0.0315757986953806,0.0325085026476463,57.0,23.7,21.3
-1028.80859,-43.45703,24.41406,0.0656830229378538,-0.0254472495599277,-0.1012558001532266,4.05,24.15,36.75,-99.12109,-126.95313,981.44531,0.0728774446474996,0.0895313763700295,-0.040235773377926,71.7,0.75,87.15,-836.91406,125.0,553.22266,-0.1605435876459228,0.0181194846954295,0.0439662401211387,57.15,25.35,20.85
-1024.41406,-43.94531,22.46094,0.1316323831195619,-0.0671485759107534,-0.0498284520127373,7.35,25.5,36.9,-104.00391,-111.32813,979.49219,0.1672051603349347,0.0644839817417337,0.0109248884528585,71.7,0.75,87.15,-840.33203,139.16016,558.59375,-0.1708024584562202,-0.0070612530877186,0.0211837592631559,56.7,24.15,20.85
-1002.44141,-45.41016,34.17969,0.08420218803199,-0.0536922619108023,-0.0331745202902074,7.35,25.5,36.9,-98.63281,-87.40234,966.79687,0.1606769308007752,0.0883323351739094,0.0010658725741929,73.35,-0.15,87.45,-828.125,125.0,552.73437,-0.1670719917130076,0.029044373148288,0.0398360929792193,56.7,24.15,20.85
-1003.41797,-22.94922,49.80469,0.0679479367081668,-0.0115910806283447,-0.0259800985805615,7.35,25.5,36.9,-101.07422,-84.96094,998.04687,0.1906538333684037,0.0988575432280612,0.0281118437289474,72.0,1.2,86.25,-849.12109,114.74609,565.42969,-0.2001133433812878,0.0532925815120956,0.0415681577288985,57.6,24.3,22.05
