IMU1_AccX,IMU1_AccY,IMU1_AccZ,IMU1_GyrX,IMU1_GyrY,IMU1_GyrZ,IMU1_MagX,IMU1_MagY,IMU1_MagZ,IMU2_AccX,IMU2_AccY,IMU2_AccZ,IMU2_GyrX,IMU2_GyrY,IMU2_GyrZ,IMU2_MagX,IMU2_MagY,IMU2_MagZ,IMU3_AccX,IMU3_AccY,IMU3_AccZ,IMU3_GyrX,IMU3_GyrY,IMU3_GyrZ,IMU3_MagX,IMU3_MagY,IMU3_MagZ
-868.16406,239.74609,-394.04297,-0.0069280844657914,-0.0175864611418704,-0.0202512298438154,-12.0,30.3,20.25,-61.03516,-61.03516,1017.57812,-0.0041301471419193,0.0487625794385443,-0.0679479367081668,71.4,3.0,86.85,-822.26562,89.35547,579.58984,0.1783965605645728,-0.1196416220925105,-0.013456313999951,56.7,24.6,20.85
-892.08984,234.86328,-395.01953,0.0053291883380394,0.0058622118915985,-0.0592879620256213,-11.1,30.45,22.5,-71.28906,-71.77734,1011.71875,-0.0401026047559989,0.0278453319521679,-0.068081105330094,70.5,3.15,86.7,-818.84766,119.14063,577.14844,0.1088499022615791,-0.0433002224785777,0.0038636353651398,57.15,25.35,21.6
-908.69141,249.51172,-394.04297,0.0538254305327295,-0.0218499514386422,-0.0041301471419193,-12.15,29.4,21.0,-72.75391,-110.35156,1012.69531,-0.0397029243572922,0.0369049870334201,-0.0588882816269146,70.5,3.15,86.7,-818.35937,93.26172,554.19922,0.1465544246253378,-0.0551578148837019,-0.0213169278850831,56.55,24.3,21.3
-914.55078,253.90625,-394.04297,-0.0021317451483858,-0.0133231453780239,-0.0093261668580317,-12.15,29.4,21.0,-73.73047,-109.86328,1004.88281,-0.0125237845806105,0.0711455544307456,-0.089797888146809,72.0,2.7,87.45,-825.19531,81.54297,585.9375,0.1016554805519333,-0.0189188454928429,0.0038636353651398,57.15,25.65,20.85
-911.62109,269.53125,-397.46094,0.0075941021083525,-0.0471638578437175,-0.0025314255470925,-12.3,29.55,20.55,-69.82422,-92.28516,1007.8125,-0.0321086477160144,0.1175098769441246,-0.0997902471803269,71.4,3.3,86.85,-838.37891,85.44922,562.01172,0.0996569040254746,0.0085268060606182,-0.0146553551960711,56.7,24.9,22.2
-871.09375,273.92578,-384.27734,-0.0047963393174056,-0.0652833425391471,0.0627519169920545,-11.85,30.15,21.0,-69.33594,-92.77344,997.55859,-0.0031976177225788,0.0651499993842947,-0.1565467836588557,72.9,3.3,87.9,-840.33203,81.05469,570.80078,0.1346968322202135,-0.0850015488294034,-0.0074609334864253,56.7,24.9,22.2
-872.07031,256.83594,-381.83594,-0.0187856768709157,-0.0627519169920545,0.0178529729186499,-12.3,29.55,20.55,-77.14844,-76.66016,1019.04297,0.0427671989250186,0.0383705400063197,-0.1385604675853534,72.9,3.3,87.9,-823.73047,103.02734,558.10547,0.1504180599904777,-0.1048529237415869,0.0014655529728996,56.7,24.9,20.1
-869.14062,232.42187,-380.37109,-0.0197182062902563,0.0089264864593249,0.0173201238980161,-9.9,29.25,22.35,-70.80078,-69.33594,991.69922,0.0450321126953316,0.0776737839649052,-0.1450888716524382,71.25,2.7,86.7,-830.56641,115.23438,571.28906,0.1510842521659639,-0.0768744231674918,0.0042633157638465,56.7,24.9,20.1
-875.97656,234.375,-366.69922,0.0231821612566894,-0.0278453319521679,0.0955267568835552,-9.9,29.25,22.35,-69.82422,-86.91406,992.1875,0.03064326927604,0.022382800459276,-0.1420244225517865,72.15,1.5,86.85,-822.75391,124.51172,574.21875,0.0997902471803269,-0.0058622118915985,-0.0299770771005538,57.15,24.9,22.2
-879.88281,229.00391,-373.53516,0.0397029243572922,-0.0014655529728996,0.0562235129249697,-11.85,29.4,19.35,-55.66406,-74.21875,1009.76562,0.0434333911005048,0.0125237845806105,-0.1636080367465744,72.0,2.4,87.0,-820.80078,107.42188,594.72656,0.0850015488294034,-0.0287778613715085,-0.0005328490206338,56.1,23.85,22.2
-866.69922,237.30469,-373.04687,0.0355727772153728,-0.0118575924051242,0.032375159492794,-10.95,29.55,20.55,-53.71094,-83.49609,996.58203,0.0695466583029936,0.0115910806283447,-0.132165406673121,71.1,1.8,88.35,-811.03516,114.25781,597.16797,0.0594211306475485,-0.052493046181757,0.029044373148288,57.45,26.1,21.9
-864.74609,231.44531,-372.55859,0.1267028751802291,-0.0019984019935335,0.1185757495183175,-10.5,29.55,21.9,-70.80078,-56.15234,995.11719,0.0747426780191059,0.0482297304179105,-0.0760750623700784,71.7,3.3,87.15,-813.96484,104.00391,578.61328,0.0963261176809686,-0.043566559722432,-0.0198513749121835,56.55,25.05,20.25
-872.07031,246.58203,-375.97656,0.1153783063286639,-0.0097258472567384,0.1396263401595463,-12.3,29.55,21.3,-89.84375,-41.50391,1018.55469,0.0528927265804637,0.0807380585326316,-0.1115144964305989,71.55,3.45,88.5,-804.6875,118.65234,594.72656,0.0732771250462063,-0.0711455544307456,-0.0243813769857347,56.55,25.05,20.25
-877.92969,283.20312,-386.23047,0.0899310567687362,0.043566559722432,0.0572893854991626,-12.3,29.55,21.3,-80.07813,-9.76562,1033.20313,-0.0015987215948268,0.0480965617959833,-0.0871332939777893,71.55,3.45,88.5,-822.75391,100.58594,587.40234,0.0831363154577971,-0.0542251109314362,-0.0251807377831481,57.15,23.85,21.15
-860.35156,275.87891,-386.23047,0.0899310567687362,-0.0301102457224809,0.0972588216332344,-12.15,29.7,20.4,-80.07813,16.60156,1031.73828,-0.0967257980796753,0.0215834396618626,-0.0996569040254746,72.0,3.15,87.45,-823.73047,104.00391,605.46875,0.0856677410048896,-0.0746095093971788,-0.0302434143444081,57.15,23.85,21.15
-848.63281,302.24609,-381.83594,0.0690138092823597,-0.0027979373238721,0.0762082309920056,-11.85,27.9,21.45,-54.19922,-33.20313,1026.85547,-0.1380276185647195,-0.0149218669728507,-0.1181760691196108,69.9,4.05,86.55,-807.12891,111.32813,632.32422,0.0367718184114929,-0.0089264864593249,-0.0444992636746978,57.45,24.9,21.9
-883.78906,276.85547,-378.41797,0.0007993607974134,0.0185191650941362,-0.0151883787496302,-12.3,29.25,20.55,-31.25,-96.19141,1035.15625,-0.2178331476780106,0.0030642745677264,-0.0642174699649541,72.0,3.9,86.7,-804.6875,87.89063,591.30859,0.1007227765996675,0.0075941021083525,-0.068081105330094,58.05,24.75,20.25
-881.34766,258.78906,-375.0,0.0391699008037331,-0.039569755735365,0.0231821612566894,-11.4,28.65,21.45,-35.15625,-122.55859,1035.64453,-0.2258269301850698,0.0031976177225788,-0.0660827033365605,72.0,3.9,86.7,-806.15234,77.63672,596.67969,0.0933951862680945,0.0225161436141284,-0.031309286918601,57.3,25.8,20.25
-877.44141,241.69922,-376.46484,0.0310429496747467,-0.0459648166475974,-0.0474303696204971,-11.4,28.65,21.45,-25.87891,-149.41406,1004.39453,-0.2394165873398733,0.0029311059457992,-0.0648836621404404,71.4,2.25,86.85,-801.75781,60.54688,615.23437,0.1073843492886795,0.0193185258915496,-0.0498284520127373,57.15,24.9,21.9
-883.78906,215.33203,-386.71875,0.0002665117767795,0.0278453319521679,-0.1369617459905266,-11.4,28.65,21.45,-40.03906,-157.22656,987.30469,-0.2171669555025244,0.0189188454928429,-0.0715452348294523,71.7,2.25,88.65,-814.94141,46.38672,595.21484,0.1910535137671104,0.0057288687367461,-0.0819372742616769,58.05,24.9,21.9
-875.48828,224.60937,-387.69531,0.0891316959713228,-0.0675482563094601,-0.0333078634450597,-12.0,28.05,21.6,-62.5,-154.78516,1016.60156,-0.1490856756395052,-0.0311761182966739,-0.0921959705390492,71.7,2.25,88.65,-830.07812,37.10938,610.83984,0.1652067583414012,0.006128723668378,-0.0331745202902074,58.05,24.75,21.75
-868.65234,226.5625,-400.39062,0.0726111074036452,-0.0463644970463041,-0.0098591904115907,-12.45,29.7,21.45,-86.42578,-144.53125,1010.25391,-0.0667488955120467,-0.063684446411395,-0.1505512286124048,71.7,2.25,88.65,-829.10156,44.43359,616.21094,0.2306232695024755,0.0171867807431637,-0.054091942309509,57.9,24.9,22.2
-871.09375,233.88672,-384.76562,-0.0079939570399844,-0.0283781809728018,-0.0587549384720623,-11.85,28.95,21.45,-100.58594,-120.60547,1041.99219,-0.0722112524720134,-0.0238483534321757,-0.176797838969746,70.35,2.55,87.9,-859.86328,46.875,590.33203,0.2372848421914875,-0.0178529729186499,-0.1120475199841579,57.9,24.9,22.2
-848.63281,233.39844,-389.16016,0.0439662401211387,-0.0309096065198943,0.023981696587028,-11.55,28.8,20.85,-116.21094,-92.28516,1022.94922,-0.0310429496747467,-0.1220398790176759,-0.1742664134226534,71.55,1.65,86.7,-833.98437,90.33203,601.5625,0.1945176432664688,0.0322419908708668,-0.1468207618691921,56.7,26.1,20.85
-839.84375,222.65625,-385.25391,0.0715452348294523,-0.0315757986953806,0.0483628990398376,-11.55,28.8,20.85,-88.37891,-120.60547,1031.25,-0.0850015488294034,-0.0551578148837019,-0.1212403436873373,71.7,3.3,86.55,-831.05469,98.14453,584.96094,0.2323553342521546,0.0037304667432126,-0.1040535629441735,56.7,26.1,20.85
-842.28516,187.98828,-393.06641,0.0325085026476463,0.0177198042967228,0.0474303696204971,-12.0,28.5,19.5,-49.31641,-125.97656,1016.11328,-0.0995237354035474,0.0370383301882724,-0.2059755552728863,71.7,3.3,86.55,-828.125,110.83984,552.73437,0.250474644414659,0.0374380105869791,-0.1658729505168874,57.0,24.0,21.75
-849.12109,206.05469,-399.41406,0.103787051167394,-0.0131899767560967,0.0830031468358699,-11.1,28.95,21.45,-71.77734,-110.83984,988.76953,-0.0755420388165193,-0.0568897051004559,-0.2023782571516009,71.7,2.55,86.1,-817.38281,132.8125,548.82812,0.2394165873398733,-0.0018652333716063,-0.1452220402743654,56.4,24.15,21.9
-870.60547,184.08203,-422.36328,0.1272358987337882,-0.0125237845806105,0.0511608363637097,-10.35,28.2,21.0,-71.77734,-116.69922,988.28125,-0.0033307863445059,-0.0767412545455646,-0.2356861205966606,72.15,1.5,87.6,-816.40625,134.76562,552.73437,0.2773874469474863,0.0014655529728996,-0.1536156777130565,56.4,23.4,21.9
-886.23047,175.29297,-428.71094,0.0691469779042869,0.0672817445326806,-0.011191400229638,-10.2,29.25,20.55,-90.82031,-114.25781,965.33203,0.0283781809728018,-0.0626187483701273,-0.1457548892949992,72.3,3.45,87.0,-831.54297,142.08984,561.52344,0.2191653574960579,-0.0206509102425221,-0.1041869060990259,57.6,24.0,20.7
-913.08594,175.78125,-428.22266,0.1139127533557643,0.058088746296576,-0.0199847180670358,-10.2,29.25,20.55,-99.12109,-98.63281,994.14062,0.0490290912153239,-0.0341072242424731,-0.1949173236651755,72.0,0.15,87.0,-830.07812,154.29687,540.03906,0.2059755552728863,0.0006661921754862,-0.1163108357480045,57.6,24.0,20.7
-915.03906,202.14844,-433.59375,0.1191087730718766,-0.0358392889921523,0.1374945950111605,-10.65,30.45,21.45,-95.70313,-74.21875,1000.0,0.0655498543159266,-0.0338407124656936,-0.176797838969746,72.3,0.45,86.7,-831.54297,173.82812,541.99219,0.1689372250846139,0.0650168307623675,-0.0526263893366094,57.9,24.15,20.55
-910.15625,233.39844,-422.85156,0.0991240550048407,-0.0097258472567384,0.0827366350590903,-11.85,28.95,19.65,-106.44531,-86.42578,995.11719,0.025713586803782,-0.05475795995207,-0.1617428033749681,70.35,1.05,88.35,-839.35547,198.73047,539.55078,0.1007227765996675,0.075275701572665,-0.1320322380511938,57.9,24.15,20.55
-909.66797,255.37109,-431.15234,0.0494287716140306,-0.0153215473715574,0.0916631215184153,-11.85,28.2,19.65,-93.26172,-70.3125,1009.76562,0.0070612530877186,-0.0631515973907612,-0.1287014517066878,70.35,1.05,88.35,-825.19531,209.47266,542.48047,0.0917962901403425,0.0570230482553083,-0.0920628019171221,57.9,24.9,21.15
-915.03906,256.34766,-421.38672,0.0271791397766816,-0.0579555776746489,0.1133797298022052,-11.1,28.65,19.65,-87.89063,-75.68359,1013.67187,0.0361056262360067,-0.029044373148288,-0.1409587245105188,71.7,1.05,86.85,-820.80078,197.75391,528.80859,-0.0163874199457503,0.0750091897958855,-0.0570230482553083,58.2,23.4,22.65
-903.32031,222.65625,-412.59766,0.0181194846954295,-0.0126569532025376,-0.0005328490206338,-11.1,28.65,19.65,-94.23828,-86.42578,993.65234,0.0516936853843436,-0.0475635382424242,-0.1212403436873373,71.1,1.8,87.15,-826.66016,167.48047,512.69531,-0.0354394340605204,0.0514271736075641,-0.0895313763700295,58.05,24.0,21.3
-907.71484,230.95703,-421.38672,-0.0015987215948268,-0.0530260697353161,-0.0266462907560478,-11.55,29.55,20.55,-92.28516,-80.56641,1015.13672,0.0530260697353161,-0.0155880591483369,-0.079272505559732,70.8,0.15,87.75,-835.9375,144.53125,509.27734,-0.0583552580733556,0.1116478395854512,-0.0370383301882724,58.2,24.15,21.6
-908.20312,225.58594,-434.57031,0.0520933657830503,-0.0968591412345277,0.0002665117767795,-12.45,28.95,20.4,-20.50781,-85.44922,1086.42578,0.0818039311068246,0.3711823136142876,-0.0334410320669869,70.8,0.15,87.75,-851.07422,160.15625,529.29687,-0.1328315988486072,0.1144456023763981,-0.0527595579585365,58.2,24.15,22.2
-916.99219,201.17187,-434.57031,0.0070612530877186,-0.0631515973907612,-0.0788728251610253,-11.55,28.05,20.85,-144.53125,-54.19922,995.11719,0.0243813769857347,0.0679479367081668,0.0174532925199432,72.15,1.5,88.65,-855.46875,120.60547,523.4375,-0.1722680114291199,0.0790061683158777,-0.0479632186411309,57.6,24.3,21.75
-916.99219,196.77734,-434.08203,0.0810045703094112,-0.1031210335248329,-0.1028545217480534,-11.4,27.45,21.45,-126.95313,-96.19141,1032.71484,-0.1261700261595952,0.0427671989250186,0.1157779867273706,72.0,1.65,87.0,-851.5625,108.88672,527.83203,-0.1733338840033128,0.1159111553492978,-0.0879326547752027,57.6,24.3,21.75
-924.80469,202.14844,-440.91797,0.134430320443434,-0.0941945470655079,-0.0852680606061829,-11.4,27.45,21.45,-140.625,-98.14453,1029.29688,-0.0880658233971298,0.077540615342978,0.069680001457846,72.0,1.65,87.0,-865.23437,120.11719,506.34766,-0.1236386006125027,0.0626187483701273,-0.055823832526263,59.1,24.0,20.7
-914.55078,195.80078,-445.3125,0.1243047927879889,-0.0714118916745999,-0.1457548892949992,-11.85,27.9,21.0,-151.85547,-112.79297,1021.97266,-0.0796723604913639,0.0941945470655079,0.1039203943222463,71.1,-0.3,87.15,-871.58203,104.49219,545.89844,-0.1581455052536826,0.0411684773301918,-0.0114579120064175,59.1,24.0,20.7
-926.26953,187.5,-446.28906,0.1216401986189692,-0.0731439564242791,-0.1141790905996186,-11.4,29.4,20.7,-144.53125,-138.67187,1013.18359,-0.0327748398915007,0.1991806394290221,0.0590214502488418,70.65,2.55,87.9,-888.18359,110.83984,549.31641,-0.1516171011865978,0.0543582795533633,-0.041301645952119,56.55,24.0,21.3
-908.20312,192.87109,-419.43359,0.1072511806667523,-0.0367718184114929,-0.0544916227082157,-11.1,27.9,20.7,-145.99609,-114.74609,1010.25391,-0.0027979373238721,0.1216401986189692,0.1051194355183664,70.5,1.2,86.25,-880.37109,85.44922,523.92578,-0.1649402465646217,0.0154548905264097,-0.0269126279999021,57.0,23.25,21.3
-904.78516,197.75391,-417.48047,0.0754088701945922,0.0173201238980161,-0.0919296332951949,-12.45,28.95,20.7,-130.85937,-111.32813,1005.85937,0.0115910806283447,0.1413584049092255,0.091529778363563,70.5,1.2,86.25,-884.27734,102.05078,522.94922,-0.1765313271929664,0.0331745202902074,0.0098591904115907,56.7,24.6,20.55
-884.27734,195.80078,-420.41016,0.011191400229638,0.0963261176809686,-0.0077274452632048,-12.45,28.95,20.7,-119.62891,-104.98047,1004.39453,0.0377045223637587,0.0863337586474507,0.0483628990398376,71.4,1.5,87.15,-893.06641,94.72656,536.62109,-0.2169004437257448,0.0655498543159266,-0.0386370517830992,57.0,25.05,21.3
-870.11719,202.14844,-414.55078,0.0843353566539172,0.0305099261211876,0.0018652333716063,-11.1,27.15,19.95,-144.53125,-93.75,992.1875,0.052493046181757,0.1001899275790336,0.0487625794385443,71.55,1.95,85.95,-889.16016,64.94141,552.73437,-0.2656630231642893,0.0819372742616769,-0.0883323351739094,57.0,25.05,21.3
-852.05078,193.35937,-404.29687,-0.0007993607974134,0.1140459219776914,-0.0447657754514773,-11.4,28.2,18.6,-125.48828,-103.02734,997.07031,0.0039969785199922,0.0732771250462063,0.1015221373970809,71.7,0.75,87.6,-874.02344,68.35938,562.01172,-0.2715252350558878,0.064750318985588,-0.0075941021083525,56.55,24.3,21.75
-867.67578,192.87109,-399.41406,0.0110582316077108,0.1136462415789847,-0.0105252080541518,-11.4,28.2,20.4,-129.39453,-101.5625,998.04687,0.0458314734927451,0.0724777642487929,0.070346019100407,70.8,0.9,86.25,-881.83594,56.15234,537.10937,-0.1983812786316086,0.0219831200605693,-0.0767412545455646,57.0,23.25,21.0
-852.05078,185.54687,-399.41406,0.0170536121212365,0.0993905667816202,0.0560903443030425,-11.4,28.2,20.4,-121.58203,-109.86328,997.07031,0.0664823837352672,0.1023216727274195,0.0947273960861418,72.0,1.95,86.7,-853.02734,60.54688,566.40625,-0.2594013054069092,0.0170536121212365,-0.0714118916745999,57.0,23.25,21.0
-844.23828,188.96484,-416.50391,0.0476967068643514,0.0798055291132911,-0.0006661921754862,-10.95,27.3,20.25,-122.07031,-117.67578,996.58203,0.0182526533173567,0.059687642424328,0.1031210335248329,71.25,0.9,86.25,-836.91406,65.42969,565.91797,-0.2278255067115286,-0.0238483534321757,-0.0049295079393327,58.8,24.3,20.7
-858.88672,186.52344,-401.85547,-0.032375159492794,0.1568131209027101,-0.0114579120064175,-11.25,28.05,20.55,-121.58203,-127.44141,985.83984,-0.0275788201753884,0.0627519169920545,0.1217733672408963,71.25,0.9,86.25,-823.24219,79.58984,561.03516,-0.2479433934004916,-0.0583552580733556,-0.0270459711547545,57.3,24.0,20.25
-869.14062,180.66406,-420.41016,0.0033307863445059,0.1317657262744143,-0.0349065850398865,-11.1,27.15,20.7,-97.65625,-127.44141,1008.78906,-0.0317089673173077,0.0858009096268168,0.1196416220925105,71.7,2.25,86.85,-806.64062,71.77734,583.00781,-0.2769877665487796,0.0391699008037331,-0.0535589187559499,57.15,23.4,20.55
-879.39453,191.40625,-420.41016,-0.0041301471419193,0.114312433754471,0.0018652333716063,-11.25,28.05,20.25,-93.75,-145.50781,1004.88281,-0.0151883787496302,0.0795390173365115,0.1509510835440367,72.45,1.8,86.55,-818.84766,52.24609,595.21484,-0.2852480608326184,0.0715452348294523,-0.050761155965003,58.95,23.85,20.55
-874.51172,199.70703,-413.57422,-0.043566559722432,0.1586783542743164,0.0258469299586344,-11.25,28.05,20.25,-69.33594,-146.48437,1026.85547,-0.0041301471419193,0.0434333911005048,0.0949939078629213,72.9,0.3,87.9,-826.17187,52.73438,562.5,-0.2961731238184021,0.0419678381276052,-0.0185191650941362,57.45,24.6,22.2
-876.95312,195.3125,-415.52734,-0.0274456515534612,0.0355727772153728,0.0750091897958855,-11.55,29.85,20.55,-71.77734,-142.08984,997.55859,0.0287778613715085,0.0778071271197576,0.0714118916745999,72.9,0.3,87.9,-822.26562,41.01563,553.71094,-0.2456784796301786,0.0602204914449619,-0.0584886012282079,58.2,23.85,21.9
-911.13281,220.70312,-422.36328,-0.0571562168772355,0.022382800459276,0.0570230482553083,-10.5,27.75,19.8,-55.17578,-152.83203,983.88672,0.0474303696204971,0.0620857248165682,0.1192419416938038,71.55,0.3,87.9,-812.5,36.13281,543.45703,-0.1831928998819784,-0.0121241041819038,0.0094593354799588,58.2,23.85,21.9
-909.17969,196.28906,-440.91797,-0.0655498543159266,0.0033307863445059,0.0351730968166661,-11.25,28.5,19.8,-56.64063,-139.16016,998.04687,0.0440995832759911,0.0611531953972277,0.1052526041402936,71.55,2.7,87.75,-819.33594,55.66406,576.66016,-0.2394165873398733,0.0378376909856858,0.0070612530877186,57.45,22.65,21.15
-892.08984,203.61328,-435.05859,-0.0162542513238231,-0.0779402957416847,0.0568897051004559,-11.55,28.5,20.85,-86.91406,-139.64844,1001.46484,0.0862005900255235,0.0846018684306967,0.013456313999951,71.4,3.0,88.35,-841.30859,55.17578,549.31641,-0.1345634890653612,0.0550244717288496,-0.0193185258915496,57.45,22.65,21.15
-889.16016,184.57031,-435.05859,-0.068614128883653,-0.0503614755662963,0.0353062654385932,-11.55,28.5,20.85,-84.47266,-139.64844,1015.625,0.0070612530877186,0.0903307371674429,0.0780734643636119,71.4,3.0,88.35,-845.70312,49.31641,543.94531,-0.2184991653205717,0.0847350370526239,-0.0117244237831971,56.7,21.9,20.55
-900.87891,200.19531,-429.6875,-0.1112481591867445,-0.0170536121212365,-0.0157212277702641,-11.55,28.5,20.85,-106.93359,-132.32422,1016.60156,0.0522267089379027,0.0943277156874351,0.0710122112758932,72.3,1.95,88.05,-854.49219,68.35938,574.21875,-0.2503414757927318,0.1120475199841579,0.0464976656682313,57.15,24.15,20.55
-900.39062,208.00781,-437.5,-0.0358392889921523,-0.0333078634450597,0.0269126279999021,-11.55,26.25,20.25,-114.25781,-143.55469,1022.94922,0.0554241521275563,0.1087167336396519,0.1027213531261262,72.45,1.5,86.85,-858.88672,61.03516,558.59375,-0.2053093630974001,0.1237717692344298,0.0082602942838387,58.8,22.5,21.3
-896.48437,200.19531,-429.19922,-0.0243813769857347,-0.0358392889921523,0.0311761182966739,-11.55,28.5,20.55,-112.79297,-145.01953,1015.13672,0.0439662401211387,0.0969923098564548,0.0626187483701273,73.05,1.2,87.75,-829.10156,55.66406,578.61328,-0.2442129266572789,0.1044532433428802,0.0033307863445059,58.2,24.15,19.8
-883.30078,182.12891,-403.32031,-0.0480965617959833,-0.0566231933236764,-0.03064326927604,-10.35,29.4,19.95,-111.32813,-114.74609,1028.80859,0.0361056262360067,0.0490290912153239,0.1073843492886795,73.05,1.2,87.75,-838.37891,49.80469,579.10156,-0.2331546950495681,0.0762082309920056,0.0466310088230837,58.35,22.95,22.05
-883.78906,186.03516,-401.85547,-0.0602204914449619,0.0154548905264097,-0.0339738810876208,-11.55,28.8,20.55,-88.86719,-116.69922,1008.30078,0.0652833425391471,0.0967257980796753,0.0655498543159266,72.9,1.8,86.85,-853.02734,43.94531,570.3125,-0.1998468316045083,0.0858009096268168,-0.023448673033469,58.05,25.8,21.75
-895.99609,187.01172,-403.80859,0.0318423104721601,-0.1231057515918688,-0.0194516945134768,-11.55,28.8,20.55,-88.37891,-116.69922,1022.46094,0.0366386497895657,0.0723445956268657,0.093128674491315,72.45,2.25,88.65,-828.61328,28.32031,577.63672,-0.2169004437257448,0.0706125308771865,-0.0043966589186989,58.05,25.8,21.75
-913.08594,193.84766,-407.71484,0.0077274452632048,-0.0503614755662963,-0.0245145456076619,-12.3,27.0,20.25,-88.86719,-131.34766,1000.97656,0.0230489926347623,0.1148452827751048,0.1191087730718766,70.35,1.5,86.1,-841.79687,32.71484,577.14844,-0.1953170040638822,0.1176432200989769,0.0763415741468579,57.6,24.75,20.7
-903.32031,197.75391,-403.32031,-0.0130566336012443,-0.0588882816269146,0.004529827540626,-10.65,27.45,19.65,-106.93359,-151.85547,1020.01953,0.0123904414257581,0.1072511806667523,0.1313660458757076,72.6,2.4,87.75,-833.49609,22.94922,592.28516,-0.184658452854878,0.0582220894514284,0.0475635382424242,55.8,24.3,21.0
-913.08594,197.26562,-407.22656,0.0496952833908101,-0.0353062654385932,0.0632847660126884,-12.15,27.9,19.35,-102.05078,-154.29687,1005.85937,0.0394364125805126,0.0776737839649052,0.1113813278086717,72.0,1.95,86.7,-834.96094,16.60156,594.72656,-0.1878560705774568,0.0798055291132911,0.0259800985805615,57.3,24.0,21.75
-902.83203,195.80078,-406.25,-0.004529827540626,-0.058088746296576,0.0267794593779749,-12.6,27.3,19.8,-98.63281,-138.67187,1012.69531,0.0406354537766327,0.0868667822010097,0.1536156777130565,72.45,2.55,86.85,-840.82031,9.76562,576.17187,-0.1283017713079811,0.0783399761403914,0.0143890179522168,56.4,24.6,21.6
-905.76172,203.125,-388.67187,-0.0171867807431637,-0.0688804661275074,-0.0043966589186989,-12.6,27.3,19.8,-107.42188,-116.69922,1015.625,0.0358392889921523,0.0309096065198943,0.1152449631738115,72.45,2.55,86.85,-846.19141,30.27344,582.03125,-0.1461547442266311,0.0869999508229369,0.0365053066347134,56.4,24.6,21.6
-880.85937,204.58984,-386.71875,0.0881991665519822,-0.0726111074036452,0.0322419908708668,-10.95,28.5,21.3,-106.93359,-109.86328,1003.41797,0.0490290912153239,0.0699463387017003,0.1448223598756587,71.1,3.0,87.9,-848.63281,21.97266,569.33594,-0.0965926294577481,0.1067181571131932,0.0552909835056291,57.6,24.75,22.5
-901.36719,230.95703,-391.11328,0.0471638578437175,-0.0347734164179594,-0.0297105653237742,-11.1,27.9,20.7,-106.93359,-103.51563,1007.8125,0.0516936853843436,0.060753514998521,0.0668820641339739,71.7,1.8,87.9,-840.33203,26.36719,595.21484,-0.1373614263892333,0.0843353566539172,0.0516936853843436,58.05,24.3,20.7
-891.11328,214.84375,-373.53516,0.0165205885676775,0.0018652333716063,-0.0123904414257581,-12.0,28.05,20.25,-99.12109,-90.33203,1028.32031,0.0440995832759911,0.0652833425391471,0.0702128504784798,71.4,3.0,87.15,-833.49609,18.55469,608.39844,-0.1140459219776914,0.1381607871866467,0.0433002224785777,58.05,24.3,20.7
-887.20703,212.89062,-375.0,0.0570230482553083,-0.0935283548900217,0.0138559943986577,-12.45,28.95,19.65,-85.9375,-84.47266,996.09375,-0.0211837592631559,0.0559571756811154,0.1005896079777403,72.3,2.4,87.45,-829.10156,42.48047,560.05859,-0.1128468807815713,0.1121806886060851,0.0405022851547056,56.7,23.85,20.85
-887.20703,216.30859,-363.28125,0.0067947413109391,-0.0202512298438154,-0.0037304667432126,-12.45,28.95,19.65,-72.75391,-101.07422,987.30469,-0.0142556747973644,0.032375159492794,0.1231057515918688,72.6,1.95,85.65,-826.17187,44.43359,581.05469,-0.0843353566539172,0.1061853080925594,0.0051960197161123,56.7,23.85,20.85
-892.08984,203.61328,-372.07031,-0.0171867807431637,-0.0085268060606182,0.0133231453780239,-10.65,28.2,20.4,-77.63672,-116.21094,995.60547,-0.0608866836204481,0.0321086477160144,0.1494855305711371,73.2,3.0,85.5,-819.33594,42.48047,574.70703,-0.1060521394706322,0.0867336135790826,0.0393032439585855,56.7,23.85,21.9
-871.09375,219.72656,-368.16406,0.0676814249313873,-0.050761155965003,-0.0129234649793172,-11.85,28.65,20.4,-68.35938,-115.23438,989.25781,-0.0042633157638465,0.0447657754514773,0.1301670046795875,73.2,3.0,85.5,-818.35937,74.70703,585.44922,-0.0688804661275074,0.0646171503636608,0.0250473946282958,58.05,23.7,20.7
-855.95703,219.72656,-361.32812,-0.0303767574992605,0.0279785005740951,0.022382800459276,-12.0,28.05,20.55,-60.54688,-124.51172,993.16406,0.0159877395470436,0.0783399761403914,0.0955267568835552,73.5,1.8,86.85,-813.96484,62.98828,596.19141,-0.0802052095119978,0.0876661429984231,0.08420218803199,59.7,23.85,22.65
-853.02734,239.74609,-359.375,-0.0202512298438154,-0.0029311059457992,-0.0110582316077108,-13.5,27.45,19.65,-68.35938,-120.11719,992.1875,0.0067947413109391,0.0678147680862396,0.1008561197545199,72.45,1.5,87.9,-822.75391,51.75781,568.84766,-0.0891316959713228,0.1005896079777403,0.0114579120064175,57.3,23.25,21.75
-854.98047,241.69922,-355.46875,-0.0472970264656447,0.0070612530877186,0.0426340303030914,-13.5,27.45,19.65,-78.125,-84.96094,1014.16016,0.0023980823922402,0.0610198522423753,0.0538254305327295,73.2,2.25,86.85,-832.51953,69.82422,595.21484,-0.0984578628293545,0.1120475199841579,0.0198513749121835,57.15,23.1,21.9
-841.79687,213.37891,-366.21094,-0.0662158719584876,0.0498284520127373,0.0169204434993094,-12.45,27.45,20.7,-83.98438,-103.51563,1044.43359,0.0383705400063197,0.0137228257767306,0.1160443239712249,73.2,2.25,86.85,-820.80078,88.37891,592.77344,-0.1299004929028079,0.1388269793621329,-0.0014655529728996,58.5,24.15,22.65
-854.49219,216.79687,-378.90625,-0.0390367321818059,0.0381042027624654,-0.0123904414257581,-12.3,28.05,21.6,-98.14453,-93.26172,1013.18359,0.0436999028772844,0.0179861415405771,0.1060521394706322,73.35,2.7,87.0,-837.89062,89.84375,576.17187,-0.1271025555789358,0.1465544246253378,0.0788728251610253,58.5,24.15,22.65
-876.46484,219.23828,-394.04297,0.0118575924051242,0.0106585512090041,-0.0109248884528585,-11.1,27.45,19.65,-98.14453,-77.63672,1005.85937,0.0129234649793172,-0.0263797789792682,0.179062752740059,72.3,3.15,85.65,-833.49609,89.35547,587.40234,-0.131099534098928,0.140026020558253,-0.0013323843509724,57.6,24.3,21.75
-881.34766,219.23828,-395.01953,0.0170536121212365,0.0227824808579827,0.0141225061754373,-11.55,28.5,20.85,-106.44531,-82.51953,1027.34375,-0.0170536121212365,-0.0185191650941362,0.1065849884912661,71.4,2.55,86.85,-841.79687,89.84375,577.63672,-0.1473537854227512,0.1167105161467112,0.1007227765996675,57.3,25.05,22.05
-865.23437,213.86719,-395.01953,-0.0415681577288985,0.0270459711547545,-0.0199847180670358,-11.55,28.5,20.85,-108.88672,-67.38281,1013.67187,0.0,-0.0718115720733066,0.1412250617543731,72.9,2.25,86.85,-826.66016,86.42578,568.84766,-0.1729342036046061,0.0422343499043847,0.0179861415405771,57.0,22.95,20.7
-877.44141,218.75,-404.29687,0.0081271256619115,0.0002665117767795,-0.0378376909856858,-10.65,27.45,20.7,-102.05078,-58.10547,1009.76562,-0.0401026047559989,-0.068081105330094,0.1164441789028568,71.55,3.15,87.45,-822.75391,89.84375,568.84766,-0.1562802718820762,0.091529778363563,0.0238483534321757,58.95,24.15,21.6
-865.72266,260.25391,-419.43359,-0.0221164632154217,0.0051960197161123,-0.0568897051004559,-11.1,28.95,20.7,-90.33203,-65.91797,1014.16016,-0.0812710820861907,-0.0600873228230347,0.1299004929028079,71.7,3.0,87.9,-828.125,68.84766,572.26562,-0.2649970055217283,0.0650168307623675,0.0349065850398865,57.15,24.15,22.2
-859.375,244.62891,-406.73828,-0.0476967068643514,-0.004529827540626,-0.0611531953972277,-12.3,28.8,20.85,-90.82031,-93.75,1022.94922,-0.0358392889921523,-0.0286446927495813,0.1822603704626378,71.7,3.0,87.9,-838.86719,51.75781,578.125,-0.2869801255822976,0.0984578628293545,0.0548913031069224,57.9,24.9,20.85
-868.16406,225.09766,-419.43359,-0.0310429496747467,0.002264913770313,-0.0487625794385443,-10.95,27.75,19.5,-86.42578,-132.8125,1035.64453,0.004529827540626,-0.0734104682010586,0.1549478875311037,74.1,2.4,87.0,-838.37891,35.15625,594.72656,-0.2761884057513663,0.0385038831611721,0.0010658725741929,57.9,24.9,20.85
-872.55859,234.375,-424.80469,-0.0378376909856858,-0.0051960197161123,0.0147886983509235,-10.95,27.75,19.5,-100.09766,-129.39453,1000.0,0.0298437339457014,-0.027312482931534,0.1957166844625889,71.25,2.4,87.75,-844.23828,15.13672,564.45312,-0.2795191920958723,0.0398360929792193,0.0095926786348112,59.1,24.0,21.3
-883.30078,202.14844,-418.45703,-0.0646171503636608,0.0023980823922402,-0.0706125308771865,-10.95,27.75,19.8,-89.84375,-136.23047,1004.88281,0.0038636353651398,-0.0496952833908101,0.141091893132446,72.3,3.9,87.0,-863.28125,-5.85937,562.98828,-0.2047763395438411,0.032908183046353,0.0235820161883213,59.1,24.0,21.3
-878.90625,208.49609,-407.22656,-0.0411684773301918,-0.063018428768834,-0.0182526533173567,-10.95,29.55,20.25,-95.21484,-126.46484,1005.85937,-0.0311761182966739,-0.0349065850398865,0.0887320155726161,72.3,3.9,87.0,-857.42187,-26.36719,561.52344,-0.1722680114291199,0.0165205885676775,0.0963261176809686,57.0,25.05,20.25
-866.21094,189.94141,-416.50391,-0.0439662401211387,-0.0343737360192527,-0.0023980823922402,-13.2,27.15,19.65,-100.58594,-125.97656,1028.80859,-0.0197182062902563,-0.0543582795533633,0.1546815502872494,72.6,3.45,86.25,-846.67969,-12.69531,566.40625,-0.0932618431132422,0.0243813769857347,0.0860674214035963,58.05,24.0,21.3
-860.83984,194.33594,-414.55078,-0.0274456515534612,-0.0443659205198454,-0.005595700114819,-11.4,28.95,20.4,-93.26172,-139.64844,1047.36328,0.0390367321818059,-0.1229724084370164,0.0816707624848974,71.4,3.0,87.15,-839.35547,-7.32422,550.78125,-0.0337075438437664,0.0109248884528585,0.0847350370526239,58.05,24.0,21.3
-855.95703,190.42969,-425.29297,0.0173201238980161,-0.0747426780191059,0.0289112045263608,-11.4,28.95,20.4,-109.375,-105.95703,1026.85547,0.0037304667432126,-0.0836691644784309,0.070346019100407,72.3,3.45,88.8,-836.42578,0.0,550.78125,-0.0222496318373489,0.1081837100860929,-0.0065284040670847,56.55,25.05,19.65
-879.88281,197.75391,-424.80469,0.0618192130397887,-0.0796723604913639,0.0618192130397887,-11.4,28.95,20.4,-116.69922,-88.86719,1042.48047,-0.0179861415405771,-0.1316323831195619,0.0743429976203992,72.3,3.45,88.8,-844.23828,28.80859,512.69531,0.0187856768709157,0.0795390173365115,0.0083936374386911,57.9,23.85,21.9
-884.27734,218.26172,-438.47656,-0.0043966589186989,-0.0363721380127862,0.0423675185263119,-12.3,27.3,20.85,-125.48828,-83.00781,1016.11328,-0.0235820161883213,-0.1396263401595463,0.0544916227082157,73.05,2.7,85.95,-872.55859,41.99219,526.36719,0.0425006871482391,0.0708790426539661,0.0394364125805126,58.5,23.85,22.65
-880.37109,256.34766,-448.24219,-0.0294440535469947,-0.0814042507081179,0.0419678381276052,-12.15,28.2,19.65,-145.01953,-101.5625,1002.92969,-0.0474303696204971,-0.1201746456460695,0.0811377389313384,73.8,3.15,86.25,-866.21094,25.39063,516.60156,0.0838025076332833,0.0648836621404404,-0.0141225061754373,57.15,24.15,20.1
-877.44141,268.55469,-456.54297,0.0118575924051242,-0.0881991665519822,0.0587549384720623,-11.4,28.65,21.0,-151.36719,-80.07813,1011.71875,-0.0021317451483858,-0.1036538825454668,0.063018428768834,72.0,3.45,87.0,-874.51172,40.52734,491.69922,0.0923293136939016,0.0438330714992115,-0.0285115241276541,57.15,24.15,20.1
-896.97266,280.76172,-458.98437,-0.1212403436873373,-0.0414349891069713,0.0419678381276052,-11.4,28.65,21.0,-160.15625,-90.33203,985.83984,-0.0475635382424242,-0.079272505559732,0.0403691165327784,72.0,3.45,87.0,-876.95312,41.50391,503.41797,0.085934078248744,0.0439662401211387,-0.0137228257767306,58.05,24.75,19.95
-896.97266,263.18359,-467.77344,-0.0976585020319411,-0.032375159492794,0.0419678381276052,-11.4,28.65,21.0,-154.78516,-109.86328,984.86328,-0.0385038831611721,0.1931852589154963,0.0355727772153728,71.25,3.15,87.45,-884.27734,45.41016,501.95312,0.0623522365933478,0.0149218669728507,-0.020117886688963,58.35,24.3,21.3
-913.57422,281.25,-467.28516,-0.0798055291132911,-0.0343737360192527,0.0985910314512816,-11.25,27.3,21.6,-151.36719,-102.53906,980.95703,-0.1293674693492489,0.0353062654385932,0.0674150876875329,71.25,3.45,87.75,-885.25391,35.15625,529.29687,-0.0034639549664331,0.0066615726890119,-0.0334410320669869,59.1,23.25,21.0
-925.29297,267.57812,-458.00781,-0.1330979360924615,-0.0655498543159266,0.0423675185263119,-12.15,28.2,19.95,-133.30078,-120.11719,1001.46484,-0.074209828998472,-0.0205175670876697,0.0343737360192527,71.55,1.2,87.75,-877.44141,33.69141,522.94922,-0.014522186574144,0.0277121633302407,-0.0065284040670847,57.9,24.9,21.9
-899.90234,259.27734,-468.26172,-0.1560137601052967,-0.0651499993842947,0.0237151848102485,-10.95,28.05,21.3,-121.09375,-104.49219,1002.92969,-0.0658161915597809,-0.0699463387017003,0.0163874199457503,72.45,4.5,87.15,-875.97656,53.22266,529.78516,0.0354394340605204,0.0209172474863764,0.0317089673173077,58.2,23.85,21.15
-898.4375,242.67578,-450.19531,-0.1338974714228001,-0.1081837100860929,0.0618192130397887,-10.95,28.05,21.3,-140.625,-122.07031,1000.48828,-0.0771409349442713,-0.0512940049856369,-0.0158545709251164,71.7,4.05,86.85,-907.22656,57.12891,531.73828,-0.0029311059457992,0.0351730968166661,0.0382373713843925,57.9,23.4,21.6
-888.18359,244.62891,-440.42969,-0.1640077171452811,-0.0876661429984231,-0.0350397536618137,-11.55,29.85,20.25,-120.60547,-135.25391,1012.20703,-0.1009892883764471,-0.0415681577288985,-0.04849624219469,70.8,3.45,87.0,-884.76562,64.45313,509.76562,0.1244379614099161,0.0029311059457992,0.0355727772153728,57.9,23.4,21.6
-879.39453,240.72266,-435.54687,-0.1243047927879889,-0.0823369546603836,-0.0359724576140795,-10.95,28.05,20.25,-121.09375,-150.87891,1002.44141,-0.0386370517830992,-0.0169204434993094,0.0258469299586344,70.8,3.45,87.0,-865.72266,66.89453,538.08594,0.0678147680862396,-0.0059953805135257,0.0851347174513306,58.8,24.3,21.3
-866.69922,240.72266,-417.96875,-0.0508943245869302,-0.1480199775982374,-0.0390367321818059,-11.25,28.05,20.85,-144.53125,-135.25391,999.51172,-0.0141225061754373,-0.037970859607613,-0.0069280844657914,72.15,4.5,87.15,-865.23437,58.59375,517.57812,0.1011224569983742,-0.0270459711547545,0.0819372742616769,58.8,24.3,21.3
-873.53516,234.86328,-419.92187,-0.078606487917171,-0.1019218177957876,-0.0587549384720623,-10.35,29.7,20.4,-139.16016,-121.09375,1008.30078,0.0543582795533633,-0.0105252080541518,-0.0409019655534123,72.3,2.7,88.05,-872.55859,66.89453,512.20703,0.0571562168772355,-0.041301645952119,0.0098591904115907,57.45,24.15,21.6
-874.51172,221.19141,-419.43359,-0.0425006871482391,-0.0373046674321268,-0.1136462415789847,-10.35,29.7,20.4,-129.39453,-107.91016,1005.85937,0.1452220402743654,-0.0213169278850831,-0.0330413516682802,71.7,3.0,87.6,-861.81641,70.3125,540.03906,0.0526263893366094,-0.0122572728038309,0.0695466583029936,58.8,24.3,21.0
-878.90625,215.33203,-407.71484,0.0282450123508746,-0.1177763887209041,0.0025314255470925,-11.25,28.05,21.3,-122.07031,-107.91016,1004.39453,0.1197749652473628,-0.0011990411961201,-0.0389035635598788,71.1,1.8,86.85,-841.30859,57.12891,485.35156,0.0810045703094112,0.0207840788644492,0.080871401687484,55.8,24.3,20.25
-885.25391,205.56641,-406.73828,0.0289112045263608,-0.0474303696204971,-0.0077274452632048,-11.55,27.75,20.25,-108.88672,-98.14453,987.30469,0.1011224569983742,-0.0105252080541518,-0.0351730968166661,73.2,3.75,87.6,-842.28516,39.0625,544.92187,0.0759418937481512,-0.0794058487145844,0.0935283548900217,57.0,25.05,21.3
-872.55859,208.98437,-405.27344,0.0261132672024887,-0.0903307371674429,-0.0421010067495324,-9.9,28.05,21.6,-103.02734,-88.37891,982.91016,0.0925956509377559,-0.0263797789792682,-0.089797888146809,73.05,3.45,86.25,-833.49609,45.89844,552.73437,0.0263797789792682,-0.0566231933236764,0.0895313763700295,57.15,24.9,20.85
-870.11719,240.23437,-390.13672,0.0543582795533633,-0.1217733672408963,-0.022382800459276,-11.4,28.65,19.95,-88.37891,-86.42578,1003.41797,0.1100489434576992,-0.0406354537766327,-0.0353062654385932,73.05,3.45,86.25,-841.79687,16.11328,511.71875,0.1346968322202135,-0.0462311538914518,0.0419678381276052,56.7,23.4,22.2
-867.1875,254.39453,-376.95312,0.1011224569983742,-0.0877993116203503,0.0025314255470925,-11.4,28.65,19.95,-99.60938,-84.96094,981.93359,0.0414349891069713,-0.0103920394322246,-0.0439662401211387,71.7,1.8,86.85,-854.00391,-14.16016,507.32422,0.1644073975439878,-0.0190520141147701,-0.0163874199457503,56.7,23.4,22.2
-850.58594,257.8125,-372.07031,0.013456313999951,-0.0415681577288985,-0.0121241041819038,-10.95,27.3,21.3,-99.12109,-84.96094,1010.25391,0.0163874199457503,-0.0010658725741929,-0.057422728654015,71.25,1.65,87.0,-854.98047,-29.78516,515.625,0.1569464640575625,-0.0207840788644492,0.0266462907560478,57.3,24.3,21.0
-850.58594,258.30078,-379.39453,0.0604870032217414,-0.0458314734927451,0.1189754299170242,-10.95,28.8,20.25,-121.09375,-92.77344,1002.92969,0.0251807377831481,-0.0527595579585365,-0.118842261295097,72.45,3.0,87.6,-891.60156,-17.08984,617.1875,0.1458882324498516,-0.110981647409965,-0.0042633157638465,57.9,24.9,22.2
-861.81641,254.39453,-382.8125,0.0482297304179105,-0.0672817445326806,0.0551578148837019,-11.55,28.05,21.6,-104.98047,-98.14453,1007.8125,0.0510274932088574,-0.0046631706954784,-0.1169770279234907,72.45,3.0,87.6,-903.32031,-31.73828,695.80078,0.1705359466794407,-0.0552909835056291,-0.0082602942838387,57.9,24.9,22.2
-846.19141,255.85937,-375.0,-0.0363721380127862,-0.0175864611418704,-0.0083936374386911,-11.1,29.4,22.05,-96.67969,-113.76953,1093.26172,0.1017886491738605,-0.1203078142679967,-0.1201746456460695,71.4,3.0,86.55,-911.62109,-37.10938,683.10547,0.3254840087434697,0.007860613885132,-0.0442327518979182,56.4,24.9,21.15
-826.17187,261.71875,-385.25391,0.0218499514386422,0.0154548905264097,0.0433002224785777,-11.1,29.4,22.05,-83.98438,-93.26172,1146.48438,0.1187090926731699,-0.1818606900639311,-0.1317657262744143,71.25,2.4,87.0,-914.0625,-88.86719,655.27344,0.4584487762140041,0.0219831200605693,-0.0419678381276052,57.15,24.9,21.6
-834.96094,276.36719,-380.85937,0.0608866836204481,0.0393032439585855,0.054091942309509,-11.1,28.65,21.45,-80.56641,-104.49219,1170.41016,0.0459648166475974,-0.2127702965838255,-0.1839922606793918,72.45,3.75,86.55,-881.34766,-125.48828,587.89062,0.6405758035217896,-0.0644839817417337,-0.1326982556937548,58.35,24.3,22.5
-889.16016,268.55469,-405.76172,-0.0091929982361045,0.041301645952119,-0.0519601971611231,-12.45,27.45,21.0,-88.37891,-94.23828,1177.24609,-0.1625421641723815,-0.2613997074004427,-0.1524164619840112,73.05,3.15,86.7,-869.14062,-148.4375,566.89453,0.7742067631678103,-0.0707458740320389,-0.004529827540626,57.45,25.65,21.6
-921.38672,277.34375,-394.53125,-0.0106585512090041,0.0604870032217414,0.0294440535469947,-11.4,28.95,22.05,-83.00781,-116.69922,1104.98047,-0.2907105923255103,-0.2931086747177505,-0.2256937615631427,70.2,3.45,87.0,-833.49609,-130.37109,555.66406,0.922359909387975,-0.0762082309920056,-0.2304901008805483,57.45,25.65,21.6
-957.51953,270.01953,-412.10937,-0.0194516945134768,-0.0109248884528585,-0.0007993607974134,-10.65,29.7,20.7,-87.89063,-169.43359,1041.01563,-0.3890352865329376,-0.2258269301850698,-0.2282251871102353,70.8,1.65,87.75,-807.12891,-87.40234,511.23047,0.9643277475155804,-0.1041869060990259,-0.2029111061722347,58.2,23.85,19.5
-973.63281,274.41406,-429.19922,-0.0724777642487929,-0.0249142260063686,-0.0198513749121835,-10.65,29.7,20.7,-91.30859,-281.25,976.5625,-0.1698697545039545,-0.2412818207114797,-0.345202215033726,70.8,1.65,87.75,-812.5,7.32422,502.44141,0.9775175497387516,-0.0587549384720623,-0.2133031456044594,58.2,23.85,19.5
-973.14453,276.85547,-418.94531,-0.1099157748357721,-0.1045865864977326,0.0810045703094112,-11.1,27.9,20.4,-78.61328,-382.32422,844.72656,0.2608666838468836,0.0684807857288007,-0.6236555345554053,73.05,2.4,85.95,-804.19922,120.60547,479.98047,0.8457519979972625,-0.0476967068643514,-0.2158345711515519,56.7,25.65,21.15
-965.82031,259.27734,-425.29297,-0.0924624823158288,-0.1369617459905266,0.0712787230526728,-10.95,29.25,20.85,-51.26953,-181.64062,719.23828,0.403157792708375,0.5529096605233664,-0.6626922667372114,72.15,1.05,87.9,-830.07812,194.82422,467.77344,0.141091893132446,-0.3246844734131311,-0.389301623776792,57.6,24.3,19.95
-955.56641,235.35156,-420.41016,-0.1437564873014657,-0.1572128013014168,0.1031210335248329,-11.25,27.75,20.55,-80.07813,-20.99609,895.01953,0.3777105431484472,0.10205516095064,-0.5378544503956634,71.55,3.15,85.95,-825.68359,289.0625,514.16016,0.5750259492058629,-0.1220398790176759,-0.3400061953176138,57.15,24.6,20.1
-935.05859,223.14453,-392.57812,-0.0933951862680945,-0.2244947203670226,0.1243047927879889,-10.95,27.75,21.6,-11.23047,-47.36328,1047.85156,0.3833062432632662,0.0459648166475974,-0.5032143771325562,71.55,3.15,85.95,-834.96094,313.96484,535.64453,0.4044900025264222,-0.071944915228159,-0.1624088210175291,57.3,24.75,21.0
-898.92578,228.51562,-364.25781,-0.0658161915597809,-0.1763981585710393,0.2053093630974001,-10.95,27.75,21.6,-16.11328,62.98828,1014.16016,0.510275630220275,0.1247044731866956,-0.4536524368965985,70.8,2.4,86.25,-835.9375,294.92187,519.04297,0.3050996102777272,-0.0626187483701273,-0.1308330223221485,57.3,24.75,21.0
-890.13672,238.76953,-346.19141,-0.1189754299170242,-0.1388269793621329,0.2057090434961068,-11.85,29.7,20.4,-55.17578,50.78125,999.51172,0.3573261446827047,0.1417580853079322,-0.3450688718788737,72.15,2.25,87.15,-824.70703,260.25391,515.13672,0.2756553821978072,0.0608866836204481,-0.114312433754471,56.25,23.25,21.75
-879.88281,256.83594,-337.40234,-0.0503614755662963,-0.1405590441118121,0.1445558480988791,-9.9,29.25,21.3,-93.26172,47.36328,1051.75781,0.2412818207114797,0.082603291904238,-0.2847152118119845,72.45,1.05,84.3,-828.61328,232.42187,499.51172,0.1991806394290221,0.0403691165327784,-0.1333644478692411,56.25,23.25,21.75
-877.44141,250.0,-348.14453,-0.007860613885132,-0.1530826541594974,0.2133031456044594,-12.0,29.85,20.25,-126.95313,23.4375,1002.44141,0.1437564873014657,0.0806048899107045,-0.234220567623761,72.45,1.05,84.3,-833.49609,213.37891,502.92969,0.2364854813940741,0.0531592383572432,-0.1405590441118121,58.5,24.15,21.15
-884.76562,260.25391,-346.67969,-0.0572893854991626,-0.0832694840797242,0.1084502218628724,-9.6,28.95,22.8,-136.71875,-14.64844,964.84375,-0.0135896571548034,0.1201746456460695,-0.1374945950111605,70.65,3.0,86.55,-832.51953,226.07422,510.74219,0.2198315496715442,0.0014655529728996,-0.0977916706538682,57.3,24.0,21.3
-887.20703,261.71875,-362.30469,0.0025314255470925,-0.032908183046353,0.2065084042935202,-9.6,28.95,22.8,-137.20703,-29.29688,963.37891,0.032375159492794,0.1373614263892333,-0.1501515482136981,70.5,3.45,85.95,-831.05469,230.95703,523.4375,0.1468207618691921,0.0171867807431637,-0.0594211306475485,58.2,23.1,19.5
-881.34766,286.62109,-345.70312,0.0544916227082157,-0.0698131700797731,0.1448223598756587,-9.6,28.95,22.8,-130.37109,-37.59766,955.07812,-0.029044373148288,0.1152449631738115,-0.1329647674705344,71.4,0.75,85.5,-816.89453,237.30469,530.27344,0.0631515973907612,0.1093829258151382,-0.0019984019935335,57.45,21.9,19.5
-907.71484,272.94922,-357.91016,0.0126569532025376,-0.0546247913301429,0.0027979373238721,-10.65,28.65,20.4,-116.21094,-82.51953,977.05078,-0.0170536121212365,0.1332312792473139,-0.1195084534705833,71.4,0.75,85.5,-818.84766,232.42187,536.62109,-0.0623522365933478,0.0567565364785288,0.0117244237831971,57.45,22.35,20.55
-920.89844,278.32031,-370.11719,0.0639509581881746,-0.095393588261628,-0.0115910806283447,-10.65,28.95,20.7,-79.10156,-88.86719,977.05078,0.0278453319521679,0.1501515482136981,-0.1275022359776425,71.7,0.0,85.5,-809.08203,216.79687,538.08594,-0.0896645449919567,0.0354394340605204,0.0444992636746978,57.0,23.25,20.25
-923.33984,258.78906,-363.76953,0.0163874199457503,-0.0698131700797731,0.0258469299586344,-10.5,27.75,20.85,-64.94141,-89.35547,986.81641,0.0656830229378538,0.1047197551196597,-0.0884655037958365,70.8,2.4,86.7,-813.47656,200.19531,546.875,-0.1438898304563181,0.0191853572696224,0.0401026047559989,57.0,23.25,20.25
-916.50391,259.76562,-364.25781,-0.0409019655534123,-0.0170536121212365,-0.1095160944370653,-10.2,28.8,19.5,-44.43359,-68.84766,992.67578,0.0515605167624164,0.11990813386929,0.0271791397766816,70.8,2.4,86.7,-816.40625,148.4375,582.03125,-0.2194318692728375,0.0656830229378538,0.0377045223637587,56.7,23.1,20.55
-893.55469,275.87891,-351.07422,-0.0631515973907612,0.0123904414257581,-0.0780734643636119,-10.2,28.8,19.5,-38.08594,-61.03516,1024.41406,0.0263797789792682,0.0851347174513306,0.0405022851547056,72.45,2.25,86.55,-834.96094,94.23828,561.03516,-0.1855911568071438,0.0740764858436197,0.040235773377926,56.7,23.1,20.55
-879.88281,279.78516,-336.42578,-0.0848683802074762,-0.050761155965003,-0.0562235129249697,-11.1,29.7,21.45,-38.08594,-64.45313,1034.17969,0.0142556747973644,0.1189754299170242,0.0231821612566894,71.55,1.2,87.0,-852.05078,78.125,605.95703,-0.1817273469090787,0.0397029243572922,0.0095926786348112,56.7,23.1,20.55
-848.63281,304.6875,-354.49219,-0.1484196579969441,-0.0466310088230837,-0.0747426780191059,-10.95,28.8,22.65,-69.82422,-58.10547,1005.85937,-0.0294440535469947,0.1117810082073784,0.0571562168772355,70.65,2.55,85.05,-824.21875,79.10156,587.89062,-0.1361623851931132,0.067015232755901,0.0115910806283447,56.25,22.95,19.65
-837.40234,287.59766,-333.98437,-0.1791960958949114,-0.0347734164179594,-0.0266462907560478,-9.9,29.55,20.85,-83.00781,-59.57031,1000.97656,-0.0433002224785777,0.1322985752950481,0.0171867807431637,70.65,2.55,85.05,-836.42578,62.5,584.96094,-0.1085833904847996,0.0666155523571943,-0.031309286918601,58.8,22.95,20.25
-817.38281,273.92578,-332.03125,-0.225960098806997,-0.0430337107017981,0.0051960197161123,-11.4,29.7,20.7,-163.57422,-50.29297,849.12109,-0.0907304175661496,-0.140026020558253,0.0235820161883213,71.25,2.4,85.95,-818.84766,65.42969,603.02734,-0.1424242774834185,0.0799386977352182,-0.0471638578437175,56.7,23.85,20.85
-801.75781,238.76953,-336.91406,-0.2973721650145223,0.0363721380127862,-0.0369049870334201,-11.4,29.7,20.7,-83.49609,-115.23438,1020.99609,-0.1051194355183664,0.0101255276554451,0.0326416712695735,73.05,2.4,87.45,-806.64062,66.89453,573.24219,-0.0831363154577971,0.0342403928644003,-0.0739433172216925,57.0,24.75,20.7
-827.63672,236.81641,-336.42578,-0.2929755060958233,0.0564900247017492,0.0019984019935335,-9.9,29.25,20.85,-55.66406,-70.3125,990.23437,-0.0730107878023519,0.0043966589186989,-0.0042633157638465,71.7,2.25,86.55,-816.89453,73.24219,589.84375,-0.0956601000384076,0.0038636353651398,-0.0639509581881746,57.0,24.75,20.7
-829.58984,240.23437,-339.35547,-0.2400826049824344,0.0123904414257581,-0.0003996803987067,-10.65,28.65,21.75,-83.00781,-68.84766,952.14844,-0.0995237354035474,0.0688804661275074,0.0231821612566894,72.0,1.95,86.7,-807.12891,69.33594,606.93359,-0.093128674491315,-0.0258469299586344,-0.0599539796681824,58.2,23.4,18.75
-845.70312,239.25781,-340.82031,-0.2723245958533012,0.0746095093971788,-0.0632847660126884,-10.65,28.95,21.45,-78.125,-121.09375,1031.73828,-0.0548913031069224,-0.0301102457224809,-0.0237151848102485,72.3,1.95,84.9,-821.28906,59.57031,612.30469,-0.0442327518979182,-0.0479632186411309,-0.0353062654385932,58.2,23.4,18.75
-853.51562,246.58203,-361.32812,-0.2644639819681691,-0.0439662401211387,-0.0595542992694757,-10.65,29.7,20.4,-80.07813,-112.30469,997.07031,0.002264913770313,-0.0259800985805615,-0.0246477142295891,71.4,1.8,84.3,-804.19922,61.03516,615.72266,-0.0226493122360556,-0.0656830229378538,-0.0704793622552594,58.35,23.25,21.75
