IMU1_AccX,IMU1_AccY,IMU1_AccZ,IMU1_GyrX,IMU1_GyrY,IMU1_GyrZ,IMU1_MagX,IMU1_MagY,IMU1_MagZ,IMU2_AccX,IMU2_AccY,IMU2_AccZ,IMU2_GyrX,IMU2_GyrY,IMU2_GyrZ,IMU2_MagX,IMU2_MagY,IMU2_MagZ,IMU3_AccX,IMU3_AccY,IMU3_AccZ,IMU3_GyrX,IMU3_GyrY,IMU3_GyrZ,IMU3_MagX,IMU3_MagY,IMU3_MagZ
-900.39062,282.22656,-364.25781,0.0483628990398376,0.0527595579585365,-0.0071944217096458,-11.1,28.95,22.5,-86.42578,-45.89844,997.07031,-0.0138559943986577,0.042900542079871,-0.1168438593015635,71.55,2.7,87.0,-851.07422,112.79297,535.15625,0.0905972489442224,-0.0109248884528585,0.0039969785199922,56.55,24.75,19.65
-896.97266,265.625,-375.48828,0.0572893854991626,0.0194516945134768,0.0560903443030425,-10.05,29.7,21.45,-93.75,-60.54688,1009.76562,0.0143890179522168,0.0556906639043358,-0.1356293616395541,70.5,4.2,86.7,-868.65234,120.60547,552.73437,0.0588882816269146,-0.0013323843509724,-0.0289112045263608,56.55,24.75,19.65
-880.37109,273.4375,-352.53906,0.0531592383572432,0.0033307863445059,0.060753514998521,-10.05,29.7,21.45,-90.82031,-56.64063,1014.16016,0.0386370517830992,0.0772741035661985,-0.1212403436873373,71.55,2.7,87.0,-835.9375,112.79297,539.0625,0.0255804181818548,-0.0033307863445059,-0.0095926786348112,57.6,24.75,19.95
-865.23437,263.18359,-358.88672,0.0508943245869302,0.0301102457224809,-0.0147886983509235,-10.05,29.7,22.5,-77.63672,-36.62109,1012.69531,0.0026645941690197,0.0587549384720623,-0.1116478395854512,71.55,3.15,85.95,-846.67969,88.86719,560.54687,0.0041301471419193,0.0087933178373978,-0.0177198042967228,58.35,25.05,21.0
-859.86328,286.13281,-357.42187,0.0107917198309313,0.068081105330094,0.0174532925199432,-9.15,29.55,21.6,-74.21875,-61.52344,994.62891,-0.0207840788644492,0.0534257501340228,-0.1259035143828157,71.55,3.15,85.95,-836.42578,83.98438,585.44922,0.0130566336012443,0.0153215473715574,-0.0394364125805126,57.6,24.75,21.0
-863.76953,283.20312,-350.09766,0.0678147680862396,0.032908183046353,0.050228132411444,-11.1,30.15,22.05,-57.12891,-87.89063,1026.85547,0.0246477142295891,0.0720780838500862,-0.1362955538150403,70.8,2.7,86.25,-835.9375,96.67969,572.75391,0.0415681577288985,-0.023448673033469,-0.0466310088230837,57.9,24.6,20.55
-855.46875,277.34375,-353.51562,0.0049295079393327,0.0760750623700784,-0.0909969293429291,-10.2,30.3,21.9,-66.40625,-81.05469,982.42187,-0.032908183046353,0.0907304175661496,-0.1510842521659639,72.45,3.3,85.8,-834.96094,76.66016,574.21875,0.1136462415789847,-0.0378376909856858,0.0013323843509724,57.6,25.05,21.0
-869.62891,251.95312,-365.23437,0.0327748398915007,0.0258469299586344,0.0174532925199432,-10.2,30.3,21.9,-76.17188,-96.19141,1007.8125,0.0097258472567384,0.0331745202902074,-0.1362955538150403,71.4,2.55,85.8,-832.51953,74.70703,560.05859,0.0766079113907123,0.0082602942838387,-0.0744763407752516,59.25,26.7,19.8
-862.30469,247.55859,-361.81641,-0.0105252080541518,0.0640843013430269,-0.0588882816269146,-12.0,29.55,22.35,-67.87109,-94.23828,1008.78906,0.0157212277702641,0.0254472495599277,-0.1305666850782942,71.4,1.5,85.8,-841.30859,83.49609,592.77344,0.1148452827751048,-0.0109248884528585,0.0038636353651398,59.25,26.7,19.8
-880.37109,241.21094,-359.375,0.0214502710399355,0.0187856768709157,-0.0235820161883213,-10.95,30.3,20.55,-92.28516,-84.47266,1009.27734,0.007860613885132,0.0185191650941362,-0.0691469779042869,71.4,3.3,86.85,-841.30859,77.63672,579.58984,0.1225727280383097,0.0121241041819038,-0.0527595579585365,58.5,24.15,19.5
-882.8125,229.49219,-370.60547,0.0125237845806105,0.0671485759107534,-0.0165205885676775,-11.25,30.3,21.3,-82.51953,-82.51953,1019.04297,0.0177198042967228,-0.0030642745677264,-0.0895313763700295,72.3,3.15,87.0,-842.28516,73.24219,557.61719,0.1155114749505911,0.0612863640191548,-0.0218499514386422,58.5,24.15,19.5
-888.18359,234.86328,-368.16406,0.0407687969314851,0.0900643999235885,-0.005595700114819,-11.1,31.2,20.7,-82.03125,-77.63672,1015.13672,0.0289112045263608,-0.0127901218244648,-0.1013889687751538,72.3,3.15,87.0,-825.19531,83.49609,582.03125,0.0951270764848485,0.013456313999951,-0.0338407124656936,56.4,25.35,19.8
-883.30078,235.35156,-368.16406,0.0610198522423753,0.0305099261211876,-0.0230489926347623,-11.1,31.2,20.7,-62.98828,-69.33594,1022.46094,0.0031976177225788,0.0090596550812521,-0.1156446435725182,70.65,3.0,86.85,-836.91406,77.63672,569.33594,0.1538820149569108,-0.0035972981212855,-0.0455651362488907,57.9,24.15,20.55
-874.02344,226.07422,-353.02734,0.0062618922903052,0.0305099261211876,0.0090596550812521,-10.05,29.7,20.7,-72.26563,-104.49219,1020.50781,0.0287778613715085,-0.0333078634450597,-0.0634181091675407,71.55,3.9,86.25,-839.35547,74.70703,579.58984,0.1261700261595952,-0.0299770771005538,-0.0203843984657425,57.3,24.3,20.25
-879.39453,239.25781,-366.69922,0.1183094122744632,0.0175864611418704,0.0335742006889141,-9.9,30.3,20.85,-66.89453,-115.72266,998.04687,0.0363721380127862,-0.0019984019935335,-0.1183094122744632,70.5,1.95,87.0,-831.05469,59.57031,585.44922,0.1432236382808319,-0.0242480338308824,-0.0446324322966249,56.25,24.3,19.65
-885.74219,245.11719,-371.09375,0.0730107878023519,0.0219831200605693,0.0214502710399355,-12.0,28.5,20.85,-69.33594,-115.23438,1021.48437,0.063684446411395,-0.0237151848102485,-0.146687593247265,72.15,2.55,87.9,-833.49609,39.0625,567.87109,0.176797838969746,-0.0127901218244648,-0.0909969293429291,56.55,24.75,21.0
-877.44141,264.16016,-368.16406,0.0082602942838387,0.0494287716140306,0.0527595579585365,-10.95,29.25,21.6,-64.45313,-71.77734,1005.37109,0.0480965617959833,-0.0277121633302407,-0.1626753327943086,71.55,2.7,86.7,-835.9375,55.17578,564.45312,0.1521501247401568,-0.0369049870334201,-0.086467101802303,58.5,24.9,21.6
-875.48828,261.71875,-374.02344,0.0337075438437664,-0.0139893375535101,0.0980581824306478,-10.95,29.25,21.6,-58.10547,-66.89453,1034.17969,0.0327748398915007,-0.0197182062902563,-0.1161776671260773,71.55,2.7,86.25,-844.72656,63.47656,568.35937,0.1978484296109748,0.0221164632154217,-0.0949939078629213,58.5,24.9,21.6
-867.67578,265.625,-366.21094,0.023981696587028,-0.0097258472567384,0.0762082309920056,-10.95,29.25,21.6,-79.58984,-96.19141,1027.34375,0.0318423104721601,-0.029044373148288,-0.1478866344433851,71.55,2.7,86.25,-836.42578,67.87109,572.26562,0.2578024092791572,-0.0341072242424731,-0.0548913031069224,57.6,24.75,20.25
-868.65234,261.23047,-372.07031,-0.0516936853843436,0.0534257501340228,0.0480965617959833,-10.05,30.15,21.0,-85.9375,-88.86719,1029.29688,-0.0327748398915007,-0.073676805444913,-0.1478866344433851,71.4,1.5,88.35,-832.51953,77.63672,580.07812,0.2386172265424599,0.0011990411961201,-0.1196416220925105,57.45,24.15,21.15
-872.07031,240.23437,-376.95312,-0.0126569532025376,0.0197182062902563,-0.0058622118915985,-11.55,28.5,21.6,-41.99219,-97.16797,1007.32422,-0.0335742006889141,0.0334410320669869,-0.1224395594163826,72.15,1.5,87.9,-820.80078,69.33594,552.73437,0.2751225331771733,-0.0337075438437664,-0.1100489434576992,57.45,24.15,21.15
-872.55859,240.72266,-380.37109,-0.0504946441882235,0.0654165111610742,-0.0448989440734045,-12.15,29.7,21.45,-75.19531,-101.5625,1024.41406,0.0058622118915985,-0.0159877395470436,-0.1642740543891354,71.7,2.55,85.8,-839.84375,76.66016,562.01172,0.2077074454896403,-0.0207840788644492,-0.1457548892949992,57.45,23.85,20.1
-874.51172,242.1875,-385.25391,-0.0266462907560478,0.0500949637895168,0.0190520141147701,-11.4,29.7,20.7,-65.91797,-104.49219,1026.36719,0.0616860444178615,-0.037970859607613,-0.1032542021467601,71.7,2.55,85.8,-826.17187,81.05469,546.875,0.2001133433812878,-0.023448673033469,-0.1694700741052478,57.9,24.15,20.1
-888.18359,253.41797,-372.55859,-0.0173201238980161,-0.0102588708102974,0.0638177895662474,-11.4,29.7,20.7,-73.73047,-137.69531,1003.90625,-0.0133231453780239,-0.0571562168772355,-0.1870567097800435,70.2,1.95,87.0,-830.56641,91.79688,549.80469,0.2440795835024266,0.0355727772153728,-0.1195084534705833,58.05,23.7,20.7
-894.53125,256.83594,-377.44141,-0.063684446411395,0.0227824808579827,-0.0042633157638465,-10.95,29.85,22.35,-53.22266,-128.41797,1003.41797,0.051827028539196,-0.0415681577288985,-0.2218299516650776,71.25,2.4,85.95,-825.68359,89.84375,552.73437,0.1955835158406617,0.0026645941690197,-0.0969923098564548,58.35,24.75,20.25
-892.08984,262.69531,-399.90234,-0.0883323351739094,0.005595700114819,0.0342403928644003,-11.55,30.3,21.3,-42.96875,-126.95313,994.14062,0.0679479367081668,-0.0254472495599277,-0.1698697545039545,70.2,2.4,86.25,-829.10156,85.44922,541.01562,0.223695185036684,0.0217166082837898,-0.0588882816269146,58.35,24.75,20.25
-887.20703,253.90625,-396.97266,-0.0293108849250675,-0.0695466583029936,0.0868667822010097,-9.9,29.55,21.9,-52.24609,-138.18359,1022.46094,0.0788728251610253,-0.0119907610270514,-0.1689372250846139,71.55,2.4,85.95,-831.54297,75.19531,542.96875,0.2268928027592628,0.0049295079393327,-0.0499617951675896,56.4,23.1,20.85
-901.85547,240.23437,-394.04297,-0.0475635382424242,-0.0106585512090041,0.0393032439585855,-11.25,30.3,20.85,-84.47266,-104.49219,1020.01953,0.0674150876875329,-0.0410353087082646,-0.1441561677001724,71.1,1.8,87.15,-851.07422,57.12891,550.29297,0.2428805423063064,0.04849624219469,-0.063684446411395,56.4,23.1,20.85
-893.55469,225.09766,-390.13672,-0.0499617951675896,-0.0103920394322246,0.0438330714992115,-11.25,30.3,20.85,-102.53906,-96.67969,1027.34375,0.0373046674321268,-0.025713586803782,-0.1444226794769519,71.1,3.0,87.6,-860.83984,77.14844,520.01953,0.2246278889889497,0.063684446411395,-0.0858009096268168,57.15,24.9,20.85
-887.20703,248.04687,-403.32031,0.0023980823922402,-0.0467641774450108,0.0760750623700784,-10.95,29.25,21.3,-116.69922,-86.42578,1043.94531,0.0654165111610742,0.0142556747973644,-0.1104486238564059,71.1,3.0,87.6,-859.86328,110.35156,488.28125,0.2315559734547413,0.1141790905996186,-0.0718115720733066,58.2,24.6,19.5
-895.01953,240.72266,-409.17969,0.0514271736075641,-0.0955267568835552,0.0852680606061829,-11.85,30.15,21.0,-113.76953,-63.47656,1024.90234,0.025713586803782,0.0668820641339739,-0.1518836129633773,73.05,2.4,86.25,-868.65234,122.55859,480.46875,0.2677947683126752,0.1048529237415869,-0.0750091897958855,57.45,24.15,19.05
-893.55469,249.51172,-427.73437,-0.0417013263508257,-0.063018428768834,0.0590214502488418,-11.1,29.7,22.05,-117.67578,-86.42578,1012.20703,-0.0333078634450597,0.1045865864977326,-0.1441561677001724,70.5,2.7,88.5,-864.74609,132.32422,491.21094,0.2211639340225166,0.0620857248165682,-0.0847350370526239,57.9,23.1,20.1
-932.61719,237.79297,-429.19922,0.06634921511334,-0.0814042507081179,0.0539585991546566,-12.15,29.7,22.5,-144.53125,-84.47266,986.32812,0.0250473946282958,0.1211071750654101,-0.0969923098564548,71.4,1.05,86.85,-864.25781,165.52734,485.35156,0.1689372250846139,0.0734104682010586,-0.059154618870769,56.7,23.85,20.55
-923.82812,233.88672,-436.03516,0.0227824808579827,-0.0917962901403425,0.0343737360192527,-12.15,29.7,22.5,-132.32422,-102.05078,999.51172,-0.0159877395470436,0.0494287716140306,-0.0397029243572922,71.4,1.05,86.85,-874.02344,168.94531,463.86719,0.1424242774834185,0.0566231933236764,-0.0707458740320389,58.8,24.0,20.7
-910.64453,243.65234,-420.89844,0.0387702204050264,-0.0594211306475485,-0.022382800459276,-11.55,28.8,20.25,-137.69531,-83.49609,970.70312,-0.0382373713843925,0.0123904414257581,-0.0483628990398376,71.4,3.3,85.8,-872.55859,170.41016,480.95703,0.034640073263107,0.0456983048708179,-0.0740764858436197,58.8,24.0,20.7
-912.59766,229.00391,-410.15625,0.0856677410048896,-0.0778071271197576,-0.0298437339457014,-11.4,29.4,21.0,-137.69531,-71.77734,986.32812,-0.0478300500192038,0.0627519169920545,-0.0250473946282958,70.8,1.95,87.0,-893.06641,154.78516,496.09375,-0.0471638578437175,0.0668820641339739,0.0121241041819038,57.6,22.95,20.25
-892.57812,233.39844,-426.26953,0.0991240550048407,-0.0516936853843436,-0.0463644970463041,-11.4,29.7,21.0,-145.01953,-70.80078,978.51562,-0.0500949637895168,0.0543582795533633,0.0471638578437175,71.1,1.05,87.9,-894.53125,155.76172,500.0,-0.0694134896810664,-0.0002665117767795,-0.0249142260063686,57.9,23.4,18.75
-879.88281,245.60547,-408.69141,0.0330413516682802,0.0002665117767795,-0.0642174699649541,-12.15,28.2,22.05,-163.57422,-60.05859,981.93359,-0.0860674214035963,0.0397029243572922,0.0500949637895168,71.1,1.05,87.9,-877.44141,146.48437,496.09375,-0.1586783542743164,-0.0043966589186989,-0.0277121633302407,58.35,24.0,19.95
-853.51562,251.46484,-397.94922,0.0744763407752516,-0.0158545709251164,-0.064750318985588,-12.15,28.2,22.05,-162.59766,-57.12891,983.88672,-0.050228132411444,0.0194516945134768,0.0644839817417337,69.45,2.4,87.0,-903.32031,150.87891,522.46094,-0.132165406673121,-0.0154548905264097,-0.0262466103573411,58.35,24.0,19.2
-863.76953,231.44531,-383.78906,0.0631515973907612,-0.0093261668580317,-0.0522267089379027,-12.15,28.65,19.95,-150.87891,-68.84766,989.74609,-0.0383705400063197,-0.0310429496747467,0.1128468807815713,70.65,2.55,86.55,-878.90625,134.27734,538.57422,-0.2102388710367329,-0.0611531953972277,0.0488959225933967,57.0,23.7,19.65
-841.79687,241.69922,-388.67187,0.0393032439585855,0.1084502218628724,-0.1160443239712249,-9.6,28.95,21.75,-123.04688,-79.58984,995.60547,-0.0233155044115418,0.0085268060606182,0.1116478395854512,71.25,1.95,86.7,-878.41797,111.32813,522.94922,-0.1750657742200668,-0.0575558972759422,0.0436999028772844,57.45,23.85,19.8
-845.70312,215.82031,-389.64844,0.0427671989250186,0.043566559722432,-0.0499617951675896,-10.2,29.55,21.6,-115.72266,-99.12109,1003.90625,-0.0474303696204971,0.0194516945134768,0.1326982556937548,71.25,1.95,86.7,-877.44141,97.16797,529.29687,-0.1805283057129587,-0.0784731447623186,0.0021317451483858,57.45,23.85,19.8
-849.60937,229.00391,-394.04297,0.0307764378979672,0.0568897051004559,-0.1061853080925594,-11.1,29.7,20.4,-100.09766,-110.35156,1003.41797,-0.0622190679714206,-0.0218499514386422,0.0983246942074273,70.65,2.55,87.9,-863.76953,91.30859,539.0625,-0.1897213039490632,-0.0611531953972277,0.0386370517830992,57.3,24.0,20.7
-861.32812,224.12109,-386.71875,-0.0014655529728996,0.0818039311068246,-0.1654732701181807,-11.1,29.7,20.4,-104.00391,-93.75,1011.23047,-0.0243813769857347,0.0006661921754862,0.1025880099712739,72.45,3.0,86.1,-866.21094,93.26172,531.25,-0.1546815502872494,-0.0656830229378538,0.0378376909856858,57.3,24.0,20.7
-867.67578,215.33203,-393.06641,0.0025314255470925,0.0113245688515652,-0.1013889687751538,-10.05,28.95,20.4,-97.65625,-84.96094,1037.10938,-0.0282450123508746,-0.0126569532025376,0.1116478395854512,71.55,2.4,87.45,-854.98047,84.96094,535.64453,-0.1104486238564059,-0.0722112524720134,0.0554241521275563,57.3,24.0,20.7
-870.60547,215.33203,-403.32031,0.0233155044115418,0.0157212277702641,-0.1461547442266311,-9.9,29.85,19.8,-109.375,-59.08203,1030.76172,-0.0067947413109391,-0.013456313999951,0.1477534658214579,70.5,2.7,87.45,-863.28125,86.91406,526.85547,-0.1003230962009608,-0.0652833425391471,0.0447657754514773,58.05,24.0,20.25
-894.53125,228.02734,-407.22656,-0.0358392889921523,0.1140459219776914,-0.1077840296873862,-10.95,28.8,20.55,-115.72266,-80.56641,1026.36719,-0.013456313999951,-0.0255804181818548,0.1677381838884938,70.35,3.0,87.6,-860.83984,81.54297,532.71484,-0.0692803210591393,-0.0856677410048896,-0.0254472495599277,58.05,23.7,20.25
-898.92578,216.30859,-413.08594,-0.0819372742616769,0.0763415741468579,-0.1360290420382608,-10.35,29.7,20.7,-138.67187,-71.28906,1012.20703,-0.0238483534321757,-0.0944608843093623,0.1625421641723815,71.55,1.95,88.05,-868.65234,84.96094,554.6875,-0.0688804661275074,-0.1007227765996675,0.0138559943986577,57.9,23.1,19.8
-901.36719,227.53906,-406.73828,-0.069680001457846,0.0083936374386911,-0.0552909835056291,-10.35,29.7,20.7,-79.10156,-102.53906,1037.59766,-0.0590214502488418,-0.060753514998521,0.1617428033749681,71.55,1.95,88.05,-862.79297,73.73047,566.89453,-0.0744763407752516,-0.0381042027624654,-0.0466310088230837,58.5,24.6,19.8
-883.78906,229.00391,-411.62109,-0.1187090926731699,0.0650168307623675,-0.063684446411395,-10.35,30.45,21.45,-72.26563,-110.83984,1036.62109,0.040235773377926,-0.0586217698501351,0.1721348428071927,71.1,1.8,87.9,-867.67578,58.59375,546.38672,-0.1248376418086228,-0.0606201718436686,-0.0508943245869302,58.05,23.25,20.25
-893.06641,236.32812,-403.80859,-0.1328315988486072,0.091529778363563,0.0014655529728996,-11.4,28.95,20.7,-62.5,-132.8125,1018.06641,0.0334410320669869,-0.0756753819713717,0.0975253334100139,70.65,0.75,86.1,-860.83984,46.38672,555.66406,-0.1486859952407985,-0.0267794593779749,-0.0305099261211876,56.7,23.4,19.5
-895.50781,238.28125,-404.29687,-0.1378942754098671,-0.0101255276554451,0.0692803210591393,-10.65,29.7,20.7,-67.87109,-140.13672,1012.69531,0.0131899767560967,-0.0301102457224809,0.0920628019171221,71.1,3.75,87.15,-853.51562,49.80469,531.73828,-0.1108484787880378,-0.0011990411961201,-0.0772741035661985,56.7,23.4,19.5
-917.48047,234.86328,-410.64453,-0.1841256038342442,0.0135896571548034,0.0158545709251164,-10.65,29.7,20.7,-70.80078,-125.48828,1000.97656,0.0027979373238721,-0.0405022851547056,0.1261700261595952,70.5,2.4,86.7,-837.89062,59.57031,523.4375,-0.1013889687751538,-0.0422343499043847,-0.0583552580733556,57.45,24.9,20.85
-913.08594,229.00391,-414.55078,-0.209706022016099,0.0281118437289474,0.0576890658978693,-11.85,29.4,20.4,-77.14844,-137.69531,1005.85937,0.0566231933236764,-0.0357059458372999,0.0937948666668012,70.35,2.55,87.15,-833.00781,67.38281,525.39062,-0.0876661429984231,0.0247810573844414,-0.0632847660126884,58.05,24.0,19.65
-937.5,226.07422,-435.54687,-0.1256370026060362,-0.0263797789792682,0.0644839817417337,-10.65,30.45,21.45,-76.66016,-113.28125,999.02344,0.036238969390859,0.0339738810876208,0.1035207139235396,71.7,3.3,86.1,-829.10156,62.98828,491.69922,-0.0887320155726161,0.0494287716140306,-0.0448989440734045,58.05,24.0,19.2
-962.89062,226.5625,-407.22656,-0.2206309104689576,-0.0123904414257581,0.0347734164179594,-10.5,30.3,20.85,-64.45313,-115.72266,987.79297,0.023981696587028,0.0357059458372999,0.113246561180278,71.7,3.3,86.1,-821.28906,44.92188,526.85547,-0.1357627047944065,-0.0007993607974134,-0.0289112045263608,58.2,24.15,20.1
-946.77734,245.60547,-416.01562,-0.2033109611038666,-0.0671485759107534,0.0109248884528585,-10.2,29.85,21.6,-78.125,-132.32422,975.09766,-0.0034639549664331,0.0487625794385443,0.1033873707686873,71.25,1.2,88.05,-845.21484,59.08203,529.29687,-0.1243047927879889,0.0314426300734534,0.0121241041819038,57.15,23.85,21.15
-950.19531,247.55859,-403.32031,-0.1060521394706322,-0.1131133925583509,0.071944915228159,-10.2,29.85,21.6,-80.07813,-100.09766,959.96094,0.075275701572665,0.0818039311068246,0.1119141768293056,72.0,2.4,86.7,-846.19141,42.96875,528.80859,-0.1227058966602369,0.0018652333716063,-0.0282450123508746,57.15,24.6,21.6
-935.05859,250.48828,-389.64844,-0.1741332448007262,-0.1015221373970809,0.0225161436141284,-10.2,29.85,21.6,-83.98438,-114.74609,988.76953,0.0627519169920545,0.1015221373970809,0.1208406632886305,72.6,2.4,86.25,-831.54297,58.10547,560.54687,-0.1605435876459228,0.0790061683158777,-0.032908183046353,57.15,24.6,21.6
-915.52734,260.25391,-390.625,-0.175731966395553,-0.1299004929028079,0.0515605167624164,-10.5,30.6,20.85,-70.80078,-127.44141,996.58203,0.052493046181757,0.1163108357480045,0.1129800494034985,72.6,2.4,86.25,-859.86328,41.01563,520.50781,-0.1012558001532266,0.0944608843093623,0.0094593354799588,57.15,23.4,20.55
-883.78906,253.90625,-349.12109,-0.1634746935917221,-0.1301670046795875,0.1015221373970809,-10.5,29.85,21.6,-99.12109,-125.97656,1032.22656,0.0738101485997654,0.1506845717672572,0.0827366350590903,72.0,3.15,87.0,-858.88672,42.48047,575.19531,-0.0912634411197086,0.0397029243572922,0.0019984019935335,57.15,23.4,20.55
-884.76562,257.32422,-358.39844,-0.1605435876459228,-0.1397595087814735,0.0738101485997654,-10.35,30.15,21.45,-125.0,-120.11719,993.65234,0.045165455850184,0.0880658233971298,0.0730107878023519,71.4,2.55,86.55,-869.62891,36.62109,565.42969,-0.1092495826602858,0.0258469299586344,-0.0021317451483858,58.2,23.1,21.15
-856.93359,257.8125,-338.86719,-0.0860674214035963,-0.0297105653237742,0.0514271736075641,-10.05,30.45,22.05,-76.66016,-123.04688,1049.31641,0.04849624219469,-0.0213169278850831,0.1151117945518844,70.5,4.2,87.0,-896.48437,38.08594,557.61719,-0.0405022851547056,0.0071944217096458,-0.0390367321818059,58.05,23.25,20.7
-859.375,270.50781,-328.61328,-0.0715452348294523,-0.0434333911005048,0.0526263893366094,-10.05,30.45,22.05,-89.84375,-146.97266,1023.92578,0.1105819670112583,0.0374380105869791,0.0743429976203992,72.0,2.7,86.7,-871.58203,34.66797,582.03125,-0.068614128883653,-0.0221164632154217,0.0131899767560967,58.2,24.15,20.1
-869.62891,255.85937,-346.19141,-0.0638177895662474,-0.0006661921754862,0.0106585512090041,-10.2,29.85,20.55,-114.25781,-127.92969,991.69922,0.0818039311068246,0.0564900247017492,0.1175098769441246,70.35,1.05,86.1,-862.79297,49.80469,562.01172,-0.0893982077481023,-0.0559571756811154,-0.0319754790940873,57.6,24.0,21.3
-887.69531,259.27734,-369.62891,-0.0255804181818548,0.0431668793237253,-0.0361056262360067,-11.25,30.3,21.3,-101.5625,-127.92969,1015.13672,0.0711455544307456,0.0198513749121835,0.0480965617959833,72.3,3.45,87.0,-862.30469,49.31641,581.05469,-0.1107151356331855,-0.0218499514386422,-0.0139893375535101,57.6,24.0,21.3
-906.25,238.28125,-353.02734,0.0113245688515652,0.0089264864593249,-0.0579555776746489,-10.35,29.7,22.8,-82.51953,-134.76562,1005.85937,0.0728774446474996,-0.0170536121212365,0.0654165111610742,72.3,3.45,87.0,-843.26172,55.17578,595.70312,-0.1292343007273217,-0.0250473946282958,-0.0365053066347134,58.2,23.1,20.1
-919.92187,236.32812,-363.76953,0.0062618922903052,0.0815375938629702,-0.0740764858436197,-10.05,31.65,22.5,-48.33984,-123.04688,1003.90625,0.1300336615247351,0.0512940049856369,0.0718115720733066,69.6,3.75,87.6,-832.03125,40.52734,565.42969,-0.0814042507081179,-0.006128723668378,0.0393032439585855,58.2,23.1,20.1
-924.80469,235.83984,-357.42187,0.0299770771005538,0.0590214502488418,-0.0662158719584876,-10.05,31.65,22.5,-70.3125,-111.81641,1028.32031,0.1308330223221485,0.0261132672024887,0.0217166082837898,70.65,3.3,86.55,-826.66016,47.36328,583.49609,-0.0802052095119978,-0.043566559722432,-0.0035972981212855,58.2,23.1,20.1
-928.71094,249.02344,-350.09766,0.0754088701945922,0.0262466103573411,-0.0262466103573411,-11.4,30.9,23.1,-56.64063,-97.65625,1000.48828,0.0771409349442713,0.0197182062902563,0.1049862668964393,69.6,3.0,86.85,-815.91797,35.64453,593.26172,-0.0795390173365115,0.020117886688963,0.0455651362488907,57.9,23.85,20.55
-913.57422,248.04687,-359.375,0.0578224090527217,-0.0069280844657914,-0.0277121633302407,-12.3,29.55,21.9,-54.19922,-104.00391,1022.94922,0.0763415741468579,-0.0443659205198454,0.0760750623700784,69.6,3.0,86.85,-821.28906,47.36328,599.60937,0.0107917198309313,-0.0370383301882724,0.0207840788644492,57.45,23.1,20.1
-901.36719,260.25391,-350.09766,0.059154618870769,-0.0009327039522657,-0.1149786259299572,-10.95,29.85,21.6,-41.01563,-87.40234,1016.11328,0.0949939078629213,-0.0271791397766816,0.0446324322966249,69.6,3.0,86.85,-822.26562,49.80469,616.69922,-0.0283781809728018,-0.0106585512090041,-0.0026645941690197,57.3,24.0,21.0
-902.83203,273.92578,-322.26562,0.0091929982361045,-0.0245145456076619,-0.0091929982361045,-10.95,29.25,22.35,-10.74219,-69.33594,1041.99219,0.1173767083221974,-0.0115910806283447,0.0191853572696224,71.4,2.25,87.15,-816.40625,76.17188,564.94141,0.0077274452632048,0.0090596550812521,0.0301102457224809,57.3,24.0,21.3
-881.34766,285.15625,-328.61328,0.0343737360192527,-0.0377045223637587,-0.0291777163031404,-10.95,29.25,22.35,-16.11328,-49.80469,1010.25391,0.1398928519363259,-0.0250473946282958,0.0847350370526239,70.8,3.15,86.7,-805.66406,101.07422,593.26172,-0.0587549384720623,-0.0110582316077108,-0.0351730968166661,57.3,24.3,20.25
-844.23828,261.71875,-299.31641,-0.0746095093971788,0.0314426300734534,-0.0909969293429291,-11.4,30.15,21.75,-31.25,-73.73047,988.28125,0.1345634890653612,-0.091529778363563,0.0439662401211387,70.8,3.15,86.7,-799.31641,96.19141,595.21484,-0.0342403928644003,-0.0175864611418704,-0.0289112045263608,57.9,24.15,20.55
-824.21875,258.78906,-289.55078,-0.0038636353651398,0.0847350370526239,-0.0174532925199432,-11.1,30.15,21.75,-42.96875,-68.35938,998.53516,0.1309663654770009,-0.0843353566539172,0.0880658233971298,71.1,3.3,88.35,-809.08203,98.63281,577.63672,-0.0403691165327784,-0.0241148652089552,-0.016787100344457,57.9,24.15,20.55
-822.26562,256.34766,-290.52734,-0.0101255276554451,0.1208406632886305,-0.1168438593015635,-10.65,29.4,20.7,-41.01563,-71.77734,996.09375,0.1509510835440367,-0.0879326547752027,0.0699463387017003,71.55,3.15,87.45,-825.19531,90.82031,594.72656,-0.0667488955120467,-0.0170536121212365,0.0087933178373978,58.95,23.4,20.85
-836.42578,265.625,-298.82812,-0.0840688448771376,0.1853246450303643,-0.1630750131930153,-10.2,30.3,21.3,-61.52344,-81.05469,1018.06641,0.1207074946667034,-0.0903307371674429,0.0858009096268168,72.3,2.4,87.45,-821.28906,75.19531,593.26172,-0.0305099261211876,0.0106585512090041,-0.0261132672024887,58.95,23.4,20.85
-826.66016,252.44141,-313.96484,-0.0299770771005538,0.1669388230910804,-0.1402925323350325,-10.2,30.3,21.3,-61.52344,-104.98047,1035.64453,0.067015232755901,-0.0487625794385443,0.1204409828899239,72.3,2.4,87.45,-826.66016,51.26953,593.75,-0.0905972489442224,-0.0005328490206338,-0.0094593354799588,58.05,24.3,21.0
-864.74609,242.1875,-346.67969,-0.0748760211739583,0.158944866051096,-0.1305666850782942,-12.15,30.15,21.75,-58.59375,-131.83594,1056.15234,-0.0067947413109391,-0.0366386497895657,0.1781302233207184,71.25,4.95,87.0,-837.40234,7.8125,593.75,-0.0367718184114929,0.0335742006889141,0.0353062654385932,56.7,23.85,21.6
-902.83203,238.28125,-375.48828,-0.0527595579585365,0.2154348907528452,-0.1606769308007752,-10.95,30.3,23.25,-66.89453,-175.29297,1044.43359,-0.0939280352887284,-0.0083936374386911,0.0671485759107534,71.25,3.9,88.05,-842.77344,-7.32422,577.14844,-0.0341072242424731,0.0253139064050753,0.0462311538914518,57.9,23.85,20.85
-910.15625,235.35156,-384.27734,-0.0197182062902563,0.1462879128485583,-0.1614762915981885,-11.4,28.95,22.5,-64.45313,-181.15234,1020.99609,-0.0968591412345277,-0.0683476171068735,0.071944915228159,71.25,4.95,87.75,-841.30859,-20.99609,578.61328,0.0119907610270514,0.014522186574144,0.022382800459276,58.05,22.95,21.3
-916.50391,227.05078,-382.8125,-0.0034639549664331,0.091529778363563,-0.0674150876875329,-9.9,30.3,21.9,-53.22266,-142.08984,1014.64844,-0.0158545709251164,-0.0415681577288985,0.0804717212887773,71.25,3.15,87.75,-841.79687,-1.95312,584.47266,-0.0015987215948268,0.0065284040670847,0.0724777642487929,58.05,22.95,21.3
-915.03906,221.67969,-382.8125,-0.0231821612566894,0.098724374606134,-0.1089830708835063,-9.9,30.3,21.9,-51.26953,-87.89063,981.93359,0.0989908863829135,-0.0968591412345277,0.031309286918601,70.8,3.45,87.0,-828.125,37.10938,569.33594,0.0635512777894679,-0.0347734164179594,0.0151883787496302,57.3,23.7,20.7
-897.94922,210.44922,-383.78906,-0.0366386497895657,0.0989908863829135,-0.0349065850398865,-12.0,29.85,23.25,-31.25,-59.08203,962.89062,0.1291011321053945,-0.1013889687751538,0.0169204434993094,72.45,1.8,87.6,-795.89844,74.21875,549.80469,0.040235773377926,-0.0034639549664331,0.0427671989250186,57.3,23.7,20.7
-891.60156,199.70703,-375.0,0.041834669505678,0.0488959225933967,-0.0370383301882724,-11.4,29.7,20.7,-42.96875,-38.57422,1010.74219,0.1957166844625889,-0.0830031468358699,-0.0262466103573411,72.45,1.8,87.6,-803.71094,112.30469,538.57422,-0.0062618922903052,0.0455651362488907,-0.0210505906412288,57.45,24.15,20.55
-876.46484,206.05469,-368.16406,0.0059953805135257,0.0519601971611231,-0.0215834396618626,-11.25,30.3,20.85,-55.17578,-23.4375,1001.95312,0.1736002212471671,-0.0699463387017003,-0.0175864611418704,71.1,2.55,87.15,-802.73437,131.83594,535.64453,-0.0265129476011954,0.0215834396618626,-0.0459648166475974,57.9,23.4,21.9
-863.28125,215.33203,-389.16016,0.0398360929792193,0.0863337586474507,-0.0452986244721112,-10.05,30.15,21.45,-77.14844,-40.03906,1024.41406,0.0516936853843436,-0.0632847660126884,0.0327748398915007,72.15,4.5,87.6,-825.68359,124.02344,544.92187,-0.0862005900255235,0.0583552580733556,-0.0353062654385932,57.9,24.15,20.85
-883.78906,234.86328,-407.71484,0.058088746296576,0.0154548905264097,0.0243813769857347,-10.05,30.15,21.45,-66.89453,-36.13281,1005.37109,0.0440995832759911,0.0023980823922402,0.1460214010717788,70.5,4.95,88.5,-868.65234,104.98047,536.13281,-0.0715452348294523,0.0646171503636608,-0.0532925815120956,58.05,24.3,21.75
-887.20703,262.69531,-400.39062,0.0358392889921523,0.0675482563094601,0.0243813769857347,-12.3,29.55,20.85,-81.05469,-37.10938,1016.11328,-0.050761155965003,0.014522186574144,0.0824701232823108,70.5,4.95,88.5,-858.39844,95.21484,524.41406,-0.0832694840797242,0.0866002704242302,-0.0158545709251164,57.9,23.4,20.55
-901.36719,293.45703,-424.31641,-0.0322419908708668,0.0599539796681824,-0.0041301471419193,-10.95,30.6,21.9,-103.51563,-38.08594,1013.18359,-0.1017886491738605,0.0010658725741929,0.1349631694640679,70.65,3.0,87.6,-884.27734,55.66406,520.50781,-0.0827366350590903,0.0471638578437175,-0.0598208110462552,58.95,24.15,21.9
-884.27734,310.05859,-427.73437,-0.0269126279999021,0.0166539317225298,0.0766079113907123,-13.2,30.9,22.05,-126.46484,-57.61719,1022.94922,-0.1277687477544221,-0.0345069046411798,0.1057856276938527,70.35,3.3,87.6,-877.92969,49.80469,501.46484,-0.054091942309509,0.0251807377831481,0.005595700114819,58.95,24.15,21.9
-882.32422,303.22266,-428.22266,-0.073676805444913,0.068614128883653,0.0503614755662963,-12.45,29.7,21.0,-125.0,-96.67969,1050.78125,-0.0947273960861418,0.2923093139203371,0.1027213531261262,70.35,3.3,87.6,-893.06641,63.47656,508.30078,-0.1181760691196108,0.0194516945134768,-0.0278453319521679,58.95,24.15,21.9
-860.35156,298.82812,-437.01172,-0.1574793130781963,0.0795390173365115,-0.0049295079393327,-12.45,29.7,21.0,-147.94922,-110.83984,1004.88281,-0.132165406673121,0.181327666510372,0.1019218177957876,71.1,4.5,88.35,-899.90234,50.29297,523.4375,-0.0818039311068246,0.0430337107017981,-0.0622190679714206,57.15,24.6,21.6
-866.69922,284.66797,-452.14844,-0.1259035143828157,0.0756753819713717,0.0083936374386911,-11.1,30.15,19.95,-151.36719,-154.29687,1041.01563,-0.1131133925583509,0.1696034172601001,0.0482297304179105,70.5,3.9,87.0,-886.23047,34.17969,507.32422,-0.0715452348294523,0.0436999028772844,0.0226493122360556,57.15,24.6,21.6
-888.67187,276.36719,-458.98437,-0.143356806902759,0.0643506385868813,-0.064750318985588,-11.55,30.3,20.25,-151.85547,-140.13672,1022.46094,-0.0258469299586344,0.118842261295097,0.0783399761403914,71.55,2.4,87.0,-897.94922,33.20313,522.94922,-0.0839356762552105,0.0462311538914518,0.0414349891069713,58.2,24.6,20.85
-894.04297,254.88281,-459.47266,-0.110981647409965,0.1354961930176269,-0.057422728654015,-12.0,29.55,20.55,-139.16016,-123.53516,1013.67187,-0.0783399761403914,0.0671485759107534,0.0687472975055802,71.55,2.4,87.0,-904.78516,22.46094,510.74219,-0.0407687969314851,0.0151883787496302,0.0125237845806105,56.7,23.85,20.55
-899.41406,242.1875,-461.91406,-0.0698131700797731,0.0937948666668012,-0.0077274452632048,-11.4,30.15,20.7,-149.90234,-126.46484,1018.55469,-0.0269126279999021,0.0366386497895657,0.0666155523571943,72.3,4.95,88.05,-897.94922,33.69141,528.80859,-0.0123904414257581,-0.0359724576140795,0.0286446927495813,58.2,23.85,21.15
-883.78906,228.51562,-448.24219,-0.0074609334864253,0.0911300979648563,-0.0666155523571943,-11.4,30.15,20.7,-158.69141,-121.58203,1000.0,0.0385038831611721,0.0279785005740951,0.0283781809728018,72.15,3.75,87.9,-895.50781,34.17969,520.01953,0.005595700114819,-0.0552909835056291,0.1157779867273706,57.6,24.75,21.75
-900.87891,219.23828,-439.94141,-0.023981696587028,0.1320322380511938,-0.1157779867273706,-11.4,30.15,20.7,-152.34375,-110.35156,985.35156,0.0746095093971788,0.0011990411961201,0.0117244237831971,72.0,2.7,87.0,-883.78906,37.59766,533.20312,0.050761155965003,-0.1184425808963904,0.0676814249313873,57.6,24.75,21.75
-881.83594,230.95703,-443.35937,0.0917962901403425,0.0855343978500373,-0.068614128883653,-12.3,29.55,20.55,-135.25391,-100.58594,991.21094,0.0952604196397009,0.0017320647496791,-0.0038636353651398,71.1,4.05,87.15,-887.69531,44.92188,525.39062,-0.0179861415405771,-0.0475635382424242,0.0624854052152749,58.2,24.15,19.5
-863.76953,211.42578,-433.59375,0.0972588216332344,0.0564900247017492,-0.0417013263508257,-11.25,31.35,21.3,-138.18359,-74.70703,987.79297,0.0873996312216436,0.0035972981212855,0.0213169278850831,72.0,3.15,88.05,-871.58203,35.64453,505.37109,-0.0097258472567384,-0.1481531462201646,0.1059187963157798,58.2,24.15,19.5
-842.28516,208.00781,-443.84766,0.0631515973907612,0.1207074946667034,-0.1153783063286639,-10.65,29.4,19.95,-120.11719,-81.54297,988.28125,0.0783399761403914,0.0243813769857347,0.0289112045263608,72.3,3.45,85.65,-854.98047,37.10938,532.22656,-0.0181194846954295,-0.1120475199841579,0.0266462907560478,55.8,23.25,21.75
-846.67969,240.23437,-442.38281,0.0848683802074762,0.094860564708069,-0.0893982077481023,-12.45,30.15,21.0,-117.1875,-87.40234,974.12109,0.0548913031069224,0.0222496318373489,0.0409019655534123,72.3,3.45,85.65,-865.23437,50.78125,534.17969,-0.0098591904115907,-0.1057856276938527,0.0439662401211387,57.9,24.15,19.5
-853.02734,270.50781,-445.80078,0.1125803690047918,0.0322419908708668,0.0266462907560478,-12.45,30.15,21.0,-112.79297,-90.33203,970.21484,-0.0159877395470436,-0.0287778613715085,0.0115910806283447,72.3,3.45,85.65,-851.07422,45.41016,532.71484,0.0572893854991626,-0.1364287224369675,0.079272505559732,57.9,25.35,21.6
-852.53906,274.41406,-431.15234,0.0443659205198454,0.1688040564626867,-0.0393032439585855,-10.65,29.4,21.0,-94.72656,-85.9375,989.74609,-0.0009327039522657,-0.0317089673173077,-0.0034639549664331,70.8,3.15,86.7,-841.30859,62.5,557.12891,0.0691469779042869,-0.0627519169920545,0.0567565364785288,59.25,25.65,21.15
-866.69922,275.87891,-436.03516,0.0375711792089063,0.0556906639043358,0.0173201238980161,-11.1,28.95,21.0,-74.21875,-69.82422,1030.27344,-0.0071944217096458,-0.0218499514386422,0.0173201238980161,70.5,3.45,88.05,-813.47656,69.33594,511.71875,0.0419678381276052,-0.1000565844241813,0.0612863640191548,57.15,24.6,21.9
-885.74219,272.46094,-431.15234,0.0472970264656447,0.041834669505678,0.0147886983509235,-11.1,29.7,19.95,-50.29297,-54.19922,1038.57422,-0.0222496318373489,0.0069280844657914,-0.0006661921754862,71.1,4.8,87.15,-821.28906,53.71094,541.99219,0.0367718184114929,-0.1105819670112583,0.0193185258915496,58.5,23.85,21.6
-895.01953,267.57812,-431.64062,-0.0057288687367461,0.0191853572696224,-0.0827366350590903,-11.1,29.7,19.95,-34.17969,-60.54688,1019.04297,-0.0277121633302407,-0.0074609334864253,-0.0226493122360556,71.1,4.8,87.15,-803.71094,46.38672,545.89844,0.0258469299586344,-0.1208406632886305,0.0598208110462552,58.5,23.85,21.6
-888.18359,246.09375,-430.17578,0.0554241521275563,-0.0106585512090041,-0.0836691644784309,-11.1,29.7,19.95,-70.80078,-78.61328,1012.20703,-0.0189188454928429,0.0434333911005048,-0.0310429496747467,69.9,4.5,87.6,-835.9375,53.22266,562.5,0.0933951862680945,-0.0718115720733066,0.0426340303030914,57.9,24.15,22.95
-914.0625,227.53906,-450.19531,0.1068515002680456,-0.061419532641082,-0.086467101802303,-12.45,29.7,20.7,-82.51953,-74.70703,1001.95312,-0.0877993116203503,0.0147886983509235,0.046897346066938,72.15,4.5,87.15,-839.35547,60.54688,573.73047,0.1121806886060851,-0.0592879620256213,0.05475795995207,57.9,24.15,22.95
-903.32031,246.09375,-436.52344,0.027312482931534,-0.0330413516682802,-0.1268362183350815,-11.4,28.65,20.4,-91.79688,-114.74609,1013.18359,-0.1279019163763492,0.0444992636746978,0.050761155965003,71.1,3.3,88.65,-867.1875,57.12891,545.89844,0.1324319184499005,-0.041301645952119,0.0299770771005538,57.3,24.3,21.75
-895.50781,263.67187,-437.5,0.0795390173365115,-0.0995237354035474,-0.0997902471803269,-9.9,29.55,20.85,-95.70313,-125.0,1047.85156,-0.1759984781723326,0.0452986244721112,0.0189188454928429,71.55,3.45,87.75,-853.51562,45.89844,558.10547,0.1729342036046061,-0.0655498543159266,0.0157212277702641,57.45,25.65,21.15
-878.90625,256.34766,-417.96875,0.0755420388165193,-0.0997902471803269,-0.1072511806667523,-9.9,29.55,20.85,-103.51563,-143.55469,1016.60156,-0.1013889687751538,0.0231821612566894,-0.0415681577288985,72.15,3.3,88.35,-839.84375,58.59375,598.14453,0.123238920213796,-0.0807380585326316,0.0936615235119489,55.8,25.05,22.05
-867.67578,266.60156,-414.0625,0.0131899767560967,-0.1071178375118999,-0.1095160944370653,-12.3,29.55,21.3,-101.07422,-124.02344,1009.76562,-0.0562235129249697,0.0274456515534612,-0.0912634411197086,72.15,4.05,88.35,-861.32812,60.54688,569.33594,0.1374945950111605,0.0062618922903052,0.0434333911005048,58.2,25.35,20.85
-847.65625,265.13672,-413.08594,-0.043566559722432,-0.0030642745677264,-0.069680001457846,-12.0,29.55,20.55,-106.93359,-109.375,1022.46094,0.0194516945134768,0.055823832526263,-0.1029876903699806,72.15,4.05,88.35,-861.81641,65.91797,579.10156,0.1081837100860929,-0.070346019100407,0.0700796818565527,58.2,25.35,20.85
-845.21484,266.11328,-395.01953,0.0215834396618626,-0.0450321126953316,-0.0626187483701273,-9.9,29.25,21.3,-94.72656,-71.28906,1027.83203,0.1005896079777403,-0.0213169278850831,-0.1091164140383586,70.8,3.9,87.75,-865.72266,74.21875,586.42578,0.1051194355183664,-0.0398360929792193,0.0266462907560478,58.2,25.35,20.85
-844.23828,266.60156,-382.32422,-0.0634181091675407,0.0014655529728996,-0.0333078634450597,-10.65,29.7,21.45,-69.82422,-48.33984,1013.18359,0.134430320443434,-0.0640843013430269,-0.1878560705774568,71.1,3.3,88.35,-861.32812,86.42578,583.98437,0.2105053828135125,-0.0538254305327295,0.0750091897958855,56.7,24.6,22.65
-862.30469,246.58203,-380.85937,-0.0698131700797731,-0.0522267089379027,-0.0644839817417337,-10.65,29.7,21.45,-69.33594,-52.73438,1033.20313,0.1077840296873862,-0.0337075438437664,-0.1061853080925594,71.55,4.65,87.75,-850.58594,98.14453,576.66016,0.1861240058277777,-0.1304333419234418,0.0378376909856858,56.7,24.6,22.65
-859.86328,238.28125,-385.25391,0.0383705400063197,-0.0818039311068246,-0.0639509581881746,-11.4,30.15,20.4,-76.66016,-42.96875,1002.92969,0.0358392889921523,-0.0121241041819038,-0.0847350370526239,71.55,4.65,87.75,-833.49609,86.42578,578.125,0.1554809110846628,-0.0968591412345277,0.0194516945134768,57.0,24.3,20.7
-868.16406,239.74609,-394.04297,-0.0069280844657914,-0.0175864611418704,-0.0202512298438154,-12.0,30.3,20.25,-61.03516,-61.03516,1017.57812,-0.0041301471419193,0.0487625794385443,-0.0679479367081668,71.4,3.0,86.85,-822.26562,89.35547,579.58984,0.1783965605645728,-0.1196416220925105,-0.013456313999951,56.7,24.6,20.85
-892.08984,234.86328,-395.01953,0.0053291883380394,0.0058622118915985,-0.0592879620256213,-11.1,30.45,22.5,-71.28906,-71.77734,1011.71875,-0.0401026047559989,0.0278453319521679,-0.068081105330094,70.5,3.15,86.7,-818.84766,119.14063,577.14844,0.1088499022615791,-0.0433002224785777,0.0038636353651398,57.15,25.35,21.6
-908.69141,249.51172,-394.04297,0.0538254305327295,-0.0218499514386422,-0.0041301471419193,-12.15,29.4,21.0,-72.75391,-110.35156,1012.69531,-0.0397029243572922,0.0369049870334201,-0.0588882816269146,70.5,3.15,86.7,-818.35937,93.26172,554.19922,0.1465544246253378,-0.0551578148837019,-0.0213169278850831,56.55,24.3,21.3
-914.55078,253.90625,-394.04297,-0.0021317451483858,-0.0133231453780239,-0.0093261668580317,-12.15,29.4,21.0,-73.73047,-109.86328,1004.88281,-0.0125237845806105,0.0711455544307456,-0.089797888146809,72.0,2.7,87.45,-825.19531,81.54297,585.9375,0.1016554805519333,-0.0189188454928429,0.0038636353651398,57.15,25.65,20.85
-911.62109,269.53125,-397.46094,0.0075941021083525,-0.0471638578437175,-0.0025314255470925,-12.3,29.55,20.55,-69.82422,-92.28516,1007.8125,-0.0321086477160144,0.1175098769441246,-0.0997902471803269,71.4,3.3,86.85,-838.37891,85.44922,562.01172,0.0996569040254746,0.0085268060606182,-0.0146553551960711,56.7,24.9,22.2
-871.09375,273.92578,-384.27734,-0.0047963393174056,-0.0652833425391471,0.0627519169920545,-11.85,30.15,21.0,-69.33594,-92.77344,997.55859,-0.0031976177225788,0.0651499993842947,-0.1565467836588557,72.9,3.3,87.9,-840.33203,81.05469,570.80078,0.1346968322202135,-0.0850015488294034,-0.0074609334864253,56.7,24.9,22.2
-872.07031,256.83594,-381.83594,-0.0187856768709157,-0.0627519169920545,0.0178529729186499,-12.3,29.55,20.55,-77.14844,-76.66016,1019.04297,0.0427671989250186,0.0383705400063197,-0.1385604675853534,72.9,3.3,87.9,-823.73047,103.02734,558.10547,0.1504180599904777,-0.1048529237415869,0.0014655529728996,56.7,24.9,20.1
-869.14062,232.42187,-380.37109,-0.0197182062902563,0.0089264864593249,0.0173201238980161,-9.9,29.25,22.35,-70.80078,-69.33594,991.69922,0.0450321126953316,0.0776737839649052,-0.1450888716524382,71.25,2.7,86.7,-830.56641,115.23438,571.28906,0.1510842521659639,-0.0768744231674918,0.0042633157638465,56.7,24.9,20.1
-875.97656,234.375,-366.69922,0.0231821612566894,-0.0278453319521679,0.0955267568835552,-9.9,29.25,22.35,-69.82422,-86.91406,992.1875,0.03064326927604,0.022382800459276,-0.1420244225517865,72.15,1.5,86.85,-822.75391,124.51172,574.21875,0.0997902471803269,-0.0058622118915985,-0.0299770771005538,57.15,24.9,22.2
-879.88281,229.00391,-373.53516,0.0397029243572922,-0.0014655529728996,0.0562235129249697,-11.85,29.4,19.35,-55.66406,-74.21875,1009.76562,0.0434333911005048,0.0125237845806105,-0.1636080367465744,72.0,2.4,87.0,-820.80078,107.42188,594.72656,0.0850015488294034,-0.0287778613715085,-0.0005328490206338,56.1,23.85,22.2
-866.69922,237.30469,-373.04687,0.0355727772153728,-0.0118575924051242,0.032375159492794,-10.95,29.55,20.55,-53.71094,-83.49609,996.58203,0.0695466583029936,0.0115910806283447,-0.132165406673121,71.1,1.8,88.35,-811.03516,114.25781,597.16797,0.0594211306475485,-0.052493046181757,0.029044373148288,57.45,26.1,21.9
-864.74609,231.44531,-372.55859,0.1267028751802291,-0.0019984019935335,0.1185757495183175,-10.5,29.55,21.9,-70.80078,-56.15234,995.11719,0.0747426780191059,0.0482297304179105,-0.0760750623700784,71.7,3.3,87.15,-813.96484,104.00391,578.61328,0.0963261176809686,-0.043566559722432,-0.0198513749121835,56.55,25.05,20.25
-872.07031,246.58203,-375.97656,0.1153783063286639,-0.0097258472567384,0.1396263401595463,-12.3,29.55,21.3,-89.84375,-41.50391,1018.55469,0.0528927265804637,0.0807380585326316,-0.1115144964305989,71.55,3.45,88.5,-804.6875,118.65234,594.72656,0.0732771250462063,-0.0711455544307456,-0.0243813769857347,56.55,25.05,20.25
-877.92969,283.20312,-386.23047,0.0899310567687362,0.043566559722432,0.0572893854991626,-12.3,29.55,21.3,-80.07813,-9.76562,1033.20313,-0.0015987215948268,0.0480965617959833,-0.0871332939777893,71.55,3.45,88.5,-822.75391,100.58594,587.40234,0.0831363154577971,-0.0542251109314362,-0.0251807377831481,57.15,23.85,21.15
-860.35156,275.87891,-386.23047,0.0899310567687362,-0.0301102457224809,0.0972588216332344,-12.15,29.7,20.4,-80.07813,16.60156,1031.73828,-0.0967257980796753,0.0215834396618626,-0.0996569040254746,72.0,3.15,87.45,-823.73047,104.00391,605.46875,0.0856677410048896,-0.0746095093971788,-0.0302434143444081,57.15,23.85,21.15
-848.63281,302.24609,-381.83594,0.0690138092823597,-0.0027979373238721,0.0762082309920056,-11.85,27.9,21.45,-54.19922,-33.20313,1026.85547,-0.1380276185647195,-0.0149218669728507,-0.1181760691196108,69.9,4.05,86.55,-807.12891,111.32813,632.32422,0.0367718184114929,-0.0089264864593249,-0.0444992636746978,57.45,24.9,21.9
-883.78906,276.85547,-378.41797,0.0007993607974134,0.0185191650941362,-0.0151883787496302,-12.3,29.25,20.55,-31.25,-96.19141,1035.15625,-0.2178331476780106,0.0030642745677264,-0.0642174699649541,72.0,3.9,86.7,-804.6875,87.89063,591.30859,0.1007227765996675,0.0075941021083525,-0.068081105330094,58.05,24.75,20.25
-881.34766,258.78906,-375.0,0.0391699008037331,-0.039569755735365,0.0231821612566894,-11.4,28.65,21.45,-35.15625,-122.55859,1035.64453,-0.2258269301850698,0.0031976177225788,-0.0660827033365605,72.0,3.9,86.7,-806.15234,77.63672,596.67969,0.0933951862680945,0.0225161436141284,-0.031309286918601,57.3,25.8,20.25
-877.44141,241.69922,-376.46484,0.0310429496747467,-0.0459648166475974,-0.0474303696204971,-11.4,28.65,21.45,-25.87891,-149.41406,1004.39453,-0.2394165873398733,0.0029311059457992,-0.0648836621404404,71.4,2.25,86.85,-801.75781,60.54688,615.23437,0.1073843492886795,0.0193185258915496,-0.0498284520127373,57.15,24.9,21.9
-883.78906,215.33203,-386.71875,0.0002665117767795,0.0278453319521679,-0.1369617459905266,-11.4,28.65,21.45,-40.03906,-157.22656,987.30469,-0.2171669555025244,0.0189188454928429,-0.0715452348294523,71.7,2.25,88.65,-814.94141,46.38672,595.21484,0.1910535137671104,0.0057288687367461,-0.0819372742616769,58.05,24.9,21.9
-875.48828,224.60937,-387.69531,0.0891316959713228,-0.0675482563094601,-0.0333078634450597,-12.0,28.05,21.6,-62.5,-154.78516,1016.60156,-0.1490856756395052,-0.0311761182966739,-0.0921959705390492,71.7,2.25,88.65,-830.07812,37.10938,610.83984,0.1652067583414012,0.006128723668378,-0.0331745202902074,58.05,24.75,21.75
-868.65234,226.5625,-400.39062,0.0726111074036452,-0.0463644970463041,-0.0098591904115907,-12.45,29.7,21.45,-86.42578,-144.53125,1010.25391,-0.0667488955120467,-0.063684446411395,-0.1505512286124048,71.7,2.25,88.65,-829.10156,44.43359,616.21094,0.2306232695024755,0.0171867807431637,-0.054091942309509,57.9,24.9,22.2
-871.09375,233.88672,-384.76562,-0.0079939570399844,-0.0283781809728018,-0.0587549384720623,-11.85,28.95,21.45,-100.58594,-120.60547,1041.99219,-0.0722112524720134,-0.0238483534321757,-0.176797838969746,70.35,2.55,87.9,-859.86328,46.875,590.33203,0.2372848421914875,-0.0178529729186499,-0.1120475199841579,57.9,24.9,22.2
-848.63281,233.39844,-389.16016,0.0439662401211387,-0.0309096065198943,0.023981696587028,-11.55,28.8,20.85,-116.21094,-92.28516,1022.94922,-0.0310429496747467,-0.1220398790176759,-0.1742664134226534,71.55,1.65,86.7,-833.98437,90.33203,601.5625,0.1945176432664688,0.0322419908708668,-0.1468207618691921,56.7,26.1,20.85
-839.84375,222.65625,-385.25391,0.0715452348294523,-0.0315757986953806,0.0483628990398376,-11.55,28.8,20.85,-88.37891,-120.60547,1031.25,-0.0850015488294034,-0.0551578148837019,-0.1212403436873373,71.7,3.3,86.55,-831.05469,98.14453,584.96094,0.2323553342521546,0.0037304667432126,-0.1040535629441735,56.7,26.1,20.85
-842.28516,187.98828,-393.06641,0.0325085026476463,0.0177198042967228,0.0474303696204971,-12.0,28.5,19.5,-49.31641,-125.97656,1016.11328,-0.0995237354035474,0.0370383301882724,-0.2059755552728863,71.7,3.3,86.55,-828.125,110.83984,552.73437,0.250474644414659,0.0374380105869791,-0.1658729505168874,57.0,24.0,21.75
-849.12109,206.05469,-399.41406,0.103787051167394,-0.0131899767560967,0.0830031468358699,-11.1,28.95,21.45,-71.77734,-110.83984,988.76953,-0.0755420388165193,-0.0568897051004559,-0.2023782571516009,71.7,2.55,86.1,-817.38281,132.8125,548.82812,0.2394165873398733,-0.0018652333716063,-0.1452220402743654,56.4,24.15,21.9
-870.60547,184.08203,-422.36328,0.1272358987337882,-0.0125237845806105,0.0511608363637097,-10.35,28.2,21.0,-71.77734,-116.69922,988.28125,-0.0033307863445059,-0.0767412545455646,-0.2356861205966606,72.15,1.5,87.6,-816.40625,134.76562,552.73437,0.2773874469474863,0.0014655529728996,-0.1536156777130565,56.4,23.4,21.9
-886.23047,175.29297,-428.71094,0.0691469779042869,0.0672817445326806,-0.011191400229638,-10.2,29.25,20.55,-90.82031,-114.25781,965.33203,0.0283781809728018,-0.0626187483701273,-0.1457548892949992,72.3,3.45,87.0,-831.54297,142.08984,561.52344,0.2191653574960579,-0.0206509102425221,-0.1041869060990259,57.6,24.0,20.7
-913.08594,175.78125,-428.22266,0.1139127533557643,0.058088746296576,-0.0199847180670358,-10.2,29.25,20.55,-99.12109,-98.63281,994.14062,0.0490290912153239,-0.0341072242424731,-0.1949173236651755,72.0,0.15,87.0,-830.07812,154.29687,540.03906,0.2059755552728863,0.0006661921754862,-0.1163108357480045,57.6,24.0,20.7
