IMU1_AccX,IMU1_AccY,IMU1_AccZ,IMU1_GyrX,IMU1_GyrY,IMU1_GyrZ,IMU1_MagX,IMU1_MagY,IMU1_MagZ,IMU2_AccX,IMU2_AccY,IMU2_AccZ,IMU2_GyrX,IMU2_GyrY,IMU2_GyrZ,IMU2_MagX,IMU2_MagY,IMU2_MagZ,IMU3_AccX,IMU3_AccY,IMU3_AccZ,IMU3_GyrX,IMU3_GyrY,IMU3_GyrZ,IMU3_MagX,IMU3_MagY,IMU3_MagZ
-984.86328,154.78516,121.58203,-0.0936615235119489,0.0495619402359577,-0.0566231933236764,7.05,24.75,37.35,-88.86719,-89.35547,1041.50391,0.0390367321818059,0.0881991665519822,0.1374945950111605,70.65,1.8,87.9,-837.40234,61.03516,630.37109,-0.1981147668548291,-0.0678147680862396,0.0447657754514773,57.9,24.6,25.35
-994.62891,141.11328,100.58594,-0.1324319184499005,0.1003230962009608,-0.1157779867273706,5.7,23.4,36.75,-100.58594,-83.49609,1027.83203,0.0758085505932989,0.0027979373238721,0.1032542021467601,71.1,1.8,87.9,-844.23828,51.75781,599.12109,-0.1927855785167896,-0.0913966097416358,0.0562235129249697,57.45,23.4,24.75
-1015.625,144.53125,99.12109,-0.0828698036810175,0.050228132411444,-0.0398360929792193,7.05,24.3,36.3,-86.91406,-116.69922,1024.90234,0.0089264864593249,0.0305099261211876,0.1068515002680456,71.25,2.4,86.7,-828.125,38.57422,589.35547,-0.1473537854227512,-0.0763415741468579,0.0590214502488418,57.45,23.4,24.75
-1004.88281,149.41406,104.98047,-0.0872664625997164,0.0198513749121835,-0.0442327518979182,6.0,24.3,37.35,-69.33594,-143.55469,1017.57812,0.0253139064050753,0.0598208110462552,0.1430902951259795,72.0,1.95,86.7,-823.24219,60.05859,604.49219,-0.2263599537386289,-0.050761155965003,0.0830031468358699,57.6,23.7,23.1
-1012.69531,130.85937,102.53906,-0.1055191159170731,0.0554241521275563,-0.1071178375118999,6.9,24.15,37.05,-63.96484,-173.33984,1022.46094,0.0343737360192527,0.082603291904238,0.098724374606134,71.7,2.55,86.85,-821.77734,46.38672,607.91016,-0.2083736376651266,-0.0391699008037331,0.0410353087082646,58.2,23.85,23.7
-1028.32031,128.41797,99.12109,-0.1075176924435318,0.0692803210591393,-0.1497518678149914,6.9,24.15,37.05,-49.80469,-161.62109,1024.90234,0.0158545709251164,0.0971256530113072,0.0957932686603347,71.55,1.2,88.05,-795.41016,45.89844,613.76953,-0.2246278889889497,-0.0259800985805615,0.059687642424328,56.55,23.7,22.8
-1015.625,119.62891,107.91016,-0.0281118437289474,0.0101255276554451,-0.1268362183350815,5.7,24.15,36.45,-54.6875,-129.88281,1020.01953,0.0823369546603836,0.0688804661275074,0.0783399761403914,69.9,1.05,86.85,-827.14844,32.22656,602.05078,-0.2210305908676643,-0.018385996472209,0.0138559943986577,57.3,24.75,23.1
-1030.27344,142.08984,96.19141,-0.0929953313364626,0.0139893375535101,-0.1444226794769519,6.3,25.05,35.55,-49.31641,-103.02734,1010.25391,0.1156446435725182,0.0522267089379027,0.0787396565390981,69.9,1.05,86.85,-795.89844,52.24609,599.12109,-0.1570796326794896,-0.087532974376496,0.0520933657830503,58.2,23.85,23.7
-1017.08984,143.55469,98.14453,-0.0843353566539172,0.0115910806283447,-0.1314992144976347,5.55,22.95,35.85,-60.54688,-77.14844,1013.18359,0.145621720673072,0.1011224569983742,0.1016554805519333,70.35,1.8,87.15,-797.85156,38.08594,638.67187,-0.1923858981180829,-0.0349065850398865,0.049162259837251,58.05,24.3,23.85
-1026.85547,138.67187,116.69922,-0.0065284040670847,-0.0551578148837019,-0.0883323351739094,5.1,24.6,35.4,-64.45313,-65.91797,1023.92578,0.123238920213796,0.0632847660126884,0.1000565844241813,71.1,2.55,87.6,-803.71094,26.85547,594.72656,-0.1283017713079811,-0.0138559943986577,0.0651499993842947,58.05,24.3,23.85
-1000.48828,138.18359,129.39453,-0.0722112524720134,-0.0600873228230347,-0.0472970264656447,5.1,24.6,35.4,-47.36328,-70.3125,1018.55469,0.0262466103573411,0.078606487917171,0.110981647409965,70.8,1.65,87.45,-794.43359,50.29297,609.375,-0.1534823345582041,-0.004529827540626,0.0229158240128351,58.05,24.3,23.85
-1004.88281,141.60156,135.25391,-0.0492956029921034,-0.0233155044115418,-0.1169770279234907,5.1,24.6,35.4,-33.20313,-100.58594,1004.39453,-0.0025314255470925,0.0539585991546566,0.1161776671260773,71.4,3.0,87.15,-786.62109,40.52734,640.13672,-0.1870567097800435,0.0718115720733066,0.0225161436141284,56.25,24.75,24.15
-995.11719,149.41406,128.90625,-0.0520933657830503,-0.0726111074036452,-0.080871401687484,6.3,25.5,35.55,-52.24609,-140.625,991.69922,-0.0410353087082646,0.1137794102009119,0.1256370026060362,72.15,3.75,87.6,-785.64453,30.76172,591.79687,-0.1454885520511449,0.0317089673173077,-0.0098591904115907,57.0,24.75,23.55
-999.51172,155.76172,128.41797,-0.0748760211739583,-0.0511608363637097,-0.1107151356331855,5.1,23.85,36.75,-31.73828,-153.80859,993.65234,0.034640073263107,0.0642174699649541,0.0763415741468579,71.7,3.75,86.85,-790.52734,26.36719,631.83594,-0.1626753327943086,0.0504946441882235,0.0347734164179594,57.45,24.15,23.25
-971.19141,155.76172,132.32422,-0.1121806886060851,-0.0334410320669869,-0.1638743739904287,6.3,24.0,37.65,-70.3125,-125.97656,1004.39453,0.0527595579585365,0.0519601971611231,0.0319754790940873,71.7,3.75,86.85,-817.87109,21.97266,619.62891,-0.0977916706538682,0.0483628990398376,-0.0262466103573411,57.45,24.9,23.25
-969.23828,166.99219,121.58203,-0.1080505414641657,-0.0530260697353161,-0.0562235129249697,5.4,24.6,37.05,-82.51953,-119.14063,992.67578,0.0378376909856858,0.0787396565390981,0.0406354537766327,71.7,3.75,88.35,-811.03516,14.64844,611.32812,-0.0616860444178615,0.0185191650941362,0.0467641774450108,57.45,24.6,24.0
-954.58984,182.61719,136.71875,-0.1502848913685505,0.0447657754514773,-0.1300336615247351,5.4,24.6,37.05,-69.82422,-105.46875,998.04687,0.0604870032217414,0.0417013263508257,0.0604870032217414,71.55,3.45,86.7,-808.59375,44.92188,646.97266,-0.0385038831611721,0.0218499514386422,-0.0166539317225298,57.9,24.15,22.95
-958.00781,175.78125,125.0,-0.1901209843477699,0.0552909835056291,-0.1923858981180829,5.55,23.25,36.9,-69.82422,-116.21094,1013.67187,0.073676805444913,0.0635512777894679,-0.0158545709251164,71.4,3.0,88.35,-822.75391,27.34375,617.1875,-0.0043966589186989,0.0496952833908101,0.0387702204050264,57.9,24.15,22.95
-940.42969,179.6875,124.51172,-0.1512174207878911,0.0436999028772844,-0.1538820149569108,5.7,25.35,36.75,-79.58984,-96.19141,1014.64844,0.071944915228159,0.034640073263107,0.0115910806283447,71.4,3.0,88.35,-813.47656,57.61719,625.48828,-0.0094593354799588,0.057422728654015,0.0386370517830992,55.5,24.0,22.8
-949.70703,185.05859,105.95703,-0.245411967853399,0.1032542021467601,-0.162275652395602,7.35,24.0,36.3,-63.96484,-83.49609,1018.06641,0.0778071271197576,0.0195850376683291,0.0230489926347623,71.4,3.75,85.8,-794.92187,67.38281,642.57812,-0.0193185258915496,0.0856677410048896,0.0222496318373489,55.5,24.0,22.8
-959.47266,187.5,117.67578,-0.2162342515502586,0.0877993116203503,-0.1488193383956508,4.05,23.4,35.7,-54.19922,-73.24219,1004.39453,0.049162259837251,0.0074609334864253,0.0149218669728507,70.35,3.0,87.15,-803.22266,75.19531,604.98047,0.0347734164179594,0.0984578628293545,-0.0381042027624654,57.15,24.15,24.0
-958.98437,158.69141,122.55859,-0.2693934899075019,0.0512940049856369,-0.1657396073620351,4.05,23.4,35.7,-42.96875,-70.80078,1021.48437,0.0612863640191548,-0.0122572728038309,-0.005595700114819,71.7,2.55,86.1,-792.48047,89.35547,652.83203,-0.0046631706954784,0.077540615342978,0.0086599746825454,57.3,24.75,22.5
-986.32812,152.34375,109.375,-0.2671285761371889,0.0297105653237742,-0.167871352510421,6.15,23.1,36.75,-50.78125,-58.59375,1017.08984,0.0470306892217904,-0.0254472495599277,0.0464976656682313,72.0,2.7,88.5,-791.01562,99.12109,624.02344,0.0007993607974134,0.0900643999235885,0.0262466103573411,56.55,24.3,24.6
-1002.92969,150.87891,96.19141,-0.278852999920386,0.037970859607613,-0.2344869048676153,6.15,23.4,37.05,-65.91797,-57.61719,1019.04297,0.027312482931534,0.0277121633302407,0.0330413516682802,73.2,2.25,87.15,-796.875,116.21094,617.67578,0.0099923590335179,0.0688804661275074,-0.0050628510941851,57.0,24.75,25.2
-976.5625,124.51172,109.375,-0.2491424345966117,0.055823832526263,-0.2255604184082903,5.7,23.85,35.7,-63.96484,-62.5,1012.69531,-0.0249142260063686,-0.0181194846954295,0.0439662401211387,71.4,3.0,87.6,-785.64453,100.58594,638.18359,-0.0684807857288007,0.0992572236267679,0.0572893854991626,58.2,24.6,22.2
-968.75,120.60547,104.00391,-0.2400826049824344,0.0103920394322246,-0.200779535556774,6.9,24.6,36.45,-68.35938,-52.24609,1029.78516,-0.023448673033469,-0.0098591904115907,0.0806048899107045,71.4,3.0,87.6,-796.38672,127.92969,602.05078,-0.040235773377926,0.0830031468358699,0.0325085026476463,59.1,24.75,24.6
-969.72656,135.25391,101.5625,-0.2737901488262009,-0.0455651362488907,-0.2592679622520568,6.9,24.6,36.45,-73.24219,-37.59766,1028.80859,-0.0246477142295891,-0.0406354537766327,0.1123138572280122,70.8,3.15,88.05,-802.73437,121.58203,631.34766,-0.0892648645932499,0.075275701572665,0.037970859607613,59.1,24.75,24.6
-962.89062,127.44141,105.95703,-0.2755222135758801,0.051827028539196,-0.2903109119268036,6.45,23.85,37.8,-44.43359,-48.82813,1016.11328,-0.015055210127703,-0.0354394340605204,0.0834028272345766,71.25,3.9,87.0,-780.27344,114.25781,625.0,-0.0854012292281101,0.0394364125805126,0.0333078634450597,57.6,24.0,23.55
-964.35547,113.28125,102.05078,-0.2667288957384822,0.034640073263107,-0.2964394610622565,4.35,23.85,36.45,-36.62109,-67.87109,1021.97266,-0.0209172474863764,-0.040235773377926,0.0932618431132422,71.25,3.15,87.75,-790.52734,105.95703,606.44531,-0.1140459219776914,0.0278453319521679,0.064750318985588,57.0,25.8,23.55
-989.74609,102.53906,99.12109,-0.2307564381244027,-0.0226493122360556,-0.2383507147656804,6.9,22.65,36.45,-40.03906,-79.58984,1009.27734,0.0881991665519822,-0.0739433172216925,0.0999234158022541,71.25,3.15,87.75,-760.25391,96.19141,616.21094,-0.1389601479840601,0.0887320155726161,0.040235773377926,56.7,24.15,25.05
-995.11719,110.83984,95.21484,-0.279918872494579,-0.0331745202902074,-0.2949739080893568,6.3,22.95,35.85,-43.45703,-53.71094,987.79297,0.063684446411395,-0.059154618870769,0.0991240550048407,72.9,2.55,87.9,-782.22656,63.96484,612.79297,-0.1546815502872494,0.0682144484849463,0.0330413516682802,58.05,24.3,22.5
-1008.78906,103.02734,94.72656,-0.2853812294545456,-0.0337075438437664,-0.267661599690748,6.3,22.95,35.85,-37.10938,-62.5,1007.8125,0.0263797789792682,-0.0530260697353161,0.1498852109698438,70.5,3.9,87.75,-774.90234,65.91797,601.5625,-0.1364287224369675,0.0787396565390981,0.0178529729186499,57.45,26.4,22.65
-990.23437,101.07422,99.60938,-0.2366186500160012,-0.0830031468358699,-0.1738667330239467,5.1,22.35,37.05,167.96875,-46.38672,1006.34766,0.0113245688515652,0.1265697065583019,0.13776110678794,71.4,4.05,88.35,-796.38672,53.22266,616.21094,-0.0688804661275074,0.0528927265804637,0.0782068075184643,57.6,25.5,23.85
-990.23437,104.98047,108.88672,-0.2346202480224677,-0.0349065850398865,-0.185724325429071,5.7,22.65,35.7,-23.92578,-28.32031,1014.64844,-0.0283781809728018,0.052493046181757,0.1075176924435318,71.4,4.05,88.35,-794.43359,39.55078,618.16406,-0.063018428768834,0.0646171503636608,0.0675482563094601,57.6,25.5,23.85
-991.69922,102.53906,108.88672,-0.2556708386636965,-0.0928621627145355,-0.1485528266188713,6.15,23.4,34.65,-88.86719,-38.08594,1042.96875,-0.0623522365933478,-0.0063950609122324,0.0816707624848974,73.2,2.55,87.9,-810.05859,21.48438,604.98047,-0.0341072242424731,0.0448989440734045,0.0407687969314851,57.6,25.5,23.85
-995.11719,87.89063,101.07422,-0.1843921156110237,-0.1155114749505911,-0.1436233186795386,6.6,22.95,36.6,-69.33594,-43.45703,1053.71094,-0.0563568560798221,-0.0772741035661985,0.0822036115055313,71.7,3.3,86.85,-823.24219,24.41406,599.12109,-0.018385996472209,0.0389035635598788,0.0006661921754862,58.8,24.75,23.1
-998.53516,81.54297,104.49219,-0.22702597138119,-0.0483628990398376,-0.1849249646316576,6.6,22.95,36.6,-78.125,-53.71094,1029.78516,-0.0425006871482391,-0.0868667822010097,0.0989908863829135,71.4,2.55,87.9,-831.05469,30.76172,585.9375,-0.0237151848102485,0.0508943245869302,-0.0154548905264097,58.8,24.75,23.1
-1019.04297,74.70703,95.21484,-0.2159679143064043,-0.0330413516682802,-0.1253706653621819,7.2,22.65,37.5,-69.82422,-74.21875,1009.76562,-0.0860674214035963,-0.067015232755901,0.0979250138087206,71.4,2.55,87.9,-829.10156,40.03906,581.54297,0.0138559943986577,0.0848683802074762,-0.0131899767560967,59.4,24.3,23.1
-1028.32031,85.44922,88.86719,-0.1606769308007752,-0.0386370517830992,-0.1337641282679478,5.4,24.15,36.75,-80.07813,-73.73047,1021.48437,-0.0740764858436197,-0.0949939078629213,0.067015232755901,69.9,3.0,86.55,-843.75,49.31641,578.125,-0.0330413516682802,0.0634181091675407,-0.0062618922903052,57.45,24.15,24.75
-1036.62109,91.79688,84.47266,-0.175731966395553,-0.050761155965003,-0.0365053066347134,6.3,23.7,37.95,-104.49219,-68.84766,997.07031,-0.0838025076332833,-0.0744763407752516,0.0923293136939016,70.65,3.3,87.15,-855.95703,44.43359,581.05469,-0.0548913031069224,0.05475795995207,-0.022382800459276,57.6,24.3,23.85
-1041.01563,91.30859,80.07813,-0.2006461924019217,-0.0221164632154217,-0.0628850856139816,6.3,23.7,37.95,-41.99219,-98.14453,1023.4375,-0.1115144964305989,0.0431668793237253,0.0891316959713228,70.65,3.3,87.15,-863.76953,37.59766,570.3125,-0.0191853572696224,-0.0066615726890119,0.0122572728038309,57.3,24.3,24.15
-1061.52344,116.69922,74.70703,-0.1777305429220118,-0.0925956509377559,0.0163874199457503,6.15,23.4,37.5,-153.80859,-67.38281,1013.67187,-0.059687642424328,0.0450321126953316,0.0527595579585365,69.45,2.4,87.75,-867.67578,36.13281,591.30859,0.0169204434993094,0.0013323843509724,-0.0266462907560478,57.3,24.3,23.1
-1038.57422,98.14453,76.66016,-0.1898544725709904,-0.1011224569983742,-0.0073277648644981,6.6,23.25,37.95,-137.20703,-96.67969,1023.92578,-0.177330862523305,0.0219831200605693,0.0564900247017492,69.9,1.5,85.8,-873.04687,33.20313,584.96094,0.0333078634450597,-0.0263797789792682,-0.0105252080541518,57.15,24.9,24.3
-1017.08984,102.53906,79.58984,-0.2396829245837277,-0.0157212277702641,-0.0666155523571943,6.15,23.4,36.75,-136.23047,-94.23828,1028.32031,-0.1386936362072806,-0.0386370517830992,0.0977916706538682,70.35,3.0,88.65,-855.46875,45.41016,597.16797,-0.0515605167624164,0.0153215473715574,0.007860613885132,57.15,24.9,24.3
-998.04687,122.55859,91.79688,-0.1672051603349347,-0.0683476171068735,0.0041301471419193,6.6,22.95,37.65,-106.93359,-105.95703,997.55859,-0.0896645449919567,-0.0527595579585365,0.0544916227082157,70.35,3.0,88.65,-865.23437,55.66406,570.80078,-0.0089264864593249,-0.036238969390859,-0.051827028539196,57.15,25.35,22.95
-975.58594,113.76953,100.58594,-0.174000076178799,-0.0211837592631559,0.0173201238980161,6.6,22.95,37.65,-95.70313,-115.23438,995.11719,-0.1237717692344298,-0.059154618870769,0.0460979852695246,70.5,2.7,88.5,-859.86328,56.15234,581.54297,-0.0106585512090041,-0.0158545709251164,-0.0097258472567384,57.3,25.05,23.1
-966.79687,96.67969,107.91016,-0.2223629752186367,0.0676814249313873,-0.0675482563094601,5.7,22.35,37.5,-73.24219,-121.58203,989.25781,-0.0523598775598298,-0.0688804661275074,0.023448673033469,70.8,2.4,88.05,-836.91406,73.24219,592.77344,-0.0262466103573411,0.0059953805135257,0.0071944217096458,57.45,23.4,23.7
-978.02734,92.28516,102.53906,-0.1520167815853045,0.0474303696204971,-0.0067947413109391,6.3,24.0,37.65,-80.07813,-135.25391,987.79297,-0.0202512298438154,-0.0287778613715085,-0.011191400229638,70.8,1.65,87.45,-839.84375,55.66406,582.03125,0.0566231933236764,0.0037304667432126,0.0666155523571943,57.45,25.35,23.7
-987.30469,91.30859,86.91406,-0.1385604675853534,0.03064326927604,0.0202512298438154,7.2,24.9,36.75,-87.40234,-113.28125,1002.92969,-0.0442327518979182,-0.0612863640191548,0.0101255276554451,71.4,3.75,87.15,-817.38281,53.71094,585.9375,0.0007993607974134,-0.0125237845806105,0.0347734164179594,57.15,24.15,23.7
-1002.92969,98.14453,76.66016,-0.171202138854927,0.0766079113907123,-0.0454317930940384,6.45,23.85,37.5,-94.72656,-106.93359,1002.92969,0.0130566336012443,-0.0211837592631559,-0.0002665117767795,70.65,2.25,88.35,-830.07812,69.33594,567.87109,0.0081271256619115,-0.0263797789792682,-0.0157212277702641,58.2,24.9,24.0
-1007.32422,106.44531,71.28906,-0.1441561677001724,0.0483628990398376,-0.0263797789792682,6.45,23.85,37.5,-124.51172,-99.60938,1021.48437,0.0027979373238721,-0.032908183046353,-0.0161209081689708,70.35,3.0,86.85,-835.44922,50.78125,570.3125,0.0189188454928429,-0.0077274452632048,0.0448989440734045,58.2,24.9,24.0
-1003.90625,105.95703,68.35938,-0.0900643999235885,0.0254472495599277,0.0119907610270514,6.45,23.85,37.5,-109.86328,-88.37891,1005.85937,-0.0373046674321268,-0.0318423104721601,-0.0495619402359577,70.35,3.0,86.85,-832.03125,63.47656,583.49609,0.0345069046411798,-0.0454317930940384,0.015055210127703,57.0,25.8,24.15
-1005.85937,105.46875,75.68359,-0.1437564873014657,0.0118575924051242,-0.0771409349442713,7.5,24.15,38.55,-108.88672,-88.86719,986.81641,-0.0528927265804637,-0.0293108849250675,-0.0119907610270514,70.65,2.55,88.35,-818.84766,72.26563,560.05859,-0.0205175670876697,-0.0037304667432126,-0.0161209081689708,57.0,25.8,24.15
-1002.44141,106.44531,65.42969,-0.0971256530113072,0.0121241041819038,-0.0129234649793172,6.45,23.1,38.1,-86.42578,-98.63281,992.67578,-0.0321086477160144,-0.0123904414257581,-0.05475795995207,70.5,3.15,87.45,-817.38281,83.00781,571.77734,0.0434333911005048,-0.0546247913301429,0.0310429496747467,57.45,23.4,24.75
-1010.74219,113.76953,67.87109,-0.123238920213796,0.0058622118915985,-0.0345069046411798,6.0,24.3,37.35,-88.37891,-97.65625,979.98047,-0.0121241041819038,-0.0327748398915007,-0.0754088701945922,71.4,3.0,87.9,-807.12891,86.91406,614.74609,0.0522267089379027,-0.0560903443030425,-0.0127901218244648,57.15,24.9,24.3
-990.23437,104.49219,75.19531,-0.1320322380511938,-0.0074609334864253,-0.0532925815120956,6.6,23.25,36.9,-59.08203,-89.84375,985.35156,0.0250473946282958,-0.0074609334864253,-0.0877993116203503,71.4,3.0,87.9,-807.61719,76.17188,619.14062,0.0552909835056291,-0.0415681577288985,-0.0151883787496302,56.7,24.9,22.65
-994.62891,120.60547,83.98438,-0.0996569040254746,-0.0214502710399355,-0.0921959705390492,6.6,23.25,36.9,-40.03906,-88.37891,1047.85156,0.0667488955120467,-0.0215834396618626,-0.1212403436873373,71.55,4.2,88.05,-796.875,66.40625,650.39062,0.0935283548900217,-0.0033307863445059,0.0165205885676775,55.5,24.75,23.55
-968.26172,122.07031,93.75,-0.0847350370526239,-0.0447657754514773,-0.0409019655534123,7.05,23.25,37.65,-38.08594,-79.10156,1053.71094,0.0944608843093623,-0.0651499993842947,-0.0909969293429291,70.2,2.7,86.25,-779.78516,61.52344,604.98047,0.2827166352855259,0.041834669505678,-0.0302434143444081,57.6,27.0,23.85
-937.98828,145.01953,87.89063,-0.1526829737607907,-0.0369049870334201,-0.0298437339457014,7.5,24.9,38.1,-11.71875,-62.01172,1094.23828,0.0635512777894679,-0.0659495347146333,-0.0811377389313384,70.2,2.7,86.25,-776.36719,91.30859,587.89062,0.4042236652825678,-0.015055210127703,-0.0506278128101507,57.9,24.6,23.25
-964.84375,141.11328,74.70703,-0.1380276185647195,-0.0492956029921034,-0.0143890179522168,5.25,24.75,37.95,-32.71484,-58.10547,1060.05859,-0.0527595579585365,-0.0389035635598788,-0.0310429496747467,70.8,3.9,87.75,-786.62109,75.19531,553.22266,0.3710489704594353,-0.0759418937481512,-0.0615528757959344,57.9,24.6,23.25
-1026.36719,153.32031,70.80078,-0.0862005900255235,-0.1332312792473139,0.0407687969314851,6.9,24.9,37.05,-40.52734,-57.12891,1053.22266,-0.0858009096268168,-0.1031210335248329,-0.0957932686603347,70.65,1.5,87.15,-795.41016,48.82813,556.64062,0.3526631485201514,-0.0082602942838387,-0.0371714988101996,57.9,24.6,23.25
-1050.29297,145.01953,61.52344,-0.1277687477544221,-0.1981147668548291,0.0230489926347623,6.9,24.9,37.05,-66.40625,-23.4375,979.98047,-0.1141790905996186,-0.0566231933236764,-0.0731439564242791,70.5,2.4,87.75,-798.82812,65.42969,563.96484,0.3208208380479913,0.0077274452632048,-0.0610198522423753,58.35,25.5,24.6
-1066.89453,122.07031,59.57031,-0.1484196579969441,-0.2536722621372378,-0.0301102457224809,6.9,22.65,37.5,-66.89453,-45.89844,984.86328,-0.1314992144976347,-0.0269126279999021,-0.036238969390859,70.5,2.4,87.75,-812.5,84.96094,608.88672,0.3294808127305367,0.0715452348294523,-0.0444992636746978,58.05,25.05,24.15
-1062.01172,118.16406,76.66016,-0.0913966097416358,-0.3465344248517733,-0.0262466103573411,7.05,24.3,36.6,-66.89453,-41.99219,989.25781,-0.1412250617543731,-0.0170536121212365,-0.0471638578437175,70.35,1.8,87.9,-819.82422,81.54297,585.44922,0.2399494363605072,0.0748760211739583,-0.0856677410048896,57.6,24.75,23.85
-1062.5,106.44531,125.97656,-0.0444992636746978,-0.3229525831963771,-0.0980581824306478,6.6,23.7,39.0,-50.78125,-74.70703,999.51172,-0.1348300008421407,-0.0221164632154217,-0.0503614755662963,69.9,3.0,87.9,-843.26172,101.5625,597.65625,0.1453552088962925,0.069680001457846,-0.0993905667816202,57.6,25.5,23.55
-1027.34375,95.21484,136.23047,-0.0666155523571943,-0.2891118707306834,-0.1454885520511449,6.0,23.7,37.95,-54.6875,-91.79688,1037.10938,-0.1097826062138449,-0.0466310088230837,-0.0482297304179105,70.8,0.9,87.75,-849.60937,113.28125,618.65234,0.0800720408900706,0.0706125308771865,-0.0251807377831481,57.15,24.6,22.95
-1017.57812,110.83984,161.62109,-0.0237151848102485,-0.3718483312568487,-0.1570796326794896,6.0,23.7,37.95,-53.71094,-115.23438,1002.92969,-0.1779968801658661,-0.0532925815120956,-0.0193185258915496,70.8,0.9,87.75,-863.28125,117.1875,611.32812,0.0455651362488907,0.1111148160318922,-0.0991240550048407,57.0,25.05,23.55
-988.28125,83.00781,202.63672,-0.016787100344457,-0.3013691435345145,-0.2078407886444927,7.5,23.4,38.1,-77.14844,-105.95703,1001.95312,-0.1634746935917221,-0.0317089673173077,0.0277121633302407,70.35,2.55,87.9,-853.02734,128.90625,627.44141,-0.0269126279999021,0.1121806886060851,-0.1181760691196108,57.0,25.05,23.55
-958.00781,98.63281,202.63672,-0.0510274932088574,-0.2574027288804505,-0.2885788471771244,7.5,23.4,39.6,-70.80078,-109.86328,1028.80859,-0.1397595087814735,-0.0253139064050753,0.0211837592631559,70.5,0.45,87.0,-833.98437,131.34766,606.93359,-0.0249142260063686,0.1304333419234418,-0.0949939078629213,57.6,24.75,23.1
-960.44922,81.05469,204.58984,-0.0674150876875329,-0.152283293362084,-0.2673950879139684,7.5,24.9,37.5,-88.37891,-107.42188,1041.99219,-0.0913966097416358,-0.0337075438437664,-0.0170536121212365,70.35,1.5,86.1,-834.47266,121.58203,575.68359,-0.0464976656682313,0.0960597804371143,-0.0455651362488907,57.6,24.75,23.1
-987.30469,83.98438,198.24219,-0.0251807377831481,-0.0830031468358699,-0.2422143501308202,8.4,24.3,37.35,-72.26563,-96.19141,1024.41406,-0.0979250138087206,-0.0107917198309313,-0.0051960197161123,70.35,1.5,86.1,-815.42969,107.91016,577.14844,-0.0590214502488418,0.0548913031069224,-0.0740764858436197,58.2,24.9,22.65
-1025.87891,80.56641,187.98828,-0.1388269793621329,0.0142556747973644,-0.2428805423063064,8.4,24.3,37.35,-70.3125,-83.00781,1015.13672,-0.0606201718436686,-0.0075941021083525,-0.0159877395470436,70.8,1.65,87.45,-814.94141,77.14844,574.70703,-0.0425006871482391,0.0166539317225298,-0.086467101802303,56.7,23.85,22.65
-1054.19922,93.75,181.15234,-0.113246561180278,-0.0090596550812521,-0.2295573969282826,7.65,25.5,37.95,-74.70703,-69.33594,1000.97656,-0.0438330714992115,0.0398360929792193,-0.0153215473715574,71.1,2.55,86.85,-803.22266,38.57422,582.03125,-0.0988575432280612,0.0298437339457014,-0.0090596550812521,58.95,23.85,23.25
-1054.6875,100.58594,181.64062,-0.1105819670112583,0.0010658725741929,-0.1617428033749681,6.9,24.15,38.85,-73.73047,-82.51953,1009.76562,-0.1027213531261262,0.064750318985588,-0.0030642745677264,70.65,0.75,89.4,-820.80078,37.10938,584.47266,-0.0911300979648563,0.0526263893366094,-0.1334976164911682,56.7,23.85,22.65
-1038.08594,113.76953,179.19922,-0.2059755552728863,0.0293108849250675,-0.1308330223221485,6.6,24.75,37.65,-70.80078,-100.58594,993.16406,-0.1027213531261262,0.0214502710399355,-0.0508943245869302,70.65,0.75,89.4,-826.17187,37.59766,575.19531,-0.1009892883764471,0.0218499514386422,-0.0712787230526728,56.7,23.85,22.65
-1020.50781,73.24219,180.66406,-0.2159679143064043,0.0919296332951949,-0.1657396073620351,6.6,24.75,37.65,-58.10547,-112.79297,985.35156,-0.1257703457608885,0.0571562168772355,-0.0594211306475485,70.65,0.0,88.65,-836.42578,27.83203,583.49609,-0.1609432680446295,0.0173201238980161,-0.1091164140383586,57.0,24.75,22.5
-989.25781,74.70703,187.01172,-0.1721348428071927,0.0474303696204971,-0.1065849884912661,6.45,21.9,38.1,-71.77734,-121.09375,990.72266,-0.1743997565775057,0.0439662401211387,-0.0405022851547056,70.35,2.25,87.9,-828.125,49.80469,591.79687,-0.1093829258151382,0.0361056262360067,-0.0624854052152749,57.0,24.75,22.5
-977.53906,56.15234,169.92187,-0.1943843001116164,0.1256370026060362,-0.1530826541594974,7.95,23.85,38.1,-68.35938,-117.1875,990.23437,-0.181327666510372,0.0488959225933967,-0.0333078634450597,70.35,2.25,87.9,-829.10156,55.17578,597.65625,-0.1140459219776914,-0.0130566336012443,-0.0722112524720134,57.6,23.7,23.85
-961.91406,33.20313,182.61719,-0.1973154060574157,0.1716018192536337,-0.201845408130967,7.35,22.5,38.4,-59.08203,-134.27734,993.65234,-0.1350965126189202,0.0956601000384076,-0.0138559943986577,71.4,0.0,87.15,-836.42578,62.5,608.39844,-0.094860564708069,0.0534257501340228,-0.0812710820861907,57.6,24.3,22.05
-974.60937,25.39063,176.75781,-0.1039203943222463,0.1766646703478188,-0.1267028751802291,7.5,23.4,38.1,-38.08594,-150.39062,1014.64844,-0.0912634411197086,0.0921959705390492,-0.0351730968166661,71.1,0.3,87.6,-804.19922,57.12891,620.60547,-0.0856677410048896,-0.0063950609122324,-0.1293674693492489,58.05,25.05,23.1
-963.86719,32.22656,165.52734,-0.1389601479840601,0.2535390935153107,-0.1564134405040034,7.5,23.4,38.1,-32.22656,-142.57812,995.60547,-0.0907304175661496,0.060753514998521,-0.0803383781339249,70.8,1.2,87.0,-794.92187,50.78125,619.14062,-0.1187090926731699,0.0125237845806105,-0.0598208110462552,57.0,24.0,23.85
-968.75,39.0625,171.875,-0.1151117945518844,0.20411032190128,-0.1866570293813367,7.5,24.15,39.15,-16.11328,-137.20703,1004.39453,-0.0398360929792193,0.0570230482553083,-0.0374380105869791,70.8,1.2,87.0,-781.73828,79.10156,616.69922,-0.105385947295146,0.0455651362488907,-0.123238920213796,58.95,23.4,22.65
-968.75,47.85156,163.57422,-0.0305099261211876,0.1798621135374724,-0.146687593247265,7.35,22.95,38.7,0.0,-135.74219,1007.32422,-0.0616860444178615,0.0575558972759422,-0.0033307863445059,71.1,1.05,87.15,-774.90234,62.01172,630.37109,-0.0584886012282079,0.0774072721881257,-0.0802052095119978,56.55,24.3,22.05
-990.72266,58.10547,146.48437,-0.134430320443434,0.2471440326030782,-0.1853246450303643,7.65,22.95,37.35,7.8125,-129.39453,993.65234,-0.0297105653237742,0.0219831200605693,-0.0411684773301918,71.25,0.15,87.0,-772.46094,46.875,614.25781,-0.0297105653237742,0.0464976656682313,-0.1097826062138449,56.55,24.3,22.05
-1000.48828,42.96875,150.87891,-0.1161776671260773,0.1866570293813367,-0.1793292645168386,7.5,23.4,38.85,-0.48828,-147.46094,1004.39453,-0.0936615235119489,0.036238969390859,-0.0462311538914518,71.1,1.5,87.6,-763.67187,42.96875,609.86328,-0.0057288687367461,0.045165455850184,-0.0957932686603347,56.55,24.3,22.05
-981.93359,28.80859,143.06641,-0.1316323831195619,0.1009892883764471,-0.1237717692344298,7.5,23.4,38.85,-10.25391,-145.99609,983.39844,-0.0682144484849463,0.0343737360192527,-0.041301645952119,70.65,0.3,86.1,-771.97266,31.25,607.91016,0.036238969390859,0.0836691644784309,-0.1276355791324949,57.9,23.85,23.25
-1005.37109,41.01563,142.57812,-0.1017886491738605,0.0883323351739094,-0.1023216727274195,6.15,23.4,37.8,-2.92969,-165.03906,1001.95312,-0.0771409349442713,0.1024548413493467,-0.0671485759107534,69.6,1.5,86.55,-781.25,23.92578,606.44531,0.0334410320669869,0.118842261295097,-0.0727442760255724,57.9,23.85,23.25
-1003.90625,15.625,126.46484,-0.165073589719474,0.1402925323350325,-0.1738667330239467,6.45,23.4,38.85,-1.95312,-183.59375,998.04687,-0.1362955538150403,0.0888651841945432,-0.0409019655534123,71.1,0.3,86.55,-798.33984,14.64844,639.64844,0.0450321126953316,0.1167105161467112,-0.0726111074036452,57.6,23.25,22.5
-985.35156,25.39063,137.20703,-0.1404257009569597,0.0766079113907123,-0.1244379614099161,7.05,23.25,37.65,-40.52734,-184.57031,996.09375,-0.0668820641339739,0.0619525561946411,-0.0867336135790826,71.1,0.3,86.55,-802.73437,11.23047,613.76953,0.0374380105869791,0.1572128013014168,-0.1289677889505422,57.45,24.15,22.2
-986.32812,9.76562,124.02344,-0.1673385034897871,0.0957932686603347,-0.0956601000384076,6.45,22.35,39.15,-50.78125,-204.58984,1010.25391,-0.054091942309509,0.0831363154577971,-0.0834028272345766,71.25,0.9,87.0,-829.10156,19.04297,603.51562,0.0804717212887773,0.1346968322202135,-0.0726111074036452,57.0,24.3,22.8
-964.84375,11.71875,123.53516,-0.1524164619840112,0.1512174207878911,-0.1133797298022052,6.45,22.35,39.15,-78.61328,-166.99219,1000.97656,0.0261132672024887,0.0688804661275074,-0.1261700261595952,71.55,1.65,87.45,-830.07812,27.34375,617.67578,0.1103154552344788,0.1325650870718277,-0.1000565844241813,56.25,23.25,22.8
-961.91406,11.71875,120.60547,-0.1028545217480534,0.1071178375118999,-0.0528927265804637,6.45,22.35,39.15,-80.07813,-125.97656,1008.30078,0.0760750623700784,0.0464976656682313,-0.1517504443414501,70.65,0.75,86.85,-839.84375,47.85156,570.80078,0.1243047927879889,0.0651499993842947,-0.1068515002680456,56.25,23.25,22.8
-974.12109,2.92969,94.23828,-0.0888651841945432,0.1414915735311527,-0.0795390173365115,7.65,22.95,38.7,-103.02734,-80.56641,1027.83203,0.074209828998472,0.0995237354035474,-0.0904640803222952,70.65,0.75,86.85,-845.21484,72.75391,562.01172,0.1293674693492489,0.0287778613715085,-0.1454885520511449,57.45,23.1,22.95
-966.79687,6.83594,90.33203,-0.1137794102009119,0.2134364887593117,-0.0711455544307456,7.95,23.1,37.5,-113.28125,-34.66797,1027.34375,0.0354394340605204,-0.0229158240128351,-0.1035207139235396,70.65,1.8,88.35,-854.00391,97.65625,573.73047,0.0799386977352182,0.0121241041819038,-0.1253706653621819,57.45,23.1,22.95
-1000.48828,19.04297,70.80078,-0.0615528757959344,0.1414915735311527,0.0178529729186499,6.6,22.95,37.95,-121.58203,-58.10547,1013.67187,0.034640073263107,-0.0190520141147701,-0.1425574461053456,70.65,0.0,86.1,-864.74609,128.41797,578.61328,0.0286446927495813,0.0646171503636608,-0.1405590441118121,58.35,24.3,23.1
-1015.625,12.20703,59.57031,-0.0754088701945922,0.2009127041787012,0.0062618922903052,6.9,22.65,37.8,-116.69922,-114.74609,1001.95312,-0.0822036115055313,-0.0042633157638465,-0.0550244717288496,70.65,0.0,86.1,-856.93359,141.11328,583.00781,-0.0450321126953316,0.0399694361340717,-0.177330862523305,58.2,23.85,22.95
-999.02344,1.95312,55.66406,-0.1350965126189202,0.2255604184082903,-0.0330413516682802,6.9,22.65,37.8,-127.92969,-130.37109,1019.04297,-0.0679479367081668,-0.0322419908708668,-0.0592879620256213,70.65,1.5,87.9,-857.91016,123.04688,595.21484,-0.0691469779042869,0.0858009096268168,-0.1424242774834185,58.8,22.95,22.5
-994.14062,-12.69531,64.45313,-0.0901975685455157,0.1733338840033128,-0.0431668793237253,7.5,23.4,38.1,-104.00391,-136.71875,1013.67187,-0.1097826062138449,-0.0378376909856858,0.0002665117767795,70.8,1.2,86.7,-838.37891,101.5625,563.96484,-0.0936615235119489,0.061419532641082,-0.0751423584178126,57.15,23.4,22.2
-986.32812,-14.64844,52.73438,-0.0957932686603347,0.1346968322202135,-0.0193185258915496,7.35,24.0,37.35,-92.28516,-164.0625,1016.11328,-0.1560137601052967,0.0001331686219271,-0.0110582316077108,71.1,0.3,87.6,-842.28516,80.07813,559.08203,-0.1235054319905755,0.051827028539196,-0.1156446435725182,57.6,22.95,22.5
-1012.69531,-10.25391,53.71094,-0.0802052095119978,0.1660061191388146,-0.0672817445326806,6.9,22.35,37.8,-101.07422,-178.71094,1016.60156,-0.1095160944370653,-0.0177198042967228,-0.0125237845806105,71.1,0.3,87.6,-855.95703,67.87109,567.38281,-0.0936615235119489,0.0137228257767306,-0.1097826062138449,56.7,21.9,22.65
-996.58203,-6.83594,39.55078,-0.0394364125805126,0.1614762915981885,-0.050228132411444,6.9,23.1,37.5,-107.42188,-173.82812,1008.30078,-0.0787396565390981,0.0203843984657425,0.0186523337160634,70.65,-1.05,86.55,-860.35156,69.82422,565.42969,-0.0973919902551615,0.0130566336012443,-0.0422343499043847,56.7,21.9,22.65
-1009.27734,20.99609,32.71484,-0.0576890658978693,0.1084502218628724,-0.0266462907560478,6.9,23.1,37.5,-118.16406,-165.03906,1006.34766,0.0093261668580317,0.0137228257767306,-0.0763415741468579,71.1,-36.9,86.55,-821.28906,73.73047,549.31641,-0.0856677410048896,0.0019984019935335,-0.0345069046411798,57.6,24.0,22.5
-1037.10938,4.39453,37.10938,-0.0881991665519822,0.1721348428071927,-0.0463644970463041,7.05,24.0,37.35,-101.07422,-148.4375,987.30469,0.0082602942838387,-0.0058622118915985,-0.0389035635598788,69.75,0.9,87.6,-825.19531,83.00781,554.6875,-0.1104486238564059,0.0498284520127373,-0.034640073263107,58.35,22.5,23.85
-1032.71484,11.71875,44.43359,-0.0718115720733066,0.1414915735311527,-0.0734104682010586,6.9,24.15,38.1,-79.58984,-133.30078,1000.0,0.059154618870769,0.0023980823922402,-0.0419678381276052,69.75,0.9,87.75,-812.01172,86.91406,555.66406,-0.1113813278086717,0.0357059458372999,-0.0089264864593249,57.3,23.25,22.5
-1022.46094,7.8125,44.92188,-0.0373046674321268,0.0349065850398865,-0.0214502710399355,5.7,23.1,36.45,-91.79688,-120.11719,1003.41797,0.069680001457846,0.0211837592631559,-0.0115910806283447,71.4,0.75,88.65,-830.07812,74.70703,566.89453,-0.128834620328615,0.0115910806283447,-0.013456313999951,57.0,22.95,22.8
-1012.69531,12.20703,65.42969,-0.0783399761403914,0.0326416712695735,-0.0314426300734534,7.65,23.7,37.65,-90.82031,-114.74609,1010.25391,0.0788728251610253,0.0121241041819038,-0.0487625794385443,70.35,0.75,87.6,-828.125,65.42969,577.63672,-0.1324319184499005,0.0009327039522657,0.0367718184114929,58.05,22.2,22.05
-996.09375,-15.625,61.03516,-0.0985910314512816,0.0085268060606182,-0.054091942309509,7.65,23.7,37.65,-63.47656,-106.93359,1015.13672,0.0401026047559989,0.0265129476011954,0.0038636353651398,71.7,1.5,87.6,-835.44922,52.73438,565.42969,-0.1474869540446784,0.0265129476011954,-0.0071944217096458,57.15,23.1,23.25
-1002.44141,11.23047,67.87109,-0.0355727772153728,-0.0576890658978693,-0.0007993607974134,7.05,22.5,38.4,-80.56641,-115.72266,1004.88281,0.0415681577288985,0.041834669505678,0.0852680606061829,71.7,1.5,87.6,-826.66016,35.64453,572.75391,-0.1440229990782452,-0.0113245688515652,-0.0075941021083525,57.15,23.1,23.25
-997.55859,4.88281,81.05469,-0.0965926294577481,-0.0089264864593249,-0.0019984019935335,6.15,23.4,37.8,-62.5,-126.95313,1015.13672,-0.0475635382424242,0.0214502710399355,0.1064518198693389,71.55,-0.15,87.45,-829.10156,18.06641,568.84766,-0.1393598283827668,0.0488959225933967,0.0478300500192038,57.15,23.1,23.25
-997.55859,-3.90625,75.19531,-0.0535589187559499,-0.0086599746825454,-0.0178529729186499,7.05,23.25,36.6,-86.91406,-129.39453,1003.90625,-0.0639509581881746,0.0038636353651398,0.0880658233971298,71.25,0.45,88.05,-834.47266,33.69141,560.54687,-0.1308330223221485,0.0806048899107045,-0.0375711792089063,58.05,23.7,22.8
-1015.625,-14.64844,68.35938,-0.0181194846954295,-0.0070612530877186,-0.0079939570399844,6.6,22.95,37.35,-67.87109,-157.71484,1004.39453,-0.0155880591483369,0.0154548905264097,0.0976585020319411,70.5,-0.15,85.95,-826.66016,26.85547,566.89453,-0.1598775700033617,0.0394364125805126,-0.0075941021083525,58.05,23.7,22.8
-1025.39063,-4.39453,73.24219,-0.0779402957416847,-0.006128723668378,-0.0110582316077108,6.6,22.95,37.35,-83.00781,-163.08594,1004.39453,-0.0242480338308824,-0.0031976177225788,0.1145789455312505,70.5,-0.15,85.95,-819.82422,13.67187,547.85156,-0.1412250617543731,0.0434333911005048,0.0089264864593249,58.05,24.0,24.15
-1031.73828,-17.57813,80.07813,-0.0483628990398376,-0.0363721380127862,-0.0229158240128351,7.65,23.7,36.3,-84.47266,-169.43359,988.28125,0.0175864611418704,0.0498284520127373,0.1658729505168874,72.0,1.2,88.05,-833.98437,22.46094,556.64062,-0.114312433754471,0.0301102457224809,0.0203843984657425,57.0,23.25,22.5
-1038.57422,-7.8125,76.66016,0.0062618922903052,-0.1173767083221974,0.0483628990398376,5.55,23.25,37.65,-99.12109,-152.34375,999.02344,-0.0105252080541518,0.0446324322966249,0.0967257980796753,69.6,1.05,88.65,-825.19531,34.17969,578.125,-0.1047197551196597,0.0406354537766327,0.0213169278850831,58.35,23.7,23.55
-1031.25,-1.95312,88.37891,-0.0325085026476463,-0.0903307371674429,0.0021317451483858,7.95,23.4,37.5,-99.60938,-149.41406,1001.46484,0.0351730968166661,0.0460979852695246,0.079272505559732,69.6,1.05,88.65,-847.16797,35.15625,563.47656,-0.0899310567687362,0.0263797789792682,0.0185191650941362,58.95,23.4,22.2
-1016.60156,4.88281,100.58594,-0.0393032439585855,-0.0727442760255724,-0.0146553551960711,5.55,23.7,37.35,-93.26172,-154.29687,998.04687,0.0822036115055313,0.0619525561946411,0.0814042507081179,71.25,-1.95,87.0,-822.75391,35.15625,551.75781,-0.1060521394706322,0.0314426300734534,0.0417013263508257,58.05,22.5,22.05
-1001.46484,5.85937,105.46875,-0.004529827540626,-0.1661392877607418,0.0590214502488418,5.55,23.7,37.35,-76.17188,-151.36719,1002.44141,0.0526263893366094,0.0478300500192038,0.0460979852695246,70.8,0.15,87.45,-836.91406,47.36328,564.45312,-0.1825268822394173,0.064750318985588,0.0299770771005538,57.9,21.9,21.9
-989.74609,-6.83594,97.65625,-0.0090596550812521,-0.0599539796681824,0.0051960197161123,7.2,21.9,36.45,-77.63672,-144.53125,989.25781,0.0425006871482391,0.0434333911005048,0.0925956509377559,70.35,0.75,86.55,-824.21875,44.43359,545.41016,-0.1376279381660128,0.0097258472567384,0.0600873228230347,57.9,21.9,21.9
-996.09375,-6.34766,113.28125,-0.027312482931534,0.0077274452632048,0.0339738810876208,6.9,23.85,37.05,-83.00781,-132.8125,972.65625,0.0358392889921523,0.0738101485997654,0.145621720673072,70.35,0.75,86.55,-844.23828,50.78125,554.6875,-0.1253706653621819,0.0515605167624164,-0.0066615726890119,56.7,21.9,22.95
-989.74609,-3.41797,101.07422,0.0106585512090041,-0.023448673033469,0.0499617951675896,7.35,21.75,39.0,-72.26563,-146.97266,991.69922,0.0319754790940873,0.0171867807431637,0.1077840296873862,72.0,0.45,86.25,-828.61328,50.29297,569.33594,-0.1426906147272728,0.0419678381276052,0.0014655529728996,57.45,23.85,22.2
-1013.18359,-1.95312,102.05078,0.0034639549664331,-0.0285115241276541,0.0327748398915007,7.35,21.75,39.0,-107.91016,-159.66797,997.55859,0.0373046674321268,0.0215834396618626,0.1191087730718766,71.4,0.75,87.6,-855.46875,41.99219,540.03906,-0.1445558480988791,0.0520933657830503,0.0638177895662474,57.9,21.9,24.3
-1005.85937,23.4375,116.21094,0.0015987215948268,0.0262466103573411,0.0666155523571943,6.6,22.95,37.35,-108.39844,-145.01953,1015.625,0.061419532641082,-0.0013323843509724,0.1316323831195619,69.0,0.45,87.75,-847.16797,38.08594,574.21875,-0.2338208872250543,0.0632847660126884,0.08420218803199,57.6,22.95,23.1
-1017.08984,15.625,102.53906,-0.0021317451483858,-0.0098591904115907,0.0531592383572432,7.35,23.25,37.95,-124.02344,-153.32031,1020.50781,0.0409019655534123,0.0333078634450597,0.1269693869570086,70.5,0.9,87.45,-848.14453,53.22266,550.29297,-0.2059755552728863,-0.0062618922903052,0.0322419908708668,57.15,23.4,22.65
-1020.99609,17.57813,99.12109,0.0534257501340228,0.0405022851547056,0.0748760211739583,7.05,23.25,36.9,-104.49219,-145.99609,1008.78906,0.0698131700797731,0.0278453319521679,0.1564134405040034,70.2,0.45,89.55,-832.51953,39.0625,553.71094,-0.227558994934749,0.0839356762552105,0.0679479367081668,58.35,22.5,22.8
-1029.29688,27.34375,106.93359,-0.0472970264656447,0.060753514998521,0.0345069046411798,6.6,24.0,37.95,-77.63672,-144.04297,1027.34375,0.1005896079777403,0.0515605167624164,0.093128674491315,70.65,-0.75,87.9,-822.75391,40.52734,586.91406,-0.2612665387785156,0.0343737360192527,0.0590214502488418,58.35,22.5,22.8
-1038.08594,46.875,107.91016,-0.0327748398915007,0.0007993607974134,0.0996569040254746,6.6,24.0,37.95,-73.24219,-120.60547,1000.97656,0.0818039311068246,0.1029876903699806,0.1337641282679478,70.65,-0.75,87.9,-829.10156,33.20313,550.78125,-0.2327550146508613,0.0748760211739583,0.0476967068643514,57.15,21.9,24.0
-1040.52734,29.29688,111.81641,-0.0243813769857347,0.0409019655534123,0.0210505906412288,6.15,23.85,37.5,-58.59375,-137.20703,1009.76562,0.0795390173365115,0.0758085505932989,0.1763981585710393,70.8,0.15,87.75,-836.91406,4.88281,573.73047,-0.2199647182934713,0.1047197551196597,0.0688804661275074,57.15,21.9,24.0
-1032.22656,34.66797,94.23828,-0.1147121141531777,0.0454317930940384,-0.0047963393174056,8.1,23.25,37.95,-61.52344,-167.48047,1010.25391,0.0526263893366094,0.0664823837352672,0.1414915735311527,70.35,1.05,88.35,-849.60937,0.97656,612.30469,-0.2179663162999378,0.0488959225933967,0.0790061683158777,57.6,22.2,23.1
-1020.01953,35.64453,102.53906,-0.0452986244721112,0.0163874199457503,0.1204409828899239,7.05,22.2,39.0,-80.07813,-149.90234,1030.27344,0.0534257501340228,0.1169770279234907,0.1617428033749681,71.4,1.05,87.9,-854.00391,-5.85937,572.26562,-0.1818606900639311,0.0438330714992115,0.05475795995207,56.4,23.4,23.7
-1011.23047,38.57422,100.58594,-0.0359724576140795,0.0018652333716063,0.0516936853843436,6.6,24.0,37.35,-96.67969,-163.57422,1010.25391,0.091529778363563,0.1091164140383586,0.148952507017578,71.4,1.05,87.9,-857.42187,6.34766,612.79297,-0.1606769308007752,0.0726111074036452,0.1220398790176759,56.25,23.25,24.15
-1030.27344,42.48047,104.98047,-0.1047197551196597,0.0133231453780239,0.0439662401211387,6.6,24.0,37.35,-100.09766,-167.48047,1032.71484,0.041301645952119,0.0640843013430269,0.1653399269633284,72.15,0.75,87.9,-846.67969,6.34766,588.86719,-0.2099723592599534,0.0925956509377559,0.0572893854991626,57.6,24.0,23.55
-1023.92578,44.43359,104.49219,-0.0925956509377559,-0.0159877395470436,0.06634921511334,6.6,24.0,37.35,-105.46875,-157.22656,1038.08594,0.0109248884528585,0.0951270764848485,0.1155114749505911,70.8,0.9,86.25,-841.30859,-5.85937,580.07812,-0.161209779821409,0.0935283548900217,0.0927289940926083,57.6,24.0,23.55
-1009.27734,41.01563,108.88672,-0.1009892883764471,0.0163874199457503,0.0265129476011954,6.6,25.5,37.65,-104.00391,-151.36719,1014.16016,0.0528927265804637,0.0764747427687851,0.1314992144976347,70.8,0.9,86.25,-838.37891,-12.69531,591.30859,-0.1418912539298594,0.0727442760255724,0.0763415741468579,57.6,24.0,23.55
-1023.92578,36.13281,111.32813,-0.1513507639427435,0.098724374606134,0.0800720408900706,6.45,24.9,38.1,-67.38281,-133.30078,1017.08984,0.0407687969314851,0.0544916227082157,0.0889985273493956,71.25,0.15,86.7,-816.89453,-24.41406,563.47656,-0.1458882324498516,0.050228132411444,0.0603538345998143,58.8,23.25,23.55
-1013.18359,27.34375,122.07031,-0.0426340303030914,-0.0154548905264097,0.0534257501340228,6.6,23.7,36.6,-58.59375,-125.0,971.19141,0.0542251109314362,0.0583552580733556,0.0909969293429291,71.1,0.3,87.15,-805.66406,-10.74219,565.42969,-0.0908637607210019,0.0446324322966249,0.0538254305327295,58.8,23.25,23.55
-1012.69531,43.45703,126.95313,-0.0305099261211876,0.0155880591483369,0.0698131700797731,5.4,22.35,37.05,-49.80469,-124.51172,996.09375,0.0710122112758932,0.0338407124656936,0.0899310567687362,70.35,-0.3,86.85,-814.45312,-17.57813,563.96484,-0.0707458740320389,0.0386370517830992,0.0794058487145844,57.6,22.2,22.8
-1000.48828,63.96484,123.04688,-0.1540153581117632,0.037970859607613,-0.0349065850398865,5.4,22.35,37.05,-75.68359,-123.53516,966.30859,0.0010658725741929,0.067015232755901,0.0993905667816202,70.35,-0.3,86.85,-821.28906,-21.97266,512.69531,0.1184425808963904,-0.0254472495599277,0.0230489926347623,57.6,22.5,23.1
-997.55859,36.62109,115.23438,-0.06634921511334,0.0536922619108023,0.0766079113907123,6.45,24.15,37.8,-67.38281,-145.01953,990.72266,-0.0053291883380394,0.0514271736075641,0.0923293136939016,70.35,-0.3,86.85,-811.52344,-3.41797,531.25,0.2339540558469814,-0.0566231933236764,0.0846018684306967,58.35,22.95,22.8
-1009.76562,47.36328,92.28516,-0.0700796818565527,-0.0067947413109391,0.0215834396618626,6.0,22.95,37.65,-104.00391,-156.25,991.69922,-0.0279785005740951,0.0611531953972277,0.095393588261628,71.25,1.65,87.0,-825.68359,2.44141,548.82812,0.1605435876459228,-0.0326416712695735,0.0363721380127862,57.45,23.85,22.65
-1023.92578,50.29297,84.96094,-0.1273690673557154,0.1089830708835063,0.0154548905264097,7.35,23.25,36.9,-125.97656,-153.80859,956.54297,-0.0646171503636608,0.0862005900255235,0.0722112524720134,70.2,0.45,87.75,-843.26172,17.08984,554.19922,0.0782068075184643,-0.0129234649793172,0.0957932686603347,57.6,22.95,21.75
-1018.55469,38.57422,76.66016,-0.0905972489442224,0.1103154552344788,-0.0053291883380394,8.1,25.05,37.35,-122.55859,-168.45703,987.79297,-0.007860613885132,0.0969923098564548,0.0503614755662963,71.4,1.05,86.85,-839.35547,26.85547,572.26562,-0.0675482563094601,0.0027979373238721,0.0496952833908101,57.6,23.25,22.8
-1020.50781,38.08594,65.42969,-0.0714118916745999,0.0858009096268168,0.0025314255470925,8.1,25.05,37.35,-124.02344,-147.46094,954.58984,0.0976585020319411,0.1581455052536826,0.0831363154577971,70.8,1.2,86.7,-873.53516,40.52734,616.21094,-0.1016554805519333,-0.0322419908708668,0.0578224090527217,57.6,23.25,22.8
-1015.625,56.64063,80.56641,-0.1080505414641657,0.1209740064434829,-0.0102588708102974,6.15,23.4,39.15,-123.53516,-144.04297,986.32812,0.1085833904847996,0.1337641282679478,0.0347734164179594,72.3,0.9,87.45,-876.46484,50.29297,674.31641,-0.1937182824690554,-0.0394364125805126,0.0504946441882235,58.05,24.0,22.8
-990.72266,42.48047,101.07422,-0.061419532641082,0.1164441789028568,-0.0727442760255724,7.05,22.5,38.4,-103.51563,-125.48828,1021.97266,0.2023782571516009,0.0876661429984231,0.0009327039522657,70.8,1.65,87.45,-874.02344,60.54688,656.25,-0.1805283057129587,-0.0634181091675407,0.0735436368229858,57.6,23.25,22.8
-962.40234,60.54688,116.21094,-0.0263797789792682,0.0971256530113072,0.0054625314928918,7.65,24.75,36.9,-60.05859,-109.375,1023.4375,0.1838590920574646,0.0956601000384076,0.0002665117767795,70.8,1.65,87.45,-843.26172,74.70703,619.14062,-0.1686707133078344,-0.0038636353651398,-0.0146553551960711,57.45,23.4,21.6
-938.47656,74.70703,129.88281,-0.1023216727274195,0.1610766111994818,-0.0515605167624164,6.45,25.35,37.5,-37.10938,-84.96094,1040.03906,0.2090398298406128,0.060753514998521,0.0113245688515652,71.4,1.5,86.55,-816.40625,61.52344,655.76172,-0.1877227274226045,-0.0367718184114929,-0.0399694361340717,58.8,25.05,22.5
-963.37891,73.73047,118.65234,-0.0949939078629213,0.1418912539298594,-0.0439662401211387,6.45,25.35,37.5,-33.69141,-60.05859,1037.10938,0.1626753327943086,0.0431668793237253,0.0235820161883213,72.6,2.4,86.7,-791.50391,44.43359,625.0,-0.1608100994227023,0.0442327518979182,0.0049295079393327,57.0,23.7,23.85
-955.07812,66.89453,111.32813,-0.0714118916745999,0.0979250138087206,0.0399694361340717,5.7,25.35,37.05,-10.25391,-87.89063,1055.17578,0.0090596550812521,-0.0109248884528585,0.0623522365933478,71.4,1.8,87.6,-796.875,49.31641,633.30078,-0.141091893132446,0.0397029243572922,0.0262466103573411,57.3,23.25,22.8
-950.68359,63.47656,107.91016,-0.1285681085518354,0.1825268822394173,-0.046897346066938,6.45,23.1,37.5,-11.23047,-125.48828,1014.64844,-0.0305099261211876,0.0231821612566894,0.064750318985588,71.4,1.8,87.6,-775.39062,19.53125,618.65234,-0.1136462415789847,0.0523598775598298,0.016787100344457,57.3,23.25,22.8
-982.91016,60.54688,105.46875,-0.1285681085518354,0.1486859952407985,-0.0459648166475974,6.45,24.9,37.05,-33.20313,-151.85547,1028.32031,-0.0610198522423753,0.0117244237831971,0.0945942274642146,72.45,2.25,86.85,-784.66797,39.55078,600.09766,-0.0743429976203992,0.0321086477160144,0.0603538345998143,58.5,24.6,23.25
