IMU1_AccX,IMU1_AccY,IMU1_AccZ,IMU1_GyrX,IMU1_GyrY,IMU1_GyrZ,IMU1_MagX,IMU1_MagY,IMU1_MagZ,IMU2_AccX,IMU2_AccY,IMU2_AccZ,IMU2_GyrX,IMU2_GyrY,IMU2_GyrZ,IMU2_MagX,IMU2_MagY,IMU2_MagZ,IMU3_AccX,IMU3_AccY,IMU3_AccZ,IMU3_GyrX,IMU3_GyrY,IMU3_GyrZ,IMU3_MagX,IMU3_MagY,IMU3_MagZ
-964.84375,-8.30078,-103.02734,-0.0794058487145844,0.0166539317225298,-0.0595542992694757,2.1,25.5,31.05,-79.10156,-149.90234,1001.95312,-0.0169204434993094,-0.0658161915597809,0.1393598283827668,72.6,2.4,85.95,-823.73047,36.62109,588.86719,-0.1783965605645728,0.0371714988101996,0.0566231933236764,58.5,24.15,20.85
-961.91406,-12.69531,-115.23438,-0.0426340303030914,0.0688804661275074,-0.1045865864977326,2.1,25.05,31.05,-91.79688,-156.25,1011.23047,0.0295773967018471,-0.0019984019935335,0.1919862177193762,72.6,2.4,85.95,-834.96094,3.41797,576.17187,-0.1059187963157798,0.0387702204050264,0.0267794593779749,58.5,24.15,20.85
-993.65234,-6.34766,-111.81641,-0.0740764858436197,0.0579555776746489,-0.1112481591867445,2.1,25.05,31.05,-106.93359,-166.01562,1009.27734,0.1167105161467112,-0.0089264864593249,0.1386936362072806,73.8,2.7,86.25,-836.42578,-10.74219,587.40234,-0.1569464640575625,0.0322419908708668,0.0739433172216925,58.5,24.15,20.85
-997.07031,1.95312,-128.90625,0.0058622118915985,-0.0087933178373978,-0.0603538345998143,2.1,25.05,31.05,-101.5625,-119.14063,999.51172,0.2010458728006284,-0.1012558001532266,0.0869999508229369,72.45,2.55,85.5,-820.3125,-18.55469,565.91797,-0.1111148160318922,0.0726111074036452,0.0650168307623675,57.6,25.5,20.25
-1006.83594,14.16016,-117.67578,-0.0519601971611231,0.0796723604913639,-0.0433002224785777,1.35,24.75,31.05,-105.95703,-94.23828,1018.55469,0.1569464640575625,-0.0814042507081179,0.0776737839649052,72.0,3.15,87.45,-814.45312,-20.99609,576.17187,-0.0877993116203503,0.0929953313364626,0.0149218669728507,58.35,25.05,21.0
-998.04687,17.57813,-123.53516,-0.0644839817417337,0.0181194846954295,-0.0602204914449619,1.35,24.75,31.05,-90.33203,-91.30859,1071.77734,0.1462879128485583,-0.1027213531261262,0.0575558972759422,71.55,2.7,86.25,-829.10156,-18.06641,559.57031,-0.0526263893366094,0.0943277156874351,0.0726111074036452,57.6,24.0,21.75
-992.1875,17.08984,-116.69922,0.0113245688515652,-0.0375711792089063,0.0143890179522168,2.1,26.55,31.05,-83.49609,-77.63672,1062.98828,0.051827028539196,-0.1350965126189202,0.0796723604913639,72.3,3.15,85.95,-840.33203,-14.64844,556.64062,-0.0151883787496302,0.1137794102009119,0.023448673033469,57.45,23.1,21.15
-989.25781,4.39453,-119.14063,-0.0564900247017492,-0.0267794593779749,-0.0110582316077108,2.1,26.55,31.05,-84.96094,-93.75,1039.55078,0.0254472495599277,-0.1557472483285172,0.0746095093971788,73.2,2.55,86.85,-851.07422,-30.76172,548.33984,0.0365053066347134,0.0909969293429291,-0.0198513749121835,57.45,23.1,21.15
-982.42187,19.53125,-114.25781,-0.0592879620256213,0.005595700114819,0.0194516945134768,2.25,24.15,31.95,-105.46875,-90.33203,1002.44141,0.0190520141147701,-0.131099534098928,0.077540615342978,73.2,2.55,86.85,-843.75,-30.76172,533.20312,0.1021883295725672,0.0255804181818548,-0.0322419908708668,58.35,23.7,19.95
-995.60547,15.625,-120.11719,-0.0562235129249697,-0.0532925815120956,0.0066615726890119,1.8,23.4,30.45,-83.00781,-104.98047,1001.46484,-0.0035972981212855,-0.1267028751802291,0.0333078634450597,73.05,1.65,88.05,-847.65625,-49.31641,541.99219,0.1416247421530798,0.0819372742616769,-0.041834669505678,58.35,23.7,19.95
-999.51172,14.16016,-146.97266,-0.0333078634450597,-0.0600873228230347,0.1041869060990259,0.45,25.65,31.2,-102.53906,-101.07422,1027.83203,0.002264913770313,-0.1075176924435318,0.0514271736075641,73.05,2.7,87.0,-861.32812,-30.27344,525.39062,0.1779968801658661,0.0880658233971298,-0.0375711792089063,57.6,24.0,20.25
-1035.64453,17.08984,-150.87891,-0.0800720408900706,-0.036238969390859,0.020117886688963,2.55,27.15,31.2,-126.95313,-100.58594,1035.15625,-0.013456313999951,-0.1008561197545199,0.0221164632154217,71.4,3.3,86.55,-882.32422,-16.60156,524.41406,0.1891882803955041,0.1219065358628235,-0.0219831200605693,58.2,23.4,19.8
-1033.69141,49.80469,-150.39062,0.0035972981212855,-0.0311761182966739,0.0399694361340717,2.55,27.15,31.2,-154.78516,-95.21484,1021.48437,-0.1032542021467601,-0.0675482563094601,0.036238969390859,71.4,3.3,86.55,-884.76562,-13.67187,516.11328,0.1709356270781474,0.0876661429984231,-0.0470306892217904,56.55,24.0,20.25
-1035.64453,65.91797,-144.04297,-0.0343737360192527,-0.0956601000384076,0.1008561197545199,1.35,24.3,29.55,-156.25,-119.62891,1017.08984,-0.1340306400447273,-0.06634921511334,0.0,72.6,2.7,88.05,-889.64844,2.92969,538.08594,0.2311562930560345,0.0664823837352672,-0.0478300500192038,57.6,22.95,20.7
-1042.96875,50.78125,-149.90234,-0.0940612039106556,-0.0271791397766816,0.0342403928644003,2.4,25.8,30.0,-148.92578,-138.18359,1013.18359,-0.1926524098948624,-0.0666155523571943,-0.031309286918601,71.7,2.55,87.15,-908.69141,1.95312,522.94922,0.2037106415025733,0.0527595579585365,-0.011191400229638,58.95,23.4,20.85
-1039.55078,52.73438,-145.01953,-0.0623522365933478,-0.1023216727274195,0.0522267089379027,3.0,25.65,30.9,-131.83594,-147.46094,994.62891,-0.1953170040638822,-0.1067181571131932,-0.0067947413109391,71.7,2.55,87.15,-908.20312,14.16016,536.13281,0.2833828274610121,-0.0079939570399844,0.0286446927495813,58.35,24.0,22.5
-1029.78516,42.96875,-146.97266,-0.0662158719584876,-0.1257703457608885,-0.0245145456076619,1.8,26.1,30.9,-116.69922,-151.85547,992.1875,-0.1120475199841579,-0.0500949637895168,-0.0062618922903052,70.65,3.0,86.85,-904.78516,21.97266,540.52734,0.2284915243540896,0.0343737360192527,-0.0093261668580317,58.35,24.0,22.5
-1009.27734,18.06641,-143.06641,-0.089797888146809,-0.0790061683158777,-0.0662158719584876,1.8,26.1,30.9,-178.22266,-161.13281,986.81641,-0.013456313999951,0.1153783063286639,-0.0814042507081179,73.2,2.55,86.85,-895.50781,41.01563,539.55078,0.2490092659746846,0.0143890179522168,0.0496952833908101,57.3,25.05,19.65
-989.25781,10.74219,-135.25391,-0.0283781809728018,-0.0936615235119489,-0.0039969785199922,1.8,26.1,30.9,-122.07031,-138.18359,971.67969,-0.0578224090527217,-0.0385038831611721,-0.0996569040254746,73.05,2.7,87.75,-884.27734,64.45313,553.22266,0.2191653574960579,-0.0175864611418704,0.0173201238980161,57.3,25.05,19.65
-969.72656,27.34375,-113.76953,-0.0229158240128351,-0.0383705400063197,-0.0600873228230347,2.25,25.35,31.95,-109.375,-139.16016,1003.41797,0.0141225061754373,-0.0980581824306478,-0.1276355791324949,73.05,2.7,87.75,-878.41797,49.80469,520.99609,0.2134364887593117,-0.0121241041819038,-0.011191400229638,58.2,24.9,19.05
-969.23828,20.99609,-114.25781,-0.0602204914449619,-0.0129234649793172,0.0203843984657425,1.65,25.8,31.65,-113.28125,-125.48828,1000.97656,-0.0059953805135257,-0.034640073263107,-0.1213736868421896,72.15,3.0,86.55,-853.51562,81.05469,531.73828,0.1897213039490632,-0.0237151848102485,0.0678147680862396,58.2,24.9,20.55
-979.00391,31.25,-104.98047,0.0138559943986577,-0.0359724576140795,-0.0170536121212365,1.65,25.05,30.3,-93.75,-116.69922,996.09375,0.0018652333716063,-0.0499617951675896,-0.1005896079777403,70.8,3.15,86.25,-848.14453,78.125,540.52734,0.1458882324498516,-0.0165205885676775,0.0919296332951949,57.9,24.9,20.1
-970.21484,17.57813,-96.67969,0.0578224090527217,-0.0075941021083525,-0.040235773377926,2.55,26.4,30.9,-78.61328,-95.21484,987.30469,0.0711455544307456,-0.0810045703094112,-0.1007227765996675,72.15,2.55,86.55,-838.37891,81.54297,523.92578,0.2094395102393195,-0.032375159492794,0.0210505906412288,58.2,24.9,20.85
-982.42187,8.30078,-103.02734,-0.005595700114819,0.0319754790940873,-0.0640843013430269,2.55,26.4,30.9,-85.9375,-82.51953,1001.95312,0.0695466583029936,-0.0286446927495813,-0.1096492630589925,71.55,3.45,86.7,-833.49609,92.28516,516.60156,0.1819938586858583,-0.0270459711547545,0.0309096065198943,58.2,24.9,20.85
-989.25781,8.78906,-92.77344,0.08420218803199,-0.0218499514386422,-0.0550244717288496,2.1,24.3,31.35,-91.79688,-87.40234,997.07031,0.0387702204050264,-0.0091929982361045,-0.1137794102009119,71.7,2.55,87.15,-826.17187,87.89063,523.92578,0.1838590920574646,-0.0151883787496302,0.0322419908708668,57.0,24.75,21.0
-1005.37109,1.46484,-98.14453,0.0766079113907123,-0.0271791397766816,-0.0407687969314851,1.8,25.35,30.9,-99.12109,-102.53906,989.74609,-0.0031976177225788,-0.0186523337160634,-0.0631515973907612,72.0,3.45,87.0,-833.98437,74.70703,496.09375,0.1953170040638822,-0.0041301471419193,0.018385996472209,57.0,24.75,21.0
-999.02344,11.71875,-116.21094,0.04849624219469,0.0094593354799588,-0.0887320155726161,3.0,26.1,30.9,-100.58594,-112.79297,995.60547,0.0254472495599277,-0.0138559943986577,-0.1085833904847996,72.0,3.45,87.0,-846.67969,85.44922,537.10937,0.1649402465646217,0.0075941021083525,0.0378376909856858,57.0,24.75,21.0
-980.95703,2.92969,-108.39844,0.0873996312216436,0.0455651362488907,-0.0972588216332344,2.4,25.05,30.3,-99.60938,-107.42188,999.51172,0.0397029243572922,0.0398360929792193,-0.1116478395854512,72.0,3.45,87.0,-842.77344,69.82422,518.06641,0.177330862523305,0.041301645952119,0.0309096065198943,57.9,24.6,21.9
-1004.88281,19.04297,-115.23438,0.1031210335248329,0.0423675185263119,-0.0511608363637097,2.4,25.05,30.3,-115.23438,-114.74609,1007.32422,0.0538254305327295,-0.0195850376683291,-0.1600107386252889,72.15,1.5,86.85,-850.09766,54.19922,520.50781,0.1927855785167896,0.0357059458372999,0.0715452348294523,57.45,25.35,20.55
-1023.4375,31.73828,-116.21094,0.055823832526263,0.0353062654385932,-0.0294440535469947,0.6,26.55,31.35,-99.12109,-106.93359,1014.64844,0.0425006871482391,-0.016787100344457,-0.1420244225517865,71.7,2.25,86.85,-859.86328,68.35938,559.08203,0.2071745964690065,-0.0114579120064175,0.0397029243572922,57.6,24.0,20.25
-1028.32031,15.625,-123.04688,0.0836691644784309,0.0626187483701273,-0.034640073263107,2.1,27.0,31.65,-101.07422,-88.37891,1004.39453,0.0563568560798221,0.0195850376683291,-0.1228392398150893,71.4,1.8,87.9,-865.72266,79.58984,517.57812,0.2216967830431505,-0.0006661921754862,0.0988575432280612,57.0,25.5,20.7
-1013.18359,16.11328,-116.69922,0.0862005900255235,-0.0487625794385443,-0.0359724576140795,0.75,24.6,30.45,-91.79688,-77.14844,1020.99609,0.050761155965003,-0.011191400229638,-0.1660061191388146,71.4,1.8,87.9,-875.0,77.14844,526.36719,0.2274256517798967,0.0203843984657425,0.0562235129249697,57.45,24.6,20.55
-1004.39453,16.11328,-111.81641,0.0285115241276541,0.0472970264656447,-0.1275022359776425,3.0,26.4,31.5,-102.53906,-77.14844,1019.04297,0.0335742006889141,-0.0405022851547056,-0.118842261295097,71.55,2.7,88.8,-881.34766,92.28516,544.92187,0.2053093630974001,-0.0119907610270514,-0.0041301471419193,58.35,24.3,21.3
-1000.0,-0.48828,-116.69922,0.050228132411444,0.0678147680862396,-0.0490290912153239,3.0,26.4,31.5,-103.02734,-88.37891,1013.67187,0.0163874199457503,-0.0213169278850831,-0.1426906147272728,71.4,2.55,86.85,-869.62891,94.72656,533.69141,0.1863905176045572,0.0676814249313873,0.023981696587028,58.35,24.3,21.3
-998.04687,7.8125,-110.35156,0.0832694840797242,0.0448989440734045,-0.1251041535854023,2.55,26.4,31.2,-106.93359,-75.68359,1018.55469,0.0227824808579827,0.0001331686219271,-0.0896645449919567,71.25,3.45,86.7,-870.60547,102.05078,542.96875,0.1621424837736748,0.0218499514386422,-0.0237151848102485,57.0,23.7,21.0
-1000.97656,1.46484,-114.25781,0.0530260697353161,0.0606201718436686,-0.1514839325646706,1.35,25.5,29.25,-111.81641,-77.63672,1001.95312,0.0149218669728507,0.0019984019935335,-0.0774072721881257,71.4,1.5,85.8,-878.41797,90.33203,554.19922,0.140026020558253,-0.0003996803987067,0.015055210127703,57.0,23.7,21.0
-1034.17969,-3.90625,-123.04688,0.0530260697353161,0.1119141768293056,-0.080871401687484,1.8,24.6,30.45,-124.51172,-71.28906,1007.8125,0.0259800985805615,-0.0179861415405771,-0.0884655037958365,71.25,1.65,86.7,-853.51562,106.93359,553.71094,0.179062752740059,-0.0118575924051242,0.0046631706954784,56.7,24.6,20.55
-1028.32031,13.18359,-112.79297,0.0734104682010586,0.0109248884528585,-0.0604870032217414,1.2,23.85,31.5,-104.98047,-76.17188,1042.48047,0.0707458740320389,-0.0253139064050753,-0.0907304175661496,70.8,4.95,85.95,-865.23437,107.42188,541.01562,0.1568131209027101,0.0142556747973644,0.050228132411444,55.65,24.9,20.1
-1000.48828,12.69531,-109.86328,0.0282450123508746,0.0587549384720623,-0.0695466583029936,1.2,23.85,31.5,-84.47266,-77.63672,1034.66797,0.0527595579585365,0.0070612530877186,-0.1353630243956998,70.8,4.95,85.95,-859.375,96.19141,496.09375,0.2226293124624911,0.0373046674321268,0.0394364125805126,57.15,23.4,20.85
-1007.8125,14.64844,-111.32813,-0.032908183046353,0.0542251109314362,-0.0455651362488907,0.45,25.35,31.2,-70.80078,-74.21875,1011.71875,0.0174532925199432,0.016787100344457,-0.1147121141531777,72.15,2.55,87.15,-859.375,105.95703,525.87891,0.1657396073620351,-0.0242480338308824,0.0165205885676775,58.5,25.65,19.05
-1034.66797,27.34375,-104.98047,0.0083936374386911,0.0002665117767795,0.0009327039522657,1.5,24.6,30.45,-98.14453,-70.80078,987.30469,0.0592879620256213,-0.0049295079393327,-0.1421577657066389,72.6,1.95,87.0,-854.00391,105.95703,539.55078,0.1155114749505911,0.0122572728038309,0.0050628510941851,58.5,25.65,19.05
-1024.90234,28.32031,-119.62891,-0.0854012292281101,0.0475635382424242,0.0218499514386422,0.75,24.6,30.9,-102.05078,-55.17578,970.21484,0.0189188454928429,0.0021317451483858,-0.1814610096652244,71.7,1.05,87.6,-842.28516,102.53906,533.69141,0.1095160944370653,0.0146553551960711,0.0063950609122324,57.9,24.9,19.05
-1013.67187,33.20313,-112.30469,-0.0800720408900706,0.0635512777894679,0.0011990411961201,2.25,24.6,30.9,-104.98047,-36.62109,995.60547,0.0427671989250186,0.0642174699649541,-0.1095160944370653,71.7,1.05,87.6,-848.14453,105.95703,551.26953,0.1103154552344788,-0.0029311059457992,-0.0050628510941851,57.9,24.9,19.05
-1000.97656,26.36719,-107.42188,-0.0291777163031404,0.0512940049856369,0.0444992636746978,2.25,24.6,30.9,-99.12109,-59.57031,1032.22656,-0.0119907610270514,0.0531592383572432,-0.1051194355183664,72.0,3.15,86.7,-856.93359,127.92969,538.57422,0.1059187963157798,-0.0063950609122324,-0.0390367321818059,56.4,23.85,20.55
-996.09375,9.76562,-108.88672,-0.0784731447623186,0.1023216727274195,-0.020117886688963,2.4,24.3,30.3,-94.23828,-42.48047,993.16406,-0.0476967068643514,0.0110582316077108,-0.0592879620256213,72.0,1.65,87.45,-867.67578,121.09375,535.15625,0.0911300979648563,0.0011990411961201,0.0552909835056291,57.15,24.6,20.1
-997.07031,9.27734,-98.14453,-0.0571562168772355,0.0828698036810175,-0.0039969785199922,2.25,25.65,30.9,-102.53906,-71.77734,1009.76562,-0.0751423584178126,0.040235773377926,-0.0431668793237253,72.0,1.65,87.45,-838.37891,131.34766,546.38672,0.069680001457846,-0.0025314255470925,-0.0155880591483369,57.6,24.75,19.95
-1007.32422,-2.92969,-111.32813,0.0066615726890119,0.0718115720733066,-0.0250473946282958,2.4,24.3,31.05,-103.51563,-87.40234,1012.69531,-0.1003230962009608,0.0225161436141284,-0.0355727772153728,70.65,2.25,86.85,-845.70312,127.92969,547.85156,0.0483628990398376,-0.0142556747973644,-0.0147886983509235,57.15,24.9,20.1
-1018.06641,-4.39453,-103.02734,-0.0106585512090041,0.0776737839649052,-0.0542251109314362,2.4,25.8,30.0,-75.68359,-90.82031,999.02344,-0.0247810573844414,0.023448673033469,-0.0163874199457503,71.4,1.8,88.35,-839.84375,119.62891,547.36328,-0.0041301471419193,0.034640073263107,0.0122572728038309,58.05,24.0,21.0
-1003.41797,9.76562,-100.09766,-0.0452986244721112,0.0956601000384076,-0.0891316959713228,2.4,25.8,30.0,-81.54297,-116.69922,1003.90625,0.0059953805135257,0.0321086477160144,-0.0536922619108023,72.3,1.95,86.25,-825.19531,117.67578,567.87109,-0.0081271256619115,-0.0062618922903052,-0.0087933178373978,57.9,24.6,19.8
-1002.44141,3.90625,-95.21484,0.0229158240128351,0.0750091897958855,-0.0932618431132422,2.7,24.75,30.3,-74.21875,-106.44531,980.95703,0.0350397536618137,0.0266462907560478,-0.0860674214035963,72.3,1.95,86.25,-829.58984,103.02734,557.12891,0.0107917198309313,-0.0165205885676775,0.0119907610270514,57.9,24.6,19.8
-979.49219,40.52734,-92.28516,-0.0026645941690197,0.0903307371674429,0.0103920394322246,1.65,24.75,31.65,-68.35938,-92.77344,1001.46484,0.0943277156874351,0.0005328490206338,-0.1305666850782942,73.05,1.95,87.0,-848.63281,92.77344,562.5,0.0203843984657425,-0.015055210127703,0.0342403928644003,57.3,24.6,19.8
-963.37891,7.8125,-83.00781,-0.0802052095119978,0.1658729505168874,-0.0639509581881746,3.0,24.15,30.45,-73.24219,-89.84375,1010.25391,0.059154618870769,-0.0178529729186499,-0.0659495347146333,72.15,3.0,86.85,-848.14453,86.91406,579.58984,0.0247810573844414,-0.0664823837352672,0.0203843984657425,57.3,24.75,19.65
-956.05469,4.88281,-87.40234,-0.0590214502488418,0.1550812306859561,0.0199847180670358,3.3,24.9,30.9,-81.54297,-85.9375,1004.39453,0.0397029243572922,0.0001331686219271,-0.0830031468358699,71.7,3.0,86.55,-850.09766,98.14453,574.21875,0.0704793622552594,-0.0266462907560478,0.0143890179522168,57.3,24.75,19.65
-938.96484,-17.57813,-88.37891,-0.0526263893366094,0.1422909343285661,0.0495619402359577,3.3,24.9,30.9,-80.07813,-84.47266,1023.92578,-0.0074609334864253,0.0173201238980161,-0.0758085505932989,72.45,1.8,87.6,-836.42578,86.42578,569.82422,0.10205516095064,-0.0506278128101507,-0.0010658725741929,58.05,24.75,20.25
-943.84766,-21.97266,-91.30859,-0.0835359958565038,0.1782633919426456,-0.0866002704242302,1.35,24.75,29.25,-72.26563,-77.63672,1018.55469,-0.0286446927495813,-0.0206509102425221,-0.0687472975055802,73.35,2.7,85.2,-833.49609,103.02734,583.98437,0.0920628019171221,0.0229158240128351,-0.0850015488294034,58.5,26.1,20.55
-947.26562,-23.92578,-109.86328,-0.0109248884528585,0.2386172265424599,-0.0367718184114929,0.45,24.9,30.15,-78.125,-81.54297,1020.99609,-0.0293108849250675,-0.0506278128101507,-0.0487625794385443,72.9,0.3,86.55,-832.51953,103.02734,558.10547,0.141091893132446,0.0262466103573411,-0.0867336135790826,58.05,24.75,20.25
-974.12109,-20.99609,-98.14453,0.0225161436141284,0.1889219431516497,0.0452986244721112,1.5,23.1,30.15,-91.30859,-85.9375,1031.25,-0.0374380105869791,-0.0235820161883213,-0.0664823837352672,72.9,0.3,86.55,-819.33594,121.09375,559.57031,0.1453552088962925,-0.0013323843509724,-0.0350397536618137,57.6,24.75,19.65
-967.77344,-17.08984,-127.44141,-0.0170536121212365,0.2671285761371889,-0.054091942309509,0.45,24.9,30.15,-91.79688,-75.68359,1009.76562,0.022382800459276,-0.0205175670876697,-0.0254472495599277,71.55,0.9,87.75,-840.82031,116.21094,576.66016,0.1103154552344788,-0.0250473946282958,-0.114312433754471,58.05,24.75,18.6
-1001.46484,6.34766,-134.76562,-0.0043966589186989,0.1997136629825811,0.0326416712695735,0.45,24.9,30.15,-84.47266,-96.19141,1028.80859,0.0430337107017981,-0.0285115241276541,-0.0439662401211387,71.55,-0.15,86.7,-846.19141,126.46484,556.64062,0.1697365858820273,0.0209172474863764,-0.1068515002680456,57.45,24.6,19.8
-990.23437,-3.41797,-134.27734,0.0005328490206338,0.2176998045231583,-0.0026645941690197,0.45,24.9,30.15,-82.03125,-89.84375,1017.08984,0.0405022851547056,-0.0351730968166661,-0.0616860444178615,70.5,0.9,86.25,-854.98047,120.11719,581.54297,0.0969923098564548,-0.0357059458372999,0.0001331686219271,57.45,24.6,19.8
-991.69922,13.18359,-154.78516,-0.0206509102425221,0.1965160452600023,0.0057288687367461,0.6,24.3,29.55,-75.68359,-95.21484,1026.36719,0.0278453319521679,-0.0314426300734534,0.0,70.5,0.9,86.25,-851.5625,108.88672,565.91797,0.1013889687751538,-0.0363721380127862,0.0099923590335179,57.3,24.75,19.65
-996.09375,14.64844,-150.87891,-0.0704793622552594,0.2061087238948135,0.0330413516682802,1.8,24.6,29.4,-70.3125,-120.11719,1020.01953,0.0353062654385932,-0.1117810082073784,-0.0315757986953806,70.5,1.65,86.25,-847.65625,89.35547,559.57031,0.1173767083221974,-0.0109248884528585,-0.0963261176809686,57.6,24.75,19.65
-998.53516,6.34766,-147.94922,-0.0109248884528585,0.2021117453748213,0.0840688448771376,2.1,24.0,30.0,-69.82422,-86.91406,1024.41406,0.0279785005740951,-0.0818039311068246,-0.0495619402359577,70.5,1.95,88.05,-833.98437,73.24219,561.03516,0.0957932686603347,-0.0527595579585365,-0.0526263893366094,58.05,24.75,19.65
-989.25781,3.41797,-156.73828,-0.0606201718436686,0.1806614743348858,0.037970859607613,-0.3,24.3,30.6,-74.70703,-96.67969,1013.18359,0.0151883787496302,-0.1045865864977326,-0.0759418937481512,70.65,2.25,86.55,-825.68359,69.33594,567.87109,0.1955835158406617,-0.0226493122360556,-0.0945942274642146,57.0,24.75,19.65
-1008.78906,-0.97656,-160.15625,-0.0810045703094112,0.1568131209027101,-0.0325085026476463,-0.3,24.3,30.6,-72.26563,-61.03516,1022.94922,0.0142556747973644,-0.0704793622552594,-0.0720780838500862,70.65,2.25,86.55,-838.86719,76.66016,574.21875,0.1653399269633284,0.0021317451483858,-0.0988575432280612,55.8,24.3,19.2
-1010.25391,7.32422,-139.64844,-0.0287778613715085,0.0913966097416358,0.0169204434993094,1.2,24.9,29.85,-68.84766,-53.71094,1046.875,-0.0779402957416847,-0.2021117453748213,-0.0816707624848974,71.4,3.0,87.15,-822.75391,83.00781,546.875,0.174000076178799,-0.0251807377831481,-0.040235773377926,57.45,24.15,20.1
-1002.44141,38.08594,-163.08594,-0.0704793622552594,0.0879326547752027,-0.0448989440734045,-0.3,24.75,29.25,-88.86719,-61.03516,1054.6875,-0.0971256530113072,-0.0913966097416358,-0.0916631215184153,73.2,2.25,87.15,-849.12109,105.46875,532.71484,0.1891882803955041,-0.0118575924051242,-0.0632847660126884,57.45,24.15,20.1
-982.91016,33.69141,-150.39062,-0.1324319184499005,0.1091164140383586,-0.0603538345998143,0.45,24.9,28.8,-100.09766,-60.05859,1023.4375,-0.2146355299554318,-0.0903307371674429,-0.051827028539196,70.5,0.9,87.45,-834.96094,124.51172,533.20312,0.1814610096652244,0.0043966589186989,-0.0459648166475974,55.8,24.75,21.0
-965.82031,39.55078,-176.26953,-0.123238920213796,0.0611531953972277,0.0309096065198943,2.25,24.15,30.15,-97.16797,-125.0,993.65234,-0.3333446226286018,-0.0740764858436197,0.0423675185263119,70.5,0.9,87.45,-821.77734,130.85937,526.85547,0.1025880099712739,0.0185191650941362,-0.0520933657830503,55.8,24.75,21.0
-947.75391,22.94922,-168.94531,-0.184658452854878,0.1354961930176269,-0.0862005900255235,2.25,24.15,30.15,-101.07422,-160.15625,994.14062,-0.3019019925551483,-0.0355727772153728,0.0071944217096458,69.45,1.65,87.0,-840.82031,138.67187,502.92969,0.0969923098564548,0.0715452348294523,-0.1103154552344788,57.3,23.7,21.0
-936.03516,2.92969,-171.38672,-0.1894547921722836,0.0780734643636119,-0.0555574952824086,0.6,27.0,30.0,-90.82031,-157.71484,957.03125,-0.1858576685839233,-0.0572893854991626,-0.0464976656682313,72.6,1.2,88.8,-850.09766,157.22656,505.37109,0.0389035635598788,0.0277121633302407,-0.0599539796681824,57.9,23.4,19.8
-945.3125,-15.13672,-170.41016,-0.2001133433812878,0.1817273469090787,-0.0218499514386422,1.65,24.75,29.25,-74.21875,-182.61719,958.49609,-0.0820704428836041,0.0155880591483369,-0.0071944217096458,72.15,1.8,86.85,-842.28516,152.34375,503.41797,0.0057288687367461,0.0337075438437664,-0.0763415741468579,58.05,23.25,18.9
-971.67969,2.92969,-193.35937,-0.1931852589154963,0.242081181508893,0.0107917198309313,0.75,25.35,29.1,-78.61328,-126.95313,975.58594,-0.0559571756811154,-0.0492956029921034,-0.0274456515534612,72.15,1.8,86.85,-847.16797,142.08984,503.41797,-0.0339738810876208,0.0069280844657914,-0.078606487917171,56.55,24.3,19.65
-994.14062,-7.8125,-186.52344,-0.1593445464498027,0.2350199284211744,-0.0009327039522657,0.75,25.35,29.1,-88.86719,-132.32422,979.00391,0.0169204434993094,-0.0091929982361045,-0.0094593354799588,71.25,1.65,88.5,-852.53906,127.44141,504.39453,-0.0679479367081668,0.0087933178373978,-0.0548913031069224,58.05,24.3,19.95
-1012.69531,-25.39063,-198.24219,-0.1548147189091766,0.2296907400831349,0.0456983048708179,0.15,24.9,30.15,-81.05469,-119.62891,992.67578,0.0631515973907612,-0.0277121633302407,-0.0211837592631559,71.7,1.8,86.85,-865.72266,120.60547,510.74219,-0.0532925815120956,-0.0117244237831971,-0.0199847180670358,58.35,24.0,20.25
-990.72266,-41.50391,-205.56641,-0.1536156777130565,0.2519401973875587,0.0695466583029936,1.35,25.8,30.3,-123.04688,-123.53516,985.35156,0.036238969390859,-0.0126569532025376,-0.0151883787496302,71.7,1.8,86.85,-864.74609,108.88672,500.0,-0.040235773377926,0.005595700114819,-0.0514271736075641,58.35,24.0,20.25
-998.04687,-45.41016,-197.26562,-0.1205743260447762,0.1930520902935692,0.0042633157638465,1.05,24.3,28.95,-124.02344,-145.99609,1003.41797,0.0512940049856369,0.0327748398915007,-0.0067947413109391,71.7,0.75,87.9,-875.0,100.09766,496.09375,-0.0679479367081668,0.03064326927604,-0.0640843013430269,58.35,24.0,20.25
-985.35156,-43.45703,-210.44922,-0.0654165111610742,0.1686707133078344,0.0706125308771865,1.65,25.5,28.5,-125.0,-130.37109,994.62891,0.0021317451483858,0.0619525561946411,0.0538254305327295,72.45,0.0,87.15,-867.67578,89.35547,515.625,-0.1280352595312016,0.0009327039522657,-0.0142556747973644,57.6,25.05,19.65
-994.62891,-34.66797,-206.54297,-0.0417013263508257,0.1530826541594974,0.0748760211739583,1.65,25.5,28.5,-132.32422,-151.36719,971.19141,-0.0186523337160634,0.0467641774450108,-0.0130566336012443,71.7,1.5,87.15,-858.88672,74.70703,501.95312,-0.1068515002680456,0.0155880591483369,-0.0455651362488907,56.7,23.1,20.55
-993.16406,-22.46094,-200.19531,-0.0315757986953806,0.2242282085902431,0.032375159492794,0.75,25.65,29.1,-125.0,-157.71484,976.5625,0.0499617951675896,0.0417013263508257,-0.0511608363637097,71.7,1.5,87.15,-867.1875,65.42969,526.36719,-0.0627519169920545,-0.0263797789792682,-0.0019984019935335,58.5,23.85,20.85
-985.83984,-10.25391,-203.61328,0.0251807377831481,0.1750657742200668,0.0667488955120467,0.0,27.75,29.55,-94.72656,-138.18359,993.16406,0.1119141768293056,0.0414349891069713,-0.0383705400063197,71.7,0.75,87.6,-855.95703,58.59375,518.55469,-0.0896645449919567,-0.0571562168772355,-0.0539585991546566,58.2,24.15,20.85
-980.95703,-12.69531,-204.10156,0.0359724576140795,0.1693369054833206,0.0651499993842947,-0.75,25.65,29.85,-109.375,-141.11328,977.53906,0.1350965126189202,0.0065284040670847,-0.0534257501340228,71.1,1.5,86.55,-862.30469,77.14844,513.67187,-0.054091942309509,-0.059154618870769,-0.0218499514386422,58.2,24.15,19.05
-974.12109,-14.64844,-212.89062,0.0054625314928918,0.2372848421914875,0.0043966589186989,0.15,26.1,27.3,-110.83984,-128.41797,1003.90625,0.1770643507465255,0.0515605167624164,-0.0415681577288985,73.35,0.9,87.45,-838.86719,70.3125,507.32422,-0.0738101485997654,-0.0835359958565038,-0.0293108849250675,56.7,24.15,19.8
-974.60937,-26.85547,-213.37891,0.0700796818565527,0.2328881832727885,0.0186523337160634,0.15,26.1,27.3,-112.30469,-125.0,996.58203,0.1574793130781963,0.034640073263107,-0.0394364125805126,72.6,0.9,86.7,-865.23437,68.84766,513.67187,-0.1279019163763492,-0.0439662401211387,-0.0957932686603347,56.7,24.15,19.8
-970.70312,-25.39063,-220.70312,0.0674150876875329,0.2615328760223699,0.0197182062902563,0.15,25.35,28.05,-134.27734,-103.51563,1017.08984,0.1224395594163826,0.0367718184114929,0.0086599746825454,71.1,1.8,87.9,-869.14062,78.61328,508.30078,-0.1660061191388146,-0.0496952833908101,-0.0650168307623675,57.9,23.1,20.55
-1020.99609,-20.01953,-233.88672,0.0361056262360067,0.2239616968134635,-0.0716784034513795,0.15,26.4,29.4,-130.37109,-116.69922,1035.64453,0.1041869060990259,0.071944915228159,0.0373046674321268,71.55,1.65,86.25,-880.85937,101.07422,538.57422,-0.1696034172601001,-0.0780734643636119,-0.046897346066938,57.9,23.1,20.55
-1010.74219,-15.13672,-223.63281,0.0794058487145844,0.2117044240096326,0.0467641774450108,0.75,24.9,27.75,-131.83594,-97.16797,1009.76562,0.0409019655534123,0.023448673033469,0.0155880591483369,71.55,1.65,86.25,-878.90625,109.375,512.69531,-0.1191087730718766,-0.1063184767144865,0.0075941021083525,57.45,23.85,20.1
-1002.44141,-12.69531,-234.375,0.0634181091675407,0.2042434905232072,-0.0095926786348112,0.45,26.1,29.1,-135.25391,-117.67578,1017.57812,0.0735436368229858,0.0699463387017003,0.0594211306475485,72.0,1.2,88.8,-869.62891,99.12109,533.20312,-0.1461547442266311,-0.1297671497479555,-0.0391699008037331,57.6,24.0,21.0
-1004.39453,-9.27734,-236.32812,-0.0281118437289474,0.2266262909824833,-0.007860613885132,0.45,26.1,29.1,-133.78906,-122.07031,1008.30078,0.1103154552344788,0.0552909835056291,0.0563568560798221,72.15,1.8,88.35,-853.02734,110.35156,559.57031,-0.1967825570367818,-0.1205743260447762,-0.0229158240128351,58.2,24.15,20.1
-993.16406,-17.08984,-225.58594,0.0511608363637097,0.1930520902935692,0.0285115241276541,-0.75,26.1,28.05,-105.95703,-115.23438,1000.0,0.1065849884912661,0.070346019100407,0.0270459711547545,72.15,1.8,88.35,-841.30859,79.58984,540.03906,-0.1917197059425967,-0.063684446411395,-0.0602204914449619,58.5,24.6,20.85
-983.88672,-22.46094,-224.12109,0.0286446927495813,0.1517504443414501,0.0235820161883213,0.15,26.4,27.75,-83.49609,-127.44141,1017.57812,0.1397595087814735,0.0929953313364626,0.0065284040670847,72.15,1.8,88.35,-832.51953,88.86719,555.17578,-0.1777305429220118,-0.0603538345998143,-0.0155880591483369,58.35,23.7,20.7
-984.86328,-20.01953,-214.84375,-0.0567565364785288,0.2338208872250543,-0.0098591904115907,0.3,25.8,27.45,-58.10547,-126.46484,1035.64453,0.1518836129633773,0.0819372742616769,0.0652833425391471,72.9,0.3,87.6,-825.68359,68.84766,530.27344,-0.1742664134226534,-0.0462311538914518,-0.007860613885132,57.15,23.85,20.85
-1012.20703,-14.16016,-233.88672,0.0523598775598298,0.1722680114291199,0.0179861415405771,-0.3,25.8,28.95,-56.15234,-99.60938,1034.66797,0.1181760691196108,0.0778071271197576,0.0496952833908101,71.7,1.5,87.6,-818.35937,55.17578,544.43359,-0.1682710329091277,-0.0512940049856369,-0.0341072242424731,57.15,23.85,20.85
-1015.13672,-22.46094,-240.23437,0.0375711792089063,0.1061853080925594,-0.0113245688515652,-0.3,25.8,28.95,-45.89844,-126.95313,1020.01953,0.1195084534705833,0.0578224090527217,0.0646171503636608,71.7,1.5,87.6,-811.52344,60.05859,564.45312,-0.1754656291516987,-0.0255804181818548,0.0114579120064175,58.8,24.0,20.25
-1049.31641,-17.57813,-222.16797,-0.0198513749121835,0.1859908372058505,-0.0034639549664331,-0.75,24.9,28.95,-45.89844,-104.49219,1024.41406,0.1404257009569597,0.1276355791324949,0.0927289940926083,73.5,2.25,87.9,-830.07812,44.43359,562.98828,-0.1071178375118999,-0.0214502710399355,-0.0163874199457503,57.3,25.05,20.25
-1079.58984,-20.50781,-233.88672,0.0017320647496791,0.113246561180278,-0.0500949637895168,-1.35,24.9,27.0,-52.73438,-87.89063,1022.94922,0.0904640803222952,0.1063184767144865,0.071944915228159,71.4,1.8,87.6,-843.26172,39.55078,545.41016,-0.0995237354035474,0.0488959225933967,-0.0021317451483858,58.5,23.4,21.6
-1066.40625,-28.32031,-232.42187,0.0301102457224809,0.0454317930940384,-0.0259800985805615,-1.35,25.8,28.5,-74.70703,-89.35547,1020.50781,0.0879326547752027,0.1341638086666545,0.0883323351739094,70.65,1.5,88.35,-840.33203,34.66797,554.6875,-0.068081105330094,0.0097258472567384,0.0283781809728018,58.35,22.95,20.25
-1039.55078,-46.38672,-211.91406,0.0094593354799588,0.0206509102425221,-0.0877993116203503,-0.6,26.25,27.15,-67.38281,-98.14453,1024.90234,0.0361056262360067,0.1124472003828646,0.0887320155726161,70.65,1.5,88.35,-861.32812,26.36719,555.17578,-0.0855343978500373,0.0086599746825454,-0.0018652333716063,57.3,24.0,20.7
-1022.94922,-29.78516,-198.24219,-0.0203843984657425,-0.0602204914449619,-0.0190520141147701,-0.6,25.8,28.5,-68.84766,-131.83594,1030.76172,0.0620857248165682,0.073676805444913,0.0971256530113072,70.65,1.5,88.35,-854.00391,25.39063,575.68359,-0.1005896079777403,0.0169204434993094,-0.0358392889921523,55.8,25.5,20.7
-1019.53125,-39.0625,-214.84375,0.036238969390859,-0.093128674491315,0.0270459711547545,-0.6,25.8,28.5,-101.5625,-137.69531,1047.36328,0.074209828998472,0.0684807857288007,0.1099157748357721,73.05,2.4,86.25,-866.69922,43.94531,576.66016,-0.0699463387017003,0.0285115241276541,0.0214502710399355,55.8,25.5,20.7
-1011.71875,-31.73828,-195.80078,0.0059953805135257,0.0464976656682313,-0.0519601971611231,-0.6,25.05,27.45,-97.65625,-103.02734,1035.64453,0.0411684773301918,0.051827028539196,0.0876661429984231,72.15,2.55,86.1,-875.97656,40.52734,588.37891,-0.0510274932088574,0.0181194846954295,-0.0170536121212365,55.8,25.5,20.7
-988.76953,-47.85156,-197.75391,0.0458314734927451,0.0119907610270514,-0.0195850376683291,-1.8,24.9,27.3,-101.5625,-112.79297,1055.66406,0.0066615726890119,0.0820704428836041,0.1573461444562691,72.9,3.0,86.85,-865.72266,43.94531,616.21094,-0.0047963393174056,0.0246477142295891,0.0567565364785288,57.3,25.8,20.7
-957.51953,-54.6875,-171.38672,0.0564900247017492,0.0321086477160144,-0.0099923590335179,1.2,24.9,28.35,-93.26172,-92.28516,1043.45703,0.0294440535469947,0.0623522365933478,0.0756753819713717,72.9,3.0,86.85,-844.23828,42.96875,583.00781,0.0309096065198943,-0.0127901218244648,-0.0237151848102485,57.3,25.8,20.7
-932.61719,-36.13281,-170.41016,0.0342403928644003,0.0169204434993094,-0.0386370517830992,0.15,24.9,28.05,-79.10156,-125.0,1051.75781,-0.0270459711547545,0.0583552580733556,0.1244379614099161,72.15,2.25,87.15,-833.00781,40.52734,601.07422,0.0519601971611231,-0.0222496318373489,-0.0086599746825454,57.3,23.25,21.0
-939.45312,-0.97656,-161.13281,0.0070612530877186,0.0543582795533633,0.0714118916745999,0.15,24.9,28.05,-40.03906,-119.14063,1028.32031,0.0039969785199922,0.0723445956268657,0.0973919902551615,71.4,3.3,86.85,-825.68359,32.22656,597.65625,0.0325085026476463,0.058088746296576,-0.0698131700797731,57.45,24.15,19.05
-946.77734,0.97656,-164.0625,0.0350397536618137,0.0758085505932989,0.1113813278086717,-0.3,24.75,27.15,-27.34375,-125.48828,1023.4375,0.0387702204050264,0.0651499993842947,0.1119141768293056,71.4,3.3,86.85,-831.05469,31.73828,562.98828,0.1117810082073784,0.068614128883653,0.0002665117767795,59.1,25.05,19.65
-966.30859,-1.46484,-170.89844,-0.0266462907560478,0.10205516095064,0.0698131700797731,0.0,25.5,28.95,-39.55078,-119.62891,1005.85937,0.0385038831611721,0.0023980823922402,0.0850015488294034,71.55,2.7,87.75,-803.22266,44.43359,583.00781,0.078606487917171,0.0552909835056291,-0.0181194846954295,58.2,23.85,21.9
-979.49219,6.83594,-178.22266,-0.0492956029921034,0.0748760211739583,0.1039203943222463,-1.2,25.65,27.3,-53.22266,-95.70313,997.55859,0.0281118437289474,0.0207840788644492,0.0997902471803269,72.3,0.9,87.45,-803.71094,70.3125,559.57031,0.0971256530113072,0.0536922619108023,0.0310429496747467,58.5,24.15,21.9
-997.07031,2.92969,-199.70703,-0.0186523337160634,0.0652833425391471,0.1237717692344298,-0.6,25.5,27.45,-80.07813,-116.69922,972.65625,-0.0660827033365605,0.059687642424328,0.1015221373970809,71.55,1.65,88.05,-804.19922,69.82422,550.78125,0.0651499993842947,0.0106585512090041,-0.0535589187559499,57.15,23.85,21.15
-979.49219,3.41797,-179.19922,-0.0495619402359577,0.0688804661275074,0.1072511806667523,-0.6,25.5,27.45,-99.12109,-118.65234,949.70703,-0.0587549384720623,0.0475635382424242,0.0929953313364626,71.55,1.65,88.05,-816.40625,99.12109,573.73047,-0.0011990411961201,0.0592879620256213,0.023448673033469,57.15,23.85,21.15
-978.02734,10.25391,-182.12891,-0.0965926294577481,0.1205743260447762,0.068614128883653,-0.75,26.4,28.35,-84.47266,-110.35156,951.17187,-0.0337075438437664,0.0659495347146333,0.1157779867273706,73.05,2.4,86.25,-830.56641,94.72656,550.78125,-0.0634181091675407,0.027312482931534,-0.0182526533173567,58.95,23.4,20.55
-969.23828,3.90625,-161.62109,-0.0255804181818548,0.0434333911005048,0.0492956029921034,-1.2,24.6,27.0,-82.51953,-108.39844,973.14453,0.0181194846954295,0.0683476171068735,0.0782068075184643,73.2,2.25,86.1,-835.9375,103.51563,575.68359,-0.1220398790176759,0.0471638578437175,-0.0559571756811154,59.1,24.3,20.7
-957.03125,22.46094,-163.08594,-0.0322419908708668,0.0355727772153728,0.0702128504784798,0.0,25.5,27.15,-99.12109,-102.05078,1002.44141,0.0375711792089063,0.0090596550812521,0.1264363634034496,70.35,0.0,87.9,-838.86719,114.74609,573.24219,-0.1754656291516987,0.0531592383572432,-0.0478300500192038,58.05,24.3,21.3
-941.40625,27.83203,-159.17969,-0.082603291904238,0.1033873707686873,0.0343737360192527,-0.75,24.6,27.0,-91.30859,-85.44922,965.33203,0.0531592383572432,0.0190520141147701,0.1129800494034985,72.3,1.65,86.25,-832.03125,96.67969,589.35547,-0.1961163648612956,0.031309286918601,-0.0508943245869302,57.45,23.1,21.6
-936.52344,42.96875,-157.71484,-0.0466310088230837,0.1072511806667523,0.082603291904238,-0.75,24.6,27.0,-67.38281,-73.73047,988.28125,0.0063950609122324,0.0567565364785288,0.0836691644784309,71.25,3.45,86.7,-833.00781,95.70313,595.70312,-0.2588682818533501,0.0546247913301429,-0.0278453319521679,57.0,22.95,19.95
-907.22656,50.29297,-149.90234,-0.0893982077481023,0.091529778363563,0.0198513749121835,-0.15,24.15,28.05,-77.63672,-73.24219,999.02344,-0.0515605167624164,-0.0075941021083525,0.1117810082073784,72.0,3.45,85.95,-833.00781,80.56641,576.17187,-0.2146355299554318,0.0434333911005048,-0.0275788201753884,58.35,22.95,19.65
-921.875,40.03906,-162.10937,-0.1003230962009608,0.1762649899491121,-0.0447657754514773,-0.15,25.65,28.05,-79.10156,-66.40625,1006.83594,-0.1113813278086717,-0.046897346066938,0.1562802718820762,72.0,3.45,85.95,-837.40234,86.91406,591.30859,-0.2173001241244516,-0.0287778613715085,-0.0159877395470436,58.35,22.95,19.65
-904.78516,29.78516,-183.10547,-0.0830031468358699,0.1658729505168874,-0.0678147680862396,-1.2,25.35,27.75,-86.91406,-100.09766,1003.90625,-0.1191087730718766,-0.0411684773301918,0.1905206647464766,72.6,1.65,85.95,-827.63672,72.26563,590.33203,-0.1853246450303643,-0.0182526533173567,0.002264913770313,59.1,24.0,20.7
-923.33984,18.55469,-201.17187,-0.0957932686603347,0.1534823345582041,-0.0827366350590903,-2.25,25.65,26.7,-69.82422,-184.08203,1002.92969,-0.1762649899491121,-0.0795390173365115,0.1414915735311527,71.25,3.15,87.0,-844.23828,80.56641,587.40234,-0.2005130237799945,-0.0070612530877186,-0.0014655529728996,59.1,24.0,20.7
-947.75391,-12.69531,-217.77344,-0.1028545217480534,0.2535390935153107,-0.1272358987337882,-2.25,25.65,26.7,-80.56641,-226.5625,990.23437,-0.1208406632886305,-0.0074609334864253,0.1616094602201157,71.7,1.5,86.55,-824.70703,55.17578,617.1875,-0.1993139825838744,0.0341072242424731,0.046897346066938,58.8,22.5,21.3
-969.72656,-33.69141,-225.09766,-0.0190520141147701,0.2115712553877054,-0.1025880099712739,-2.1,25.5,26.4,-75.19531,-236.32812,1002.44141,-0.043566559722432,-0.0353062654385932,0.1201746456460695,71.7,1.5,86.55,-830.07812,31.25,577.14844,-0.1736002212471671,0.1116478395854512,0.0258469299586344,57.45,25.65,21.9
-999.51172,-61.03516,-253.90625,0.0394364125805126,0.182393539084565,-0.0707458740320389,-2.1,26.25,27.15,-87.89063,-192.87109,1014.64844,0.0071944217096458,-0.0057288687367461,0.1044532433428802,72.15,0.75,86.55,-850.09766,20.50781,574.70703,-0.1666723113143009,0.0917962901403425,0.049162259837251,58.2,23.4,19.8
-981.44531,-33.69141,-251.46484,0.052493046181757,0.1997136629825811,-0.1350965126189202,0.45,25.35,28.05,-85.9375,-148.4375,1005.37109,0.113246561180278,-0.0389035635598788,0.05475795995207,73.5,1.8,85.8,-833.49609,23.92578,574.70703,-0.1195084534705833,0.0202512298438154,0.0532925815120956,59.25,24.6,21.6
-1002.92969,-21.48438,-254.88281,0.1005896079777403,0.1280352595312016,-0.08420218803199,-2.25,26.4,27.75,-98.14453,-113.28125,1027.83203,0.1524164619840112,-0.0075941021083525,0.0556906639043358,73.95,2.55,87.6,-827.14844,31.25,562.98828,-0.0947273960861418,0.0170536121212365,0.0423675185263119,59.25,24.6,21.6
-1006.34766,-5.85937,-258.78906,0.0699463387017003,0.1251041535854023,-0.0678147680862396,-2.25,26.4,27.75,-89.84375,-87.40234,1043.45703,0.1835925802806851,-0.0271791397766816,-0.0211837592631559,73.05,1.65,88.8,-813.47656,40.52734,577.14844,-0.068081105330094,0.0075941021083525,0.0578224090527217,58.05,24.75,20.7
-1008.30078,10.25391,-235.35156,0.0519601971611231,0.1193751103157309,-0.1225727280383097,-2.7,25.05,26.1,-104.00391,-64.94141,1050.29297,0.1705359466794407,-0.0872664625997164,0.0069280844657914,71.55,1.95,86.7,-843.75,56.64063,572.26562,-0.067015232755901,-0.020117886688963,0.0872664625997164,57.45,24.6,19.5
-964.84375,0.48828,-230.46875,0.0880658233971298,0.0812710820861907,-0.0423675185263119,-0.45,25.35,26.7,-101.07422,-71.28906,1040.52734,0.1133797298022052,-0.0909969293429291,-0.0141225061754373,71.25,2.4,87.75,-825.68359,32.22656,573.24219,-0.070346019100407,0.0763415741468579,0.0127901218244648,57.45,24.6,19.5
-975.58594,-26.85547,-221.67969,0.1148452827751048,0.0173201238980161,0.027312482931534,-1.2,26.1,26.25,-68.84766,-81.05469,1014.64844,0.0496952833908101,-0.0858009096268168,0.0652833425391471,71.25,2.4,87.75,-833.00781,14.16016,576.66016,-0.046897346066938,0.0678147680862396,0.0177198042967228,58.2,25.65,23.25
-953.61328,-42.48047,-225.58594,0.0550244717288496,0.0353062654385932,-0.0366386497895657,0.0,25.5,26.1,-59.57031,-87.89063,1006.34766,0.0247810573844414,-0.0423675185263119,0.0560903443030425,70.65,3.75,86.55,-839.35547,16.11328,572.75391,-0.0087933178373978,0.0414349891069713,0.013456313999951,58.2,24.15,21.9
-968.75,-55.66406,-234.86328,0.077007591789419,0.0869999508229369,0.0222496318373489,0.0,25.5,26.1,-73.73047,-61.03516,1013.67187,-0.0083936374386911,-0.0480965617959833,0.1169770279234907,71.7,2.25,88.35,-820.80078,15.625,558.10547,0.0275788201753884,0.0062618922903052,-0.0017320647496791,58.8,24.0,21.3
-980.46875,-35.15625,-239.74609,0.1424242774834185,0.0265129476011954,-0.013456313999951,-1.2,26.1,26.7,-81.54297,-83.00781,1048.33984,-0.0166539317225298,-0.0896645449919567,0.0869999508229369,70.65,2.55,86.55,-837.89062,13.67187,543.45703,0.0981913510525749,0.0490290912153239,0.0584886012282079,58.5,23.4,21.15
-982.42187,-23.92578,-250.0,0.1173767083221974,0.0303767574992605,0.0023980823922402,-1.5,25.35,26.7,-113.76953,-59.57031,1029.78516,-0.0170536121212365,-0.0743429976203992,0.0615528757959344,70.65,2.55,86.55,-854.00391,28.80859,532.71484,0.1129800494034985,0.0233155044115418,0.0086599746825454,58.35,24.3,22.05
-991.21094,2.44141,-255.85937,0.0676814249313873,0.0836691644784309,-0.0274456515534612,-1.8,25.35,25.95,-81.05469,-112.30469,971.19141,-0.0003996803987067,0.3425374463317811,0.1404257009569597,71.4,3.0,86.55,-854.49219,26.36719,530.76172,0.1674716721117143,-0.0049295079393327,-0.0161209081689708,58.5,25.65,20.55
-1034.66797,30.27344,-280.27344,0.1263031947815224,0.0309096065198943,0.0431668793237253,-2.1,26.25,26.4,-119.62891,-29.29688,995.60547,0.0066615726890119,-0.0059953805135257,0.0644839817417337,73.2,3.75,87.6,-873.53516,53.22266,536.62109,0.1334976164911682,0.039569755735365,-0.0162542513238231,58.5,25.65,20.55
-1045.41016,53.22266,-272.46094,0.0756753819713717,0.0253139064050753,0.0041301471419193,-2.1,26.25,26.4,-116.21094,-98.63281,1012.69531,-0.0544916227082157,0.1052526041402936,0.0819372742616769,73.2,3.75,87.6,-891.11328,62.01172,524.90234,0.1398928519363259,0.0067947413109391,-0.0153215473715574,57.3,24.3,20.25
-1041.01563,56.15234,-283.20312,-0.0221164632154217,0.0190520141147701,-0.0386370517830992,-2.1,26.25,26.4,-149.90234,-105.95703,1025.87891,0.0205175670876697,-0.0151883787496302,0.0038636353651398,73.2,3.75,87.6,-891.60156,69.82422,543.45703,0.0881991665519822,0.0330413516682802,0.0031976177225788,57.3,24.3,20.25
-1035.64453,54.19922,-278.80859,0.0035972981212855,-0.0378376909856858,0.0310429496747467,-1.5,24.9,26.7,-146.48437,-134.76562,985.83984,-0.0985910314512816,-0.0512940049856369,0.03064326927604,72.0,1.2,87.75,-901.85547,58.59375,535.15625,0.1458882324498516,0.0229158240128351,-0.0001331686219271,57.6,25.5,19.95
-1008.30078,43.45703,-278.80859,-0.1075176924435318,-0.0017320647496791,0.0253139064050753,-1.2,25.65,26.25,-122.07031,-135.25391,983.39844,-0.0526263893366094,0.0682144484849463,0.0520933657830503,71.7,3.0,87.9,-896.97266,65.42969,523.4375,0.0778071271197576,0.0033307863445059,0.0079939570399844,58.2,23.1,21.6
-997.07031,36.62109,-264.64844,-0.1308330223221485,-0.0245145456076619,-0.0275788201753884,-1.8,24.9,27.0,-136.71875,-135.25391,996.58203,-0.0075941021083525,0.0242480338308824,0.0109248884528585,72.6,1.65,87.0,-884.76562,74.70703,546.38672,0.0674150876875329,0.0014655529728996,0.0618192130397887,57.9,23.85,20.85
-979.00391,44.92188,-259.27734,-0.0860674214035963,-0.0049295079393327,0.0274456515534612,-1.8,24.9,27.3,-124.02344,-105.95703,991.21094,0.0642174699649541,-0.0311761182966739,-0.0179861415405771,72.6,1.65,87.0,-875.0,74.70703,533.20312,0.1353630243956998,-0.0619525561946411,0.0695466583029936,57.45,24.9,19.8
-960.44922,39.55078,-246.09375,-0.189588135327136,0.031309286918601,-0.0203843984657425,-1.8,24.9,27.3,-131.34766,-106.44531,983.39844,0.0851347174513306,-0.0299770771005538,-0.0278453319521679,72.0,2.7,87.45,-879.39453,91.30859,560.05859,0.0129234649793172,-0.0098591904115907,0.0107917198309313,57.3,25.8,22.05
-936.03516,19.04297,-229.00391,-0.1225727280383097,0.0941945470655079,0.025713586803782,-2.4,25.8,26.85,-131.83594,-81.54297,1002.44141,0.0928621627145355,-0.0363721380127862,-0.0511608363637097,72.15,2.25,88.35,-872.55859,82.51953,548.82812,0.0259800985805615,0.016787100344457,0.0762082309920056,58.05,25.05,21.0
-934.57031,10.25391,-222.65625,-0.0977916706538682,0.0255804181818548,-0.0086599746825454,-0.45,25.65,26.7,-127.44141,-82.51953,1024.90234,0.0739433172216925,-0.0233155044115418,-0.0417013263508257,71.4,1.8,87.15,-850.58594,86.91406,555.66406,0.0495619402359577,-0.0222496318373489,0.0377045223637587,58.05,25.05,21.0
-951.17187,2.44141,-224.60937,-0.1384272989634262,0.0907304175661496,-0.04849624219469,-2.55,26.4,27.0,-103.02734,-85.9375,1005.37109,0.0315757986953806,-0.0209172474863764,-0.0117244237831971,72.0,2.4,87.45,-837.40234,88.37891,541.99219,0.0246477142295891,0.0126569532025376,0.0377045223637587,58.05,24.75,21.0
-938.47656,0.97656,-234.86328,-0.1035207139235396,0.0901975685455157,-0.005595700114819,-2.55,26.4,27.0,-95.70313,-79.10156,997.55859,-0.0023980823922402,-0.0197182062902563,-0.0382373713843925,72.6,1.65,87.0,-843.26172,90.33203,558.10547,0.091529778363563,-0.0381042027624654,0.0504946441882235,57.3,24.0,22.05
-939.94141,-0.48828,-233.88672,-0.0678147680862396,0.071944915228159,0.0337075438437664,-2.25,24.9,25.95,-100.58594,-78.61328,991.69922,0.0127901218244648,-0.0463644970463041,-0.0162542513238231,72.45,3.75,87.9,-823.73047,90.82031,541.50391,0.0847350370526239,-0.0371714988101996,0.1057856276938527,57.3,23.7,19.65
-941.89453,2.44141,-234.375,-0.0207840788644492,0.1247044731866956,-0.0113245688515652,-2.25,25.65,25.65,-93.26172,-94.23828,979.00391,0.0165205885676775,-0.0073277648644981,-0.0330413516682802,72.45,3.75,87.9,-820.80078,83.98438,515.13672,0.0883323351739094,-0.0214502710399355,0.0608866836204481,57.15,23.4,21.9
-939.94141,0.0,-246.09375,-0.0610198522423753,0.1388269793621329,-0.041834669505678,-2.25,25.65,25.65,-94.72656,-82.51953,1002.44141,0.0370383301882724,-0.0119907610270514,-0.0662158719584876,71.55,3.9,85.95,-821.77734,82.03125,530.76172,0.0683476171068735,0.0129234649793172,0.0291777163031404,57.15,23.4,21.9
-958.98437,10.74219,-244.14062,0.0266462907560478,0.1693369054833206,0.0442327518979182,-2.4,25.8,26.1,-90.33203,-89.35547,1007.8125,0.0299770771005538,-0.0331745202902074,-0.0475635382424242,72.45,0.75,86.55,-830.07812,75.19531,559.08203,0.0237151848102485,0.0361056262360067,0.0440995832759911,57.15,24.15,20.85
-1000.0,20.50781,-255.37109,0.0007993607974134,0.1496186991930643,0.0133231453780239,-2.4,25.8,26.1,-115.23438,-84.47266,993.65234,0.011191400229638,-0.0171867807431637,-0.0486294108166172,72.0,3.45,85.65,-831.05469,69.33594,558.10547,0.0676814249313873,-0.0305099261211876,0.0286446927495813,57.0,25.05,20.25
