IMU1_AccX,IMU1_AccY,IMU1_AccZ,IMU1_GyrX,IMU1_GyrY,IMU1_GyrZ,IMU1_MagX,IMU1_MagY,IMU1_MagZ,IMU2_AccX,IMU2_AccY,IMU2_AccZ,IMU2_GyrX,IMU2_GyrY,IMU2_GyrZ,IMU2_MagX,IMU2_MagY,IMU2_MagZ,IMU3_AccX,IMU3_AccY,IMU3_AccZ,IMU3_GyrX,IMU3_GyrY,IMU3_GyrZ,IMU3_MagX,IMU3_MagY,IMU3_MagZ
-964.84375,-31.25,-316.40625,-0.10192181779578767,0.0575558972759422,-0.04969528339081014,-3.0,24.9,24.9,-127.44141,2.92969,1052.73438,0.1077840296873862,0.08699995082293695,-0.030909606519894377,72.45,6.75,86.1,-817.38281,76.17188,596.67969,0.3181562438789715,-0.002398082392240209,-0.006794741310939124,56.7,25.65,24.0
-954.10156,-37.10938,-322.75391,-0.04316687932372535,0.0466310088230837,-0.04236751852631195,-2.55,24.9,24.6,-126.95313,-0.97656,1052.73438,0.05022813241144401,0.06981317007977318,0.0046631706954784495,71.4,6.75,86.55,-813.47656,75.19531,603.02734,0.33707508937181446,0.04290054207987102,0.0365053066347134,56.7,25.65,24.0
-952.63672,-41.50391,-328.61328,-0.041301645952119014,0.03557277721537283,-0.05395859915465669,-2.55,24.9,24.6,-136.23047,-23.92578,1045.89844,0.06022049144496195,-0.012790121824464847,-0.039569755735365045,71.4,6.75,86.55,-826.17187,68.35938,597.65625,0.28058506467006517,0.0373046674321268,-0.021050590641228807,56.7,25.65,24.0
-953.61328,-40.52734,-330.07812,-0.027845331952167932,0.016520588567677526,-0.022516143614128445,-2.55,24.9,24.6,-127.44141,-15.13672,1021.97266,0.02891120452636087,-0.08580090962681684,-0.04969528339081014,72.15,4.05,86.55,-829.10156,73.24219,580.56641,0.30616530831899486,0.026646290756047828,-0.016520588567677526,57.3,25.8,23.55
-947.26562,-42.48047,-337.40234,-0.03570594583729999,0.02038439846574257,-0.047430369620497105,-2.55,24.9,24.6,-121.58203,-20.50781,1013.18359,0.03570594583729999,-0.077007591789419,-0.008526806060618296,72.15,4.05,86.55,-815.91797,58.59375,555.17578,0.3328115990750427,0.03783769098568587,-0.07114555443074566,57.3,25.8,23.55
-944.33594,-52.73438,-331.54297,-0.023448673033469015,0.022516143614128445,-0.02731248293153406,-3.6,24.15,24.9,-115.23438,-30.76172,997.07031,0.05808874629657607,-0.1430902951259795,-0.0038636353651398474,72.15,4.05,86.55,-818.35937,70.3125,562.01172,0.2872466373590772,-0.0005328490206338688,-0.04103530870826468,56.1,26.1,24.3
-956.54297,-39.0625,-334.96094,-0.022915824012835147,0.020784078864449274,-0.09059724894422246,-3.6,24.15,24.9,-110.35156,-53.22266,990.23437,0.039969436134071744,-0.1017886491738605,0.021316927885083145,72.15,4.05,86.55,-827.63672,45.41016,573.24219,0.27805363912297265,-0.015987739547043658,-0.019318525891549636,56.1,26.1,24.3
-957.03125,-61.52344,-338.37891,-0.06794793670816685,0.12577034576088858,-0.09192963329519492,-2.4,24.75,24.3,-83.98438,-33.69141,978.02734,0.05182702853919601,0.012257272803830977,0.021716608283789844,71.25,6.6,86.25,-831.54297,40.52734,590.82031,0.30043643958224875,-0.008659974682545464,-0.029044373148288036,55.2,26.55,23.55
-997.07031,-41.01563,-337.89062,-0.0361056262360067,0.10045643935581322,-0.06248540521527499,-2.4,24.75,24.3,-100.58594,-38.08594,988.76953,0.11044862385640596,0.07514235841781267,-0.012790121824464847,71.25,6.6,86.25,-829.58984,37.10938,573.24219,0.24874275419790506,0.003463954966433146,-0.007727445263204894,55.2,26.55,23.55
-993.65234,-39.0625,-332.51953,-0.06928032105913931,0.04902909121532391,-0.10418690609902591,-4.05,24.9,24.9,-132.8125,-41.50391,997.07031,0.09765850203194111,0.07101221127589329,-0.04516545585018406,71.55,6.15,86.7,-818.84766,8.78906,552.24609,0.2913767845009965,-0.028644692749581334,-0.04063545377663278,56.7,24.9,24.3
-983.88672,-38.57422,-327.63672,-0.03783769098568587,-0.01958503766832917,-0.0831363154577971,-4.05,24.9,24.9,-131.34766,-26.85547,994.62891,0.17906275274005903,0.03357420068891412,-0.04023577337792608,71.55,6.15,86.7,-837.89062,9.76562,561.03516,0.3027013533525617,-0.04356655972243205,-0.003463954966433146,56.7,24.9,24.3
-983.39844,-31.25,-326.17187,-0.04796321864113097,-0.07261110740364529,-0.02198312006056938,-1.35,23.25,25.35,-133.78906,-31.25,1000.97656,0.1508177403891844,0.030643269276040042,-0.015321547371557422,71.55,5.7,86.25,-835.44922,-8.78906,551.75781,0.24980862677209797,-0.026246610357341126,0.016120908168970823,57.0,26.55,24.6
-958.98437,-24.41406,-331.54297,-0.029044373148288036,-0.08233695466038368,0.017986141540577164,-1.35,23.25,25.35,-92.28516,-51.26953,999.02344,0.19838127863160868,0.060087322823034785,0.008793317837397832,71.55,5.7,86.25,-828.125,-10.74219,559.08203,0.2696600016842815,-0.04276719892501865,-0.057689065897869374,57.0,26.55,24.6
-962.40234,-16.60156,-327.63672,-0.08779931162035035,-0.013722825776730615,-0.0093261668580317,-1.35,23.25,25.35,-119.62891,-6.83594,1021.97266,0.2202312300702509,0.0684807857288007,-0.04956194023595778,71.55,5.7,86.25,-830.07812,-26.36719,555.17578,0.2632649407720491,-0.003463954966433146,-0.04076879693148514,57.6,25.8,22.5
-961.42578,-9.76562,-343.26172,-0.11870909267316991,-0.0011990411961201044,-0.02411486520895525,-1.35,23.25,25.35,-155.76172,4.88281,1030.76172,0.15388201495691084,0.09512707648484854,0.019984718067035872,71.55,5.7,86.25,-818.35937,-33.20313,549.31641,0.27272427625200796,0.0002665117767795341,-0.05449162270821576,57.6,25.8,22.5
-954.10156,-6.34766,-325.19531,-0.047830050019203804,-0.01771980429672283,0.012257272803830977,-2.7,24.0,24.3,-146.97266,-7.8125,1045.41016,0.1029876903699806,0.023715184810248553,-0.0007993607974134029,71.25,4.2,86.25,-842.77344,-28.80859,557.61719,0.3673185037162226,-0.015321547371557422,-0.07580855059329891,57.6,25.8,22.5
-964.35547,5.85937,-329.58984,-0.08886518419454328,-0.03916990080373314,-0.02744565155346123,-2.7,24.0,24.3,-154.78516,-12.20703,1025.87891,0.10511943551836647,0.009859190411590769,0.011457912006417574,71.25,4.2,86.25,-818.84766,-41.50391,572.26562,0.34440267970338745,-0.014522186574144018,-0.09792501380872065,57.6,25.8,22.5
-964.84375,9.76562,-338.37891,-0.10725118066675235,-0.034373736019252726,-0.02984373394570144,-2.7,24.3,24.75,-161.62109,-12.69531,1013.18359,0.05688970510045597,-0.03317452029020742,-0.012390441425758144,72.9,6.0,87.15,-842.77344,-39.0625,585.9375,0.3260168577641036,-0.023048992634762316,-0.11870909267316991,56.25,25.8,22.8
-965.33203,0.0,-325.19531,-0.08939820774810235,-0.05462479133014293,0.0579555776746489,-2.7,24.3,24.75,-109.86328,22.46094,1083.00781,-0.1524164619840112,-0.061819213039788753,-0.018385996472209065,72.9,6.0,87.15,-844.72656,-39.55078,576.17187,0.3333446226286018,0.0031976177225788113,-0.10725118066675235,56.25,25.8,22.8
-965.82031,-13.67187,-316.89453,-0.0722112524720134,-0.06075351499852101,0.022116463215421746,-3.3,23.85,24.75,-148.92578,-8.30078,1043.45703,-0.2896447197513174,0.01252378458061051,0.056356856079822104,72.9,6.0,87.15,-835.9375,-41.99219,551.75781,0.3811744981148804,0.02744565155346123,-0.0839356762552105,56.25,25.8,22.8
-948.73047,-7.32422,-321.77734,-0.08007204089007065,-0.11164783958545127,0.05342575013402282,-3.3,23.85,24.15,-157.22656,-57.12891,948.73047,-0.34973204257435214,-0.03464007326310706,0.07607506237007844,72.9,6.0,87.15,-848.63281,-13.18359,547.85156,0.3717151626349215,0.022116463215421746,-0.05449162270821576,56.25,25.8,22.8
-966.79687,-18.06641,-318.35937,-0.14815314622016465,-0.05688970510045597,-0.02038439846574257,-3.3,23.85,24.15,-128.41797,-70.3125,960.9375,-0.20650840429352027,-0.06261874837012736,0.02571358680378206,72.9,6.0,87.15,-839.35547,13.18359,582.51953,0.40968602224253453,-0.011990761027051442,-0.12497098496347518,56.25,25.8,22.8
-979.49219,-29.78516,-316.89453,-0.14135840490922555,-0.07101221127589329,0.0,-2.55,24.15,24.15,-107.91016,-47.36328,1023.92578,-0.2133031456044594,-0.09579326866033477,0.07580855059329891,71.25,4.2,84.6,-831.54297,33.20313,604.00391,0.40528936332383564,-0.00839363743869113,-0.15308265415949743,56.7,25.65,24.0
-967.28516,-23.92578,-314.45312,-0.12990049290280797,-0.07940584871458442,-0.0369049870334201,-2.55,24.15,24.15,-94.23828,-97.65625,1052.73438,-0.22689280275926285,-0.10152213739708096,0.04436592051984546,71.25,4.2,84.6,-820.80078,31.25,599.60937,0.4258071049444306,0.03983609297921937,-0.12590351438281575,56.7,25.65,24.0
-971.67969,-21.48438,-310.05859,-0.06235223659334782,-0.12230621626153024,0.034107224242473186,-2.55,24.15,24.15,-111.81641,-93.26172,1018.55469,-0.2103722141915853,-0.13722825776730616,0.015721227770264124,71.7,7.05,86.85,-819.82422,58.59375,576.17187,0.40848698104641445,-0.00279793732387211,-0.15068457176725725,56.4,24.9,21.6
-984.86328,-30.27344,-314.45312,-0.06248540521527499,-0.1236386006125027,0.05835525807335561,-2.55,24.15,24.15,-111.32813,-78.125,1040.52734,-0.15761248170012354,-0.1273690673557154,-0.026779459377974997,71.7,7.05,86.85,-811.52344,64.94141,562.5,0.4182128283031528,0.025846929958634426,-0.18718987840197063,56.4,24.9,21.6
-978.51562,-20.50781,-301.26953,-0.12110717506541013,-0.07647474276878514,-0.00279793732387211,-2.55,25.65,24.15,-112.79297,-49.80469,1000.48828,-0.1099157748357721,-0.10245484134934674,0.008127125661911596,72.45,6.3,87.15,-818.84766,92.28516,569.82422,0.4123506164115543,-0.0186523337160634,-0.16587295051688747,55.2,24.3,24.15
-974.12109,-20.50781,-293.45703,-0.10085611975451993,-0.12963398112602842,-0.02464771422958912,-2.55,25.65,24.15,-91.30859,-60.54688,998.53516,-0.1394931715376192,-0.1017886491738605,0.015588059148336955,72.45,6.3,87.15,-821.77734,101.07422,582.51953,0.3944976434929043,-0.0025314255470925756,-0.15041805999047772,55.2,24.3,24.15
-964.84375,-13.67187,-308.10547,-0.08926486459324998,-0.11258036900479183,-0.09033073716744291,-3.3,24.9,25.95,-83.00781,-10.25391,1008.78906,-0.14655442462533785,-0.08486838020747627,-0.0058622118915985545,72.45,6.3,87.15,-830.07812,89.35547,601.07422,0.3041669063254614,0.0015987215948268059,-0.15881169742916884,56.55,25.5,23.85
-958.98437,-1.95312,-309.08203,-0.07207808385008622,-0.1057856276938527,-0.04916225983725108,-3.3,24.9,25.95,-77.14844,-85.9375,1012.69531,-0.04143498910697138,-0.021849951438642212,-0.020650910242522108,72.45,6.3,87.15,-825.68359,104.00391,592.77344,0.2992373983861286,0.005728868736746187,-0.2051760199425478,56.55,25.5,23.85
-969.23828,0.97656,-305.66406,-0.06461715036366086,-0.17466609382136014,0.0454317930940384,-2.55,25.35,25.65,-101.5625,-35.15625,1035.64453,0.07580855059329891,-0.00013316862192716734,-0.08753297437649601,72.0,3.9,85.65,-830.56641,107.91016,575.68359,0.29617312381840216,0.03797085960761303,-0.20610872389481358,57.3,24.0,23.1
-976.5625,-4.39453,-311.03516,-0.05382543053272952,-0.16600611913881466,-0.0038636353651398474,-2.55,25.35,25.65,-94.23828,-14.16016,1026.36719,0.008659974682545464,0.013189976756096747,-0.04290054207987102,72.0,3.9,85.65,-823.24219,98.14453,555.66406,0.31722353992670577,0.05449162270821576,-0.2087733180638333,57.3,24.0,23.1
-979.00391,-7.8125,-306.64062,-0.06541651116107426,-0.1821270273077855,0.010525208054151804,-3.15,24.75,25.35,-114.74609,-32.22656,1007.8125,0.014255674797364485,0.001065872574192937,-0.028777861371508503,73.5,6.0,86.55,-833.98437,60.05859,577.14844,0.25527098373206464,0.04143498910697138,-0.2679279369346023,56.7,27.15,22.2
-991.69922,-1.46484,-304.6875,-0.0190520141147701,-0.18226037046263785,-0.019718206290256335,-3.15,24.75,25.35,-118.65234,-12.69531,1042.48047,0.02518073778314819,-0.04463243229662499,-0.012923464979317213,73.5,6.0,86.55,-839.35547,43.94531,577.14844,0.2761884057513663,0.009459335479958867,-0.1775971997671594,56.7,27.15,22.2
-978.51562,-0.97656,-307.61719,-0.08406884487713767,-0.14508887165243822,-0.06741508768753297,-3.15,24.75,25.35,-123.53516,-15.625,1077.14844,0.01585457092511649,-0.05209336578305035,-0.045032112695331694,72.0,5.7,86.25,-821.77734,24.90234,585.44922,0.22689280275926285,0.024514545607661954,-0.24874275419790506,56.7,27.15,22.2
-976.5625,3.41797,-297.85156,-0.05822208945142844,-0.15801233663175543,-0.03863705178309927,-3.15,24.75,25.35,-115.23438,-10.74219,1074.21875,-0.07261110740364529,-0.02278248085798278,-0.02238280045927608,72.0,5.7,86.25,-845.21484,2.92969,574.21875,0.20704142784707935,0.0466310088230837,-0.2508744993462909,56.7,27.15,22.2
-996.58203,20.01953,-302.73437,-0.08713329397778931,-0.15148393256467063,0.006661572689011957,-3.15,25.5,24.3,-131.34766,-12.20703,1056.64063,-0.11817606911961086,-0.035839288992152364,-0.05702304825530834,72.15,6.0,85.8,-853.51562,9.27734,560.05859,0.25873511323142295,0.031575798695380616,-0.2302235891037688,56.25,25.05,23.55
-999.02344,15.625,-309.57031,-0.0652833425391471,-0.20864014944190615,-0.01958503766832917,-3.15,25.5,24.3,-127.44141,-32.22656,1045.89844,-0.13616238519311322,-0.08779931162035035,0.05102749320885741,72.15,6.0,85.8,-852.05078,-3.90625,555.66406,0.2496752836172456,-0.01119140022963804,-0.2347534166443949,56.25,25.05,23.55
-998.53516,10.25391,-316.40625,-0.02731248293153406,-0.22036439869217805,-0.019851374912183504,-3.15,24.0,25.35,-136.23047,-31.25,1019.04297,-0.23368754407020198,-0.0896645449919567,0.005728868736746187,72.45,4.8,85.8,-845.70312,-22.46094,567.87109,0.27792029596812023,0.0482297304179105,-0.1877227274226045,56.25,25.05,23.55
-990.72266,18.55469,-312.01172,-0.03290818304635308,-0.23768452259019418,-0.0458314734927451,-3.15,24.0,25.35,-141.11328,-54.6875,1023.92578,-0.2612665387785156,-0.1462879128485583,0.017453292519943295,72.45,4.8,85.8,-855.95703,-7.8125,583.49609,0.26539668592043497,0.04343339110050489,-0.2157014025296248,56.25,25.05,23.55
-971.67969,11.71875,-316.40625,-0.06115319539722772,-0.18585766858392339,-0.05862176985013514,-2.1,24.75,26.1,-153.32031,-74.70703,1004.39453,-0.344669191480167,-0.09126344111970869,0.027712163330240767,72.0,6.15,87.0,-871.58203,-17.08984,584.47266,0.31535830655509944,0.009192998236104533,-0.16600611913881466,55.5,26.25,23.55
-986.32812,15.625,-316.89453,-0.09659262945774817,-0.19118685692196286,-0.0754088701945922,-2.1,24.75,26.1,-135.25391,-129.39453,1031.25,-0.4364654816205095,-0.12656970655830196,-0.0069280844657914915,72.0,6.15,87.0,-885.74219,-4.88281,557.12891,0.29484073946742967,-0.01212410418190381,-0.1805283057129587,55.5,26.25,23.55
-979.98047,0.48828,-315.42969,-0.12976714974795558,-0.18439211561102373,-0.0567565364785288,-3.6,24.9,24.6,-134.76562,-140.13672,1035.64453,-0.3857045001884317,-0.13509651261892028,0.011324568851565207,72.0,6.15,87.0,-879.88281,-7.32422,550.78125,0.3554609113110983,-0.019185357269622467,-0.17626498994911213,56.25,24.0,22.5
-979.98047,5.37109,-306.15234,-0.0567565364785288,-0.18186069006393116,-0.020251229843815406,-3.6,24.9,24.6,-129.88281,-134.76562,998.53516,-0.33587587364276916,-0.14122506175437316,-0.008926486459324997,72.0,6.15,87.0,-872.55859,0.0,550.78125,0.3850383080129455,-0.02851152412765417,-0.23248850287408188,56.25,24.0,22.5
-968.75,-12.69531,-318.35937,-0.06621587195848767,-0.20864014944190615,-0.03264167126957355,-3.6,24.9,24.6,-125.97656,-86.42578,1005.37109,-0.444459438660494,-0.09539358826162808,0.007327764864498192,71.4,4.5,87.6,-860.35156,9.76562,542.96875,0.37611182155362044,-0.040901965553412314,-0.13403064004472734,56.25,24.0,22.5
-972.16797,-22.94922,-304.6875,-0.07554203881651937,-0.2043766591451344,-0.02051756708766974,-3.6,24.9,24.6,-117.1875,-192.38281,967.28516,-0.44592499163339366,-0.11364624157898477,-0.02038439846574257,71.4,4.5,87.6,-859.86328,51.75781,546.38672,0.25287290133982443,-0.03557277721537283,-0.0275788201753884,56.55,24.75,23.85
-948.73047,-15.13672,-293.94531,-0.09712565301130725,-0.14535520889629253,-0.056356856079822104,-2.1,24.75,25.8,-121.09375,-157.22656,991.69922,-0.3782433921690811,-0.18345941165875795,-0.051960197161123184,71.55,4.2,85.65,-835.9375,63.47656,553.71094,0.3551943995343188,-0.047696706864351436,-0.10152213739708096,56.55,24.75,23.85
-934.57031,-43.94531,-284.17969,-0.10591879631577987,-0.13975950878147356,-0.07873965653909817,-2.1,24.75,25.8,-112.79297,-155.27344,1020.99609,-0.28245029804167154,-0.19371828246905543,-0.09739199025516157,71.55,4.2,85.65,-837.40234,66.40625,564.45312,0.350264891594986,-0.029577396701847107,-0.20903982984061284,56.25,24.75,23.55
-938.47656,-38.57422,-280.27344,-0.10618530809255941,-0.12190653586282353,-0.094860564708069,-1.8,24.6,25.65,-282.22656,-142.57812,974.60937,-0.23288818327278857,-0.3296141558853891,-0.1228392398150893,71.55,4.65,86.7,-845.21484,90.82031,572.26562,0.33587587364276916,-0.05275955795853659,-0.12084066328863059,56.25,24.75,23.55
-943.35937,-70.3125,-291.01562,-0.07114555443074566,-0.13309793609246157,-0.023182161256689485,-1.8,24.6,25.65,-116.21094,-154.29687,866.69922,-0.14815314622016465,-0.43859722676889545,-0.10738434928867951,71.55,4.65,86.7,-848.63281,96.19141,561.52344,0.3090964142647942,-0.01119140022963804,-0.14695410502404457,55.5,25.8,22.8
-942.38281,-56.15234,-271.97266,-0.06395095818817463,-0.11910877307187663,-0.04556513624889076,-1.8,24.15,26.25,-87.89063,-180.66406,839.84375,-0.1317657262744143,-0.3032343769061208,-0.12630319478152247,71.55,4.65,86.7,-860.83984,91.79688,550.78125,0.26020066620432264,0.047696706864351436,-0.09859103145128169,55.5,25.8,22.8
-947.26562,-50.29297,-266.11328,-0.05662319332367644,-0.10485292374158693,-0.04170132635082572,-1.8,24.15,26.25,-132.8125,-75.19531,914.0625,-0.0369049870334201,-0.45112101134950594,-0.16933690548332064,71.55,4.65,86.7,-836.91406,109.86328,548.33984,0.2639311329475353,-0.0019984019935335075,-0.12696938695700868,55.8,24.3,22.5
-950.19531,-57.12891,-260.25391,-0.13363095964602065,-0.055690663904335864,-0.024914226006368657,-1.8,24.15,26.25,-66.89453,-70.3125,951.66016,-0.1353630243956998,-0.5902145024884184,-0.1795957762936181,71.4,3.3,87.15,-841.79687,87.89063,545.89844,0.22622661058377663,-0.009459335479958867,-0.14575488929499925,55.8,24.3,22.5
-952.14844,-41.01563,-258.78906,-0.10591879631577987,-0.07047936225525941,-0.0660827033365605,-1.8,24.15,26.25,-88.37891,-150.87891,984.375,0.08193727426167699,-0.44925577797789956,-0.23581928921858783,71.4,3.3,87.15,-844.72656,96.67969,545.41016,0.26739508791396843,-0.00279793732387211,-0.16760484073364146,55.8,24.3,22.5
-952.63672,-36.62109,-253.90625,-0.1253706653621819,-0.02331550441154185,-0.06075351499852101,-2.7,25.05,26.1,-131.34766,-4.88281,1032.71484,0.07647474276878514,-0.4330015266540764,-0.2161010829283315,72.15,4.5,87.15,-852.53906,101.5625,583.98437,0.25607051906240325,-0.06301842876883405,-0.11164783958545127,55.8,24.3,22.5
-949.21875,-23.92578,-252.92969,-0.10725118066675235,-0.09899088638291359,0.01212410418190381,-2.7,25.05,26.1,-24.41406,-121.58203,1042.96875,-0.0652833425391471,-0.23555277744180833,-0.23115629305603458,72.15,4.5,87.15,-828.125,67.38281,562.5,0.2737901488262009,-0.09539358826162808,-0.1476202971995308,55.8,25.5,23.85
-937.5,-33.20313,-270.99609,-0.1313660458757076,-0.045032112695331694,0.04676417744501087,-2.25,24.9,26.1,-113.76953,-48.82813,952.14844,0.07860648791717102,-0.15801233663175543,-0.23342120682634765,72.15,4.5,87.15,-824.21875,84.47266,554.6875,0.25287290133982443,-0.05422511093143622,-0.17653132719296646,55.8,25.5,23.85
-955.07812,-14.16016,-266.60156,-0.20371064150257337,-0.02011788668896304,0.06341810916754076,-2.25,24.9,24.6,-130.37109,-24.90234,978.02734,0.05955429926947571,-0.15028489136855053,-0.24634449727273963,72.15,4.5,87.15,-808.10547,113.76953,569.33594,0.2639311329475353,-0.07141189167459998,-0.15761248170012354,55.8,25.5,23.85
-954.10156,-14.16016,-257.8125,-0.2613997074004427,0.01358965715480345,0.08540122922811014,-2.55,24.9,24.6,-147.46094,-22.94922,985.35156,0.033973881087620825,-0.20650840429352027,-0.273257299805567,72.15,4.5,87.15,-808.59375,107.42188,576.66016,0.25207354054241105,-0.07007968185655272,-0.20930634161739237,55.8,25.5,23.85
-947.75391,-13.18359,-271.97266,-0.3108284790144733,-0.012390441425758144,0.1366952342137471,-2.55,24.9,25.2,-105.95703,-34.17969,967.77344,-0.05129400498563695,-0.15548091108466286,-0.21463552995543186,70.2,3.9,86.25,-801.75781,104.00391,552.24609,0.2668622388933346,-0.010924888452858507,-0.1807948174897382,55.8,24.0,23.55
-966.79687,-19.04297,-266.60156,-0.342937301263413,0.017852972918649995,0.02931088492506757,-2.55,24.9,25.2,-101.5625,-85.44922,994.14062,0.0275788201753884,-0.12310575159186884,-0.2105053828135125,70.2,3.9,86.25,-822.75391,105.46875,541.50391,0.23741801081341463,-0.05688970510045597,-0.2343537362456882,55.8,24.0,23.55
-962.89062,-26.85547,-267.57812,-0.28991123152809695,-0.03384071246569365,0.15747931307819635,-1.2,24.9,25.95,-102.53906,-103.51563,1008.78906,0.12963398112602842,-0.1877227274226045,-0.203577298347721,71.25,4.65,87.75,-807.12891,81.05469,536.13281,0.19211938634130343,-0.07794029574168478,-0.16360803674657445,57.15,23.4,23.25
-956.05469,-27.34375,-261.71875,-0.31256054376415254,-0.07034601910040704,0.14495552849758583,-1.2,24.9,25.95,-84.47266,-78.125,1018.55469,0.030376757499260505,-0.22622661058377663,-0.2173001241244516,71.25,4.65,87.75,-791.99219,80.07813,544.43359,0.20077953555677408,-0.08913169597132281,-0.16693882309108043,57.15,23.4,23.25
-952.14844,-49.31641,-277.83203,-0.2909769295693646,-0.05622351292496973,0.2031776179490143,-1.2,24.9,25.95,-79.10156,-95.70313,1007.32422,-0.012923464979317213,-0.23888356378631428,-0.19078717652325616,69.75,5.7,87.0,-803.22266,96.67969,571.77734,0.1641408857672083,-0.06754825630946014,-0.21530172213091808,56.25,24.3,23.85
-963.86719,-59.08203,-277.83203,-0.31922211645316445,-0.08859884695068895,0.18718987840197063,-1.2,24.9,25.95,-66.40625,-96.19141,977.05078,-0.10685150026804564,-0.2347534166443949,-0.14722044226789888,69.75,5.7,87.0,-821.77734,87.89063,577.63672,0.1470872736459717,-0.03837054000631974,-0.15721280130141685,56.25,24.3,23.85
-980.95703,-59.57031,-291.99219,-0.2859142530081047,-0.06075351499852101,0.1963828766380752,-3.75,27.3,25.8,-60.05859,-118.65234,942.38281,-0.0847350370526239,-0.14655442462533785,-0.13149921449763477,69.75,5.7,87.0,-798.33984,55.17578,569.33594,0.1513507639427435,-0.02051756708766974,-0.20704142784707935,56.4,23.1,23.25
-979.49219,-61.52344,-270.01953,-0.3198883086286507,-0.045698304870817934,0.14775346582145796,-3.75,27.3,25.8,-45.41016,-109.86328,964.84375,-0.019318525891549636,-0.15388201495691084,-0.1728008604497538,69.75,5.7,87.0,-808.10547,68.35938,560.05859,0.14548855205114491,-0.00186523337160634,-0.1799954566923248,56.4,23.1,23.25
-993.65234,-53.71094,-286.62109,-0.28031855289328567,-0.019718206290256335,0.11298004940349854,-3.0,26.1,25.95,-59.57031,-92.77344,943.35937,-0.04276719892501865,-0.16427405438913548,-0.14548855205114491,71.1,3.3,86.55,-802.24609,77.63672,566.89453,0.1621424837736748,-0.014655355196071187,-0.1714686506317065,56.4,23.1,23.25
-986.32812,-50.29297,-281.25,-0.27112555465718113,-0.018385996472209065,0.11364624157898477,-3.0,26.1,25.95,-47.85156,-67.87109,955.07812,0.004263315763846549,-0.18279321948327173,-0.1869233666251911,71.1,3.3,86.55,-804.6875,83.49609,575.68359,0.1613431229762614,0.0046631706954784495,-0.19132002554389002,56.25,24.75,21.75
-980.46875,-34.17969,-279.29687,-0.28977788837324453,0.0029311059457992773,0.1151117945518844,-3.15,25.8,24.75,-32.71484,-51.26953,968.26172,0.08060488991070451,-0.19811476685482912,-0.19331860207034873,69.75,3.45,87.45,-791.99219,80.56641,593.75,0.16893722508461392,-0.030110245722480975,-0.16427405438913548,56.25,24.75,21.75
-989.74609,-34.17969,-280.76172,-0.21769980452315832,-0.05995397966818241,0.1641408857672083,-3.15,25.8,24.75,-51.75781,-26.36719,980.95703,0.05915461887076901,-0.14442267947695198,-0.18665702938133677,69.75,3.45,87.45,-801.75781,110.83984,562.01172,0.20424349052320723,0.008926486459324997,-0.20291110617223476,56.7,23.1,23.25
-973.14453,-16.60156,-276.85547,-0.19531700406388222,-0.06195255619464112,0.16880405646268679,-1.2,25.65,24.9,-47.85156,-35.64453,1004.39453,0.0373046674321268,-0.1694700741052478,-0.1649402465646217,69.45,3.9,87.45,-801.75781,104.00391,546.38672,0.2222296320637844,0.02238280045927608,-0.20757427686771318,56.7,23.1,23.25
-972.16797,8.78906,-270.99609,-0.19691572565870902,-0.12683621833508152,0.1684043760639801,-1.2,25.65,24.9,-46.875,-16.11328,1007.32422,0.04023577337792608,-0.07687442316749184,-0.17133530747685413,69.45,3.9,87.45,-816.89453,113.76953,540.52734,0.15188361296337732,0.03357420068891412,-0.18266005086134454,56.7,23.1,23.25
-972.16797,25.39063,-272.46094,-0.2603338348262498,-0.023848353432175718,0.1107151356331855,-1.2,25.65,24.9,-81.54297,14.16016,1012.69531,0.021583439661862675,-0.12030781426799673,-0.19478415504324836,72.3,3.15,88.5,-813.96484,138.67187,548.82812,0.21690044372574488,0.007061253087718659,-0.1329647674705344,56.7,23.1,23.25
-973.63281,24.41406,-284.66797,-0.2613997074004427,0.008526806060618296,0.06808110533009401,-1.2,25.65,24.9,-67.87109,-12.20703,1029.78516,-0.007993957039984428,-0.08673361357908262,-0.18106132926651775,72.3,3.15,88.5,-805.66406,134.27734,563.47656,0.20291110617223476,-0.0014655529728996386,-0.1366952342137471,57.9,23.85,23.25
-977.53906,30.76172,-285.15625,-0.25313941311660393,-0.013855994398657782,0.0722112524720134,-1.65,25.8,26.1,-86.91406,-13.67187,1031.73828,-0.003996978519992214,-0.07074587403203896,-0.12910113210539456,70.5,3.9,87.45,-809.57031,122.55859,558.59375,0.18998781572584275,0.006661572689011957,-0.15015154821369817,57.9,23.85,23.25
-975.09766,41.50391,-282.22656,-0.16773818388849382,-0.06728174453268061,0.06341810916754076,-1.65,25.8,26.1,-78.61328,-8.30078,1018.06641,-0.06088668362044818,-0.04609798526952463,-0.13562936163955416,70.5,3.9,87.45,-822.26562,121.58203,555.66406,0.17813022332071848,0.04396624012113876,-0.14455584809887914,57.6,24.3,22.5
-979.00391,36.62109,-275.87891,-0.20184540813096702,-0.13496316946406792,0.09579326866033477,-1.65,25.05,25.05,-108.39844,-12.20703,1010.74219,-0.1115144964305989,-0.09685914123452771,-0.1009892883764471,69.9,4.5,88.35,-798.33984,132.32422,556.15234,0.14562172067307208,-0.011324568851565207,-0.09166312151841538,57.6,24.3,22.5
-981.44531,32.71484,-284.17969,-0.21823282807671737,-0.09605978043711431,0.09819135105257498,-1.65,25.05,25.05,-104.00391,-14.64844,1021.48437,-0.12950081250410125,-0.10272135312612628,-0.04250068714823912,69.9,4.5,88.35,-799.31641,132.8125,548.82812,0.1163108357480045,0.022649312236055614,-0.1212403436873373,58.05,24.3,23.55
-954.58984,25.39063,-271.97266,-0.25980098580561595,-0.01305663360124438,0.0940612039106556,-1.35,27.75,26.1,-89.35547,-43.45703,1019.04297,-0.1430902951259795,-0.09832469420742734,-0.01851916509413623,69.9,4.5,88.35,-795.89844,121.58203,565.42969,0.09579326866033477,0.060087322823034785,-0.158944866051096,58.05,24.3,23.55
-957.03125,27.83203,-266.11328,-0.22342884779282968,-0.06301842876883405,0.034373736019252726,-1.35,27.75,26.1,-65.42969,-57.12891,1012.69531,-0.2051760199425478,-0.11937511031573096,0.019984718067035872,69.9,4.5,88.35,-812.01172,125.0,579.10156,0.03357420068891412,0.09033073716744291,-0.1536156777130565,56.25,24.0,23.1
-954.58984,12.20703,-261.71875,-0.19025415296969708,-0.060087322823034785,0.014389017952216851,-2.7,26.25,26.4,-53.71094,-112.79297,981.93359,-0.19078717652325616,-0.05968764242432808,0.019851374912183504,69.75,3.45,87.0,-813.47656,125.0,579.10156,0.04116847733019184,0.08500154882940344,-0.17506577422006683,56.25,24.0,23.1
-931.15234,-7.32422,-259.76562,-0.1460214010717788,-0.09099692934292915,0.031309286918601076,-2.7,26.25,26.4,-78.125,-90.33203,965.33203,-0.150018379591771,-0.061419532641082054,0.016120908168970823,69.75,3.45,87.0,-796.875,114.74609,561.52344,0.03530626543859329,0.04010260475599891,-0.11804290049768368,57.3,23.25,24.6
-934.08203,6.83594,-253.41797,-0.17240118005104707,-0.06661555235719438,-0.04023577337792608,-2.7,26.25,26.4,-92.77344,-105.95703,942.87109,-0.2476768816237121,-0.07847314476231865,0.006128723668378088,69.9,4.05,86.85,-802.73437,126.46484,565.91797,0.02571358680378206,0.09006439992358858,-0.15215012474015688,57.3,23.25,24.6
-922.85156,-6.83594,-253.90625,-0.11377941020091194,-0.0684807857288007,0.005995380513525721,-2.7,26.25,26.4,-82.51953,-130.37109,933.59375,-0.22289582423927062,-0.058888281626914674,-0.001065872574192937,69.9,4.05,86.85,-805.66406,94.72656,561.52344,-0.006794741310939124,0.05022813241144401,-0.14695410502404457,57.0,22.95,23.1
-902.34375,1.95312,-250.48828,-0.1646737347878422,-0.0186523337160634,-0.09099692934292915,-3.3,27.15,27.0,-59.08203,-131.34766,951.66016,-0.18825575097616357,-0.04116847733019184,0.024381376985734785,70.65,3.75,87.9,-810.05859,108.39844,570.3125,-0.009725847256738402,0.07833997614039148,-0.11790973187575651,57.0,22.95,23.1
-915.03906,-3.41797,-250.0,-0.1289677889505422,-0.014522186574144018,-0.10725118066675235,-3.3,27.15,27.0,-63.96484,-115.72266,959.96094,-0.13349761649116829,0.02518073778314819,-0.06395095818817463,70.65,3.75,87.9,-812.98828,85.44922,566.89453,0.0186523337160634,0.10511943551836647,-0.11098164740996504,57.0,22.95,23.1
-898.4375,2.44141,-254.88281,-0.11178100820737844,0.0046631706954784495,-0.08460186843069674,-2.25,25.35,27.3,-86.91406,-97.16797,976.07422,-0.03970292435729221,0.031309286918601076,-0.09672579807967534,70.65,3.75,87.9,-839.35547,94.72656,570.3125,-0.003996978519992214,0.03703833018827246,-0.16041041902399564,57.0,22.95,23.1
-893.55469,17.57813,-251.95312,-0.09019756854551575,0.03983609297921937,-0.09672579807967534,-2.25,25.35,27.3,-84.47266,-73.73047,979.00391,-0.02558041818185489,0.009859190411590769,-0.04156815772889855,70.65,3.75,87.9,-844.23828,63.96484,577.63672,-0.02611326720248876,0.05235987755982989,-0.13283159884860724,56.7,23.4,23.25
-895.50781,4.39453,-257.8125,-0.07980552911329111,0.029977077100553806,-0.01811948469542953,-1.2,25.65,27.3,-92.77344,-79.10156,990.23437,-0.004796339317405617,0.015588059148336955,-0.06754825630946014,70.8,3.75,87.9,-833.49609,66.89453,588.37891,-0.01585457092511649,0.05395859915465669,-0.1244379614099161,56.7,23.4,23.25
-906.25,-0.48828,-250.97656,-0.035173096816666125,0.026646290756047828,-0.08193727426167699,-1.2,25.65,27.3,-89.84375,-95.70313,1022.46094,0.04050228515470561,0.0030642745677264445,-0.031309286918601076,70.8,2.7,87.0,-838.86719,76.66016,595.21484,-0.007594102108352528,0.06954665830299364,-0.14975186781499147,56.7,23.4,23.25
-900.39062,1.95312,-272.46094,-0.02984373394570144,0.022516143614128445,-0.051560516762416485,-2.7,27.3,26.1,-96.67969,-75.19531,1019.04297,-0.0632847660126884,0.015055210127703087,-0.02558041818185489,70.8,2.7,87.0,-851.07422,73.24219,598.63281,-0.01851916509413623,0.06208572481656829,-0.04929560299210344,56.7,23.4,23.25
-924.31641,-21.48438,-276.36719,-0.07780712711975761,0.06888046612750741,-0.10232167272741956,-2.7,27.3,26.1,-122.07031,-107.42188,1031.25,-0.045698304870817934,0.010924888452858507,-0.04050228515470561,70.2,4.65,88.5,-865.23437,77.63672,599.60937,0.029577396701847107,0.07634157414685798,-0.09539358826162808,56.7,23.4,23.25
-924.31641,-12.20703,-281.25,-0.09712565301130725,0.09312867449131504,-0.0932618431132422,-2.7,27.3,26.1,-107.42188,-110.35156,1056.64063,-0.03757117920890633,0.020251229843815406,-0.02744565155346123,70.2,4.65,88.5,-856.44531,69.82422,593.26172,0.028111843728947466,0.07714093494427138,-0.09192963329519492,57.6,22.95,22.05
-926.26953,-28.80859,-288.57422,-0.08833233517390941,0.10005658442418133,-0.08047172128877735,-2.7,27.3,26.1,-115.72266,-118.65234,1053.22266,-0.08100457030941122,-0.005728868736746187,-0.004796339317405617,70.2,4.65,88.5,-863.28125,73.73047,587.89062,-0.014788698350923554,0.09712565301130725,-0.05955429926947571,57.6,22.95,22.05
-930.17578,-35.64453,-307.12891,0.017320123898016127,0.05102749320885741,-0.0676814249313873,-1.8,26.4,26.25,-105.46875,-125.48828,1039.0625,-0.15388201495691084,-0.03490658503988659,0.0019984019935335075,70.2,4.65,88.5,-872.55859,82.03125,572.26562,0.0186523337160634,0.10352071392353968,-0.044099583275991124,57.15,23.1,23.25
-928.71094,-54.19922,-318.35937,0.030643269276040042,0.11337972980220523,-0.051960197161123184,-1.8,26.4,26.25,-120.60547,-128.90625,1047.85156,-0.15188361296337732,-0.03530626543859329,0.004929507939332785,70.65,1.05,87.6,-864.74609,82.51953,565.42969,0.03837054000631974,0.1029876903699806,-0.05622351292496973,57.15,23.1,23.25
-934.08203,-47.36328,-310.05859,-0.014255674797364485,0.10538594729514601,-0.04196783812760525,-2.1,26.4,26.25,-113.28125,-141.11328,1027.83203,-0.15854518565238931,-0.015321547371557422,-0.007061253087718659,70.65,1.05,87.6,-859.375,80.07813,572.75391,0.027845331952167932,0.11284688078157137,-0.06408430134302699,57.15,22.65,22.65
-948.73047,-40.52734,-322.75391,-0.0022649137703130416,0.17946243313876573,-0.051960197161123184,-2.1,27.0,26.1,-111.81641,-133.30078,1010.74219,-0.12830177130798115,-0.017053612121236593,-0.007993957039984428,70.2,4.2,85.95,-870.60547,97.65625,565.91797,0.017053612121236593,0.10831705324094529,-0.1013889687751538,57.15,22.65,22.65
-966.30859,-35.15625,-330.56641,0.029577396701847107,0.2015788963541875,-0.04103530870826468,-2.1,27.0,26.1,-118.16406,-125.97656,1017.57812,-0.10924958266028587,0.024381376985734785,0.02611326720248876,70.2,4.2,85.95,-855.46875,97.16797,567.87109,0.017186780743163762,0.06594953471463334,-0.03837054000631974,57.0,22.5,22.5
-970.70312,-38.08594,-333.49609,0.008260294283838763,0.17386673302394673,-0.02571358680378206,-1.65,25.8,25.35,-121.58203,-130.37109,1009.76562,-0.05395859915465669,-0.00373046674321268,-0.0015987215948268059,69.75,4.65,86.7,-850.58594,99.12109,571.28906,-0.018785676870915768,0.09472739608614184,-0.02651294760119546,57.0,22.5,22.5
-998.04687,-41.01563,-339.35547,0.05542415212755633,0.1099157748357721,-0.01025887081029747,-1.65,25.8,25.35,-119.14063,-116.21094,1003.90625,-0.011058231607710873,-0.016920443499309427,0.0035972981212855125,69.75,4.65,86.7,-845.70312,115.23438,563.47656,-0.020251229843815406,0.06341810916754076,-0.020251229843815406,58.05,22.5,23.1
-983.39844,-47.36328,-334.47266,0.05235987755982989,0.12190653586282353,-0.025447249559927724,-1.35,26.55,26.85,-107.42188,-118.16406,1018.06641,0.017852972918649995,-0.015188378749630253,0.04170132635082572,69.75,4.65,86.7,-857.42187,109.375,551.75781,0.004796339317405617,0.0466310088230837,-0.006794741310939124,58.05,22.5,23.1
-1007.32422,-41.99219,-335.9375,0.08886518419454328,0.09752533341001395,-0.058488601228207975,-1.35,26.55,26.85,-105.46875,-96.19141,1030.27344,0.03863705178309927,-0.019851374912183504,0.008260294283838763,69.75,4.65,86.7,-864.25781,113.28125,568.35937,-0.048762579438544375,0.02424803383088242,-0.04023577337792608,56.4,23.1,22.2
-994.62891,-44.43359,-336.91406,0.06368444641139509,0.13083302232214852,-0.08899852734939565,-1.35,26.55,26.85,-95.21484,-97.65625,1025.87891,0.023048992634762316,0.008659974682545464,-0.039569755735365045,69.6,3.0,87.6,-876.46484,105.95703,589.84375,-0.0936615235119489,0.0291777163031404,-0.026646290756047828,56.4,23.1,22.2
-985.35156,-42.48047,-348.63281,0.013989337553510148,0.11044862385640596,-0.06554985431592662,-1.35,26.55,26.85,-104.98047,-91.79688,1012.20703,0.04183466950567808,0.052226708937902724,-0.0041301471419193814,69.6,3.0,87.6,-866.69922,101.5625,580.07812,-0.16360803674657445,0.009592678634811233,-0.03370754384376649,56.4,23.1,22.2
-992.67578,-36.62109,-336.42578,0.04330022247857772,0.10325420214676014,-0.039569755735365045,-2.55,27.15,26.25,-95.70313,-85.44922,1027.83203,0.0466310088230837,0.04929560299210344,-0.032375159492794015,70.8,3.15,88.05,-866.21094,115.72266,588.37891,-0.17466609382136014,0.002131745148385874,0.03317452029020742,56.4,23.1,22.2
-987.30469,-25.39063,-328.61328,0.06461715036366086,0.08606742140359638,-0.04449926367469782,-2.55,27.15,26.25,-103.51563,-76.66016,1015.13672,0.04836289903983767,0.009725847256738402,-0.014655355196071187,70.8,3.15,88.05,-859.375,93.26172,588.86719,-0.16760484073364146,0.026912627999902163,0.029710565323774273,56.4,23.85,21.6
-1002.44141,-34.66797,-335.9375,0.06621587195848767,0.04996179516758968,0.04196783812760525,-0.75,25.65,25.95,-86.91406,-81.54297,1030.76172,0.04902909121532391,0.025846929958634426,0.026779459377974997,69.75,4.2,87.45,-851.07422,76.66016,595.21484,-0.14801997759823748,0.03104294967474674,0.0458314734927451,56.4,23.85,21.6
-992.1875,-36.62109,-328.61328,0.06395095818817463,0.028111843728947466,0.021183759263155976,-0.75,25.65,25.95,-78.61328,-73.24219,1045.89844,0.05542415212755633,0.014522186574144018,0.02944405354699474,69.75,4.2,87.45,-850.09766,86.91406,603.51562,-0.23088978127925505,0.025846929958634426,-0.04103530870826468,56.4,23.85,21.6
-990.23437,-30.76172,-335.9375,0.004263315763846549,0.029044373148288036,0.00839363743869113,-1.8,26.7,25.95,-59.08203,-71.77734,1034.17969,0.0182526533173567,0.034773416417959425,0.07487602117395832,68.85,3.0,87.15,-838.86719,72.26563,602.53906,-0.2291577165295759,0.035173096816666125,-0.009592678634811233,56.4,23.85,21.6
-982.91016,-24.41406,-311.52344,-0.021183759263155976,0.03384071246569365,-0.03344103206698695,-1.8,26.7,25.95,-63.96484,-77.14844,1035.15625,-0.018385996472209065,0.053292581512095656,0.010125527655445103,68.85,3.0,87.15,-833.49609,77.14844,609.375,-0.2109050632122192,0.020650910242522108,0.012923464979317213,57.0,23.25,21.3
-975.09766,-33.69141,-324.70703,-0.019851374912183504,0.05129400498563695,-0.029710565323774273,-2.7,25.8,25.35,-51.75781,-96.67969,1024.90234,-0.04143498910697138,0.041301645952119014,0.06901380928235978,68.25,2.7,86.7,-822.75391,64.45313,600.58594,-0.22276265561734346,0.008659974682545464,0.0190520141147701,57.0,23.25,21.3
-965.82031,-52.73438,-299.31641,0.04729702646564473,-0.026912627999902163,0.04223434990438478,-2.7,25.8,25.35,-68.35938,-125.97656,1008.30078,-0.08500154882940344,0.019318525891549636,0.06928032105913931,68.25,2.7,86.7,-836.42578,56.64063,606.44531,-0.20464317092191392,0.019718206290256335,0.030509926121187674,57.0,21.75,22.5
-955.07812,-44.43359,-311.52344,0.06168604441786158,-0.0486294108166172,0.04489894407340452,-2.7,25.8,25.35,-54.6875,-134.27734,1016.11328,-0.059421130647548545,0.04183466950567808,0.1192419416938038,71.1,1.5,87.15,-829.10156,62.5,605.46875,-0.18838891959809073,0.02424803383088242,0.026779459377974997,57.0,21.75,22.5
-959.47266,-44.43359,-283.20312,0.04809656179598333,-0.0069280844657914915,0.0009327039522657697,-2.7,25.8,25.35,-69.33594,-131.34766,991.21094,-0.10032309620096086,0.0377045223637587,0.0811377389313384,71.1,1.5,87.15,-825.68359,41.99219,610.83984,-0.18172734690907877,0.025846929958634426,0.06301842876883405,57.0,21.75,22.5
-957.51953,-43.94531,-284.66797,0.03330786344505979,-0.0046631706954784495,-0.04449926367469782,-2.55,25.65,25.95,-64.94141,-157.22656,1000.0,-0.03623896939085906,-0.006128723668378088,0.03623896939085906,71.1,1.5,87.15,-812.98828,57.12891,609.375,-0.19651604526000233,0.017320123898016127,0.04809656179598333,58.2,24.6,22.2
-957.51953,-42.48047,-283.20312,-0.0019984019935335075,-0.0015987215948268059,-0.038903563559878805,-2.55,25.65,25.95,-61.52344,-135.74219,992.1875,-0.011990761027051442,0.030643269276040042,0.05036147556629638,71.1,1.5,87.15,-831.54297,34.17969,589.35547,-0.16600611913881466,0.03024341434440814,0.047430369620497105,58.2,24.6,22.2
-953.61328,-46.875,-295.41016,-0.016120908168970823,0.011324568851565207,-0.032375159492794015,-1.8,25.35,25.2,-50.29297,-143.55469,1020.01953,-0.0015987215948268059,0.01771980429672283,0.08593407824874401,70.65,2.25,87.9,-825.19531,26.36719,592.28516,-0.17813022332071848,0.0275788201753884,0.06714857591075343,57.3,24.0,22.8
-948.73047,-44.43359,-287.10937,0.04183466950567808,-0.05995397966818241,-0.021583439661862675,-1.8,25.35,25.2,-59.08203,-115.72266,1024.41406,0.019318525891549636,0.0069280844657914915,0.04276719892501865,70.65,2.25,87.9,-829.58984,36.13281,588.86719,-0.14455584809887914,0.035173096816666125,0.061419532641082054,57.3,24.0,22.8
-945.3125,-41.99219,-301.75781,0.0920628019171221,-0.05822208945142844,-0.037171498810199634,-2.55,26.1,25.95,-62.01172,-128.41797,1011.23047,0.04676417744501087,0.00652840406708479,0.05582383252626303,69.6,3.75,88.35,-822.75391,38.57422,588.86719,-0.1605435876459228,-0.01771980429672283,0.0863337586474507,57.45,22.35,23.25
-948.24219,-49.31641,-284.66797,0.05502447172884963,-0.01958503766832917,-0.04343339110050489,-2.55,26.1,25.95,-67.38281,-122.07031,1035.15625,0.04982845201273731,0.0361056262360067,0.07927250555973205,69.6,3.75,88.35,-805.17578,36.62109,585.9375,-0.2015788963541875,0.04330022247857772,0.03530626543859329,57.45,22.35,23.25
-935.54687,-42.48047,-281.25,0.07274427602557246,-0.04729702646564473,-0.03930324395858551,-1.8,25.65,26.7,-66.40625,-133.78906,1032.22656,0.035173096816666125,0.030376757499260505,0.09379486666680127,70.65,3.0,87.9,-808.59375,24.90234,591.30859,-0.17293420360460615,0.029710565323774273,0.0575558972759422,56.7,23.85,23.25
-937.01172,-46.38672,-278.32031,0.03077643789796721,-0.04010260475599891,-0.11577798672737065,-1.8,25.65,26.7,-61.52344,-115.72266,1030.27344,0.035839288992152364,0.03757117920890633,0.10884990226157916,70.65,3.0,87.9,-807.61719,34.17969,555.66406,-0.1649402465646217,0.017453292519943295,0.07394331722169258,56.7,23.85,23.25
-942.38281,-48.82813,-280.76172,0.01811948469542953,0.0046631706954784495,-0.08380250763328333,-1.8,25.65,26.7,-74.70703,-100.58594,1019.04297,0.04383307149921159,0.06128636401915488,0.035839288992152364,70.65,3.0,87.9,-810.54687,41.50391,569.33594,-0.1601439072472161,0.05009496378951684,0.07714093494427138,56.7,23.85,23.25
-958.00781,-63.96484,-281.73828,0.02731248293153406,-0.02224963183734891,-0.05395859915465669,-1.8,25.65,26.7,-68.84766,-94.23828,999.51172,0.02558041818185489,0.06381778956624745,0.0466310088230837,70.65,3.0,87.9,-810.05859,34.17969,553.71094,-0.1934517706922759,0.08859884695068895,0.044099583275991124,56.7,23.85,23.25
-946.28906,-50.78125,-280.27344,0.08020520951199782,-0.04929560299210344,-0.06088668362044818,-1.65,26.55,25.35,-80.56641,-106.44531,1003.41797,0.007727445263204894,0.026912627999902163,0.10018992757903368,70.65,3.0,87.9,-818.84766,32.71484,554.19922,-0.19132002554389002,0.02651294760119546,0.07527570157266503,56.7,22.35,22.95
-956.05469,-61.03516,-288.08594,0.10738434928867951,-0.05395859915465669,-0.04436592051984546,-1.65,26.55,25.35,-60.54688,-119.62891,993.65234,0.020784078864449274,0.03264167126957355,0.06928032105913931,70.8,3.45,88.5,-812.01172,34.17969,578.125,-0.219698381049617,0.05022813241144401,0.05582383252626303,56.7,22.35,22.95
-967.28516,-47.36328,-285.64453,0.08326948407972427,-0.03677181841149293,-0.01305663360124438,-2.4,26.25,25.35,-65.42969,-127.44141,988.76953,0.030509926121187674,0.02944405354699474,0.06661555235719438,70.8,3.45,88.5,-812.98828,40.03906,552.24609,-0.21783314767801065,0.07141189167459998,0.07261110740364529,56.7,22.35,22.95
-962.89062,-45.41016,-283.20312,0.08953137637002952,-0.05542415212755633,-0.023981696587028086,-2.4,26.25,25.35,-65.42969,-115.23438,979.49219,0.07554203881651937,0.026646290756047828,0.07940584871458442,69.9,4.8,87.15,-804.6875,37.59766,556.15234,-0.1353630243956998,0.015321547371557422,0.06315159739076123,56.7,22.35,22.95
-969.72656,-66.40625,-285.15625,0.13043334192344183,-0.06581619155978097,-0.06155287579593442,-3.3,26.1,25.95,-69.82422,-120.60547,958.98437,0.03930324395858551,0.08260329190423803,0.02464771422958912,69.9,4.8,87.15,-806.64062,41.01563,552.73437,-0.19105351376711047,0.060487003221741484,0.04929560299210344,56.7,23.4,22.2
-958.00781,-51.75781,-285.15625,0.09139660974163587,-0.042634030303091486,-0.0058622118915985545,-3.3,26.1,25.95,-62.01172,-120.60547,950.19531,0.06235223659334782,0.033973881087620825,0.05076115596500308,69.9,4.8,87.15,-827.63672,47.85156,577.14844,-0.23888356378631428,0.04916225983725108,0.09272899409260832,56.7,23.4,22.2
-953.61328,-44.43359,-276.85547,0.07687442316749184,-0.017586461141870464,-0.05489130310692246,-3.3,26.1,25.95,-62.01172,-109.86328,941.40625,0.04010260475599891,0.04476577545147736,0.08913169597132281,69.9,4.8,87.15,-828.61328,44.43359,580.56641,-0.23621896961729455,0.044099583275991124,0.07913933693780488,57.0,24.0,22.5
-969.23828,-54.19922,-271.97266,0.05036147556629638,-0.04383307149921159,-0.04356655972243205,-3.3,26.1,25.95,-67.38281,-131.83594,955.56641,0.045032112695331694,0.023448673033469015,0.06208572481656829,70.5,3.15,87.45,-830.07812,33.20313,570.3125,-0.21516837897606572,0.03210864771601448,0.08713329397778931,57.0,24.0,22.5
-957.03125,-52.73438,-272.94922,0.07207808385008622,-0.04689734606693803,-0.004263315763846549,-3.3,25.35,24.9,-75.19531,-120.60547,941.40625,0.05808874629657607,0.0373046674321268,0.053292581512095656,70.5,3.15,87.45,-840.33203,54.19922,551.26953,-0.2194318692728375,0.03264167126957355,0.05342575013402282,55.8,23.25,23.1
-951.66016,-57.61719,-274.90234,0.0924624823158288,-0.10032309620096086,0.05369226191080236,-3.3,25.35,24.9,-81.54297,-125.48828,957.03125,0.08153759386297028,0.05129400498563695,0.08100457030941122,70.2,2.4,87.75,-840.33203,50.29297,548.33984,-0.19318525891549634,0.02331550441154185,0.07047936225525941,55.8,23.25,23.1
-941.40625,-46.38672,-268.06641,0.09859103145128169,-0.05928796202562137,0.018918845492842937,-1.65,25.35,24.9,-90.82031,-114.25781,949.21875,0.05982081104625525,0.07953901733651159,0.02851152412765417,70.2,2.4,87.75,-853.02734,48.82813,560.54687,-0.19811476685482912,-0.0063950609122324234,0.06408430134302699,57.15,23.1,21.6
-946.77734,-51.75781,-283.20312,0.02931088492506757,-0.05169368538434365,-0.04023577337792608,-1.65,25.8,26.4,-91.79688,-110.83984,967.77344,0.05249304618175705,0.11324656118027807,0.02198312006056938,70.65,2.25,88.95,-819.33594,59.08203,566.89453,-0.2627320917514152,0.039969436134071744,0.05822208945142844,57.15,23.1,21.6
-936.03516,-41.50391,-274.90234,0.05609034430304257,-0.008260294283838763,-0.03264167126957355,-1.65,25.8,26.4,-83.00781,-122.07031,988.28125,0.05475795995207009,0.08247012328231085,-0.019851374912183504,70.65,2.25,88.95,-832.03125,45.41016,573.73047,-0.2535390935153107,0.01492186697285072,0.10725118066675235,57.15,23.1,21.6
-935.54687,-49.80469,-281.25,0.039569755735365045,-0.034773416417959425,-0.0385038831611721,-2.4,26.55,25.8,-95.70313,-122.55859,1001.46484,0.06901380928235978,0.07167840345137952,0.028777861371508503,70.65,2.25,88.95,-833.98437,62.01172,549.80469,-0.2876463177577839,0.02558041818185489,0.0936615235119489,57.15,23.1,21.6
-939.94141,-53.22266,-269.04297,0.05369226191080236,-0.00839363743869113,0.03344103206698695,-2.4,26.55,25.8,-98.14453,-125.0,1008.30078,0.06634921511334003,0.1009892883764471,0.05116083636370978,70.65,2.25,88.95,-834.96094,52.73438,550.29297,-0.2595344740288364,0.00186523337160634,0.07847314476231865,57.15,23.1,21.6
-936.03516,-41.01563,-284.66797,0.08220361150553133,0.0069280844657914915,0.04836289903983767,-3.0,26.7,26.25,-93.26172,-103.51563,995.11719,0.06208572481656829,0.09939056678162028,0.06874729750558024,71.1,2.25,86.55,-851.07422,36.13281,562.01172,-0.27871983129845884,-0.02038439846574257,0.06808110533009401,57.45,23.1,22.95
-944.82422,-39.55078,-272.46094,0.12337208883572316,0.015055210127703087,0.027179139776681696,-3.0,26.7,26.25,-119.62891,-119.14063,1002.44141,0.11777638872090417,0.07554203881651937,0.06395095818817463,71.1,2.25,86.55,-840.33203,47.36328,576.17187,-0.3031010337512684,0.04276719892501865,0.058888281626914674,57.45,23.1,22.95
-960.44922,-32.22656,-270.50781,0.07127872305267281,0.03797085960761303,-0.007194421709645826,-3.0,26.7,26.25,-104.98047,-93.75,1017.08984,0.07900616831587771,0.13389747142280017,0.04449926367469782,69.9,3.75,88.95,-843.75,44.43359,580.56641,-0.3204211576492846,0.035173096816666125,0.06701523275590107,57.45,23.1,22.95
-959.96094,-12.69531,-281.73828,0.04729702646564473,0.06101985224237535,0.042634030303091486,-3.0,26.7,26.25,169.92187,-102.53906,1033.20313,0.07980552911329111,0.25393877391401737,0.029577396701847107,69.9,3.75,88.95,-836.42578,55.66406,571.28906,-0.2980383571900085,0.019451694513476805,0.0750091897958855,57.45,23.1,22.95
-968.75,-19.53125,-276.85547,0.04516545585018406,0.08993105676873621,-0.002664594169019743,-2.25,26.4,25.2,-86.91406,-86.91406,1023.4375,0.1390934911389125,0.6705528806223434,0.0038636353651398474,71.1,3.0,88.35,-840.33203,35.64453,557.61719,-0.2755222135758801,-0.019851374912183504,0.08340282723457662,58.35,22.95,23.1
-975.58594,-20.01953,-296.875,0.10312103352483297,0.045032112695331694,0.023981696587028086,-2.25,26.4,25.2,-199.70703,-94.23828,949.21875,0.17213484280719277,0.43619914437665525,0.03943641258051267,71.1,3.0,88.35,-834.47266,49.31641,557.61719,-0.28844567855519726,0.024781057384441488,0.11910877307187663,58.35,22.95,23.1
-989.74609,-28.80859,-290.52734,0.08500154882940344,0.05342575013402282,0.04929560299210344,-2.25,26.1,25.2,-214.84375,-83.00781,950.19531,0.1281684281531288,0.33667540897310777,0.03024341434440814,71.1,3.0,88.95,-857.91016,57.12891,586.91406,-0.3044334181022409,0.02931088492506757,0.1313660458757076,57.15,22.65,21.9
-1002.92969,-21.97266,-288.08594,0.0920628019171221,0.03877022040502644,0.07127872305267281,-2.25,26.1,25.2,-93.26172,-99.60938,1008.30078,0.12656970655830196,0.23009042048184167,0.0652833425391471,71.1,3.0,88.95,-854.49219,52.24609,586.42578,-0.3643873977704233,-0.04010260475599891,0.08766614299842318,57.15,22.65,21.9
-1015.13672,-41.99219,-293.94531,0.035839288992152364,0.08606742140359638,0.016120908168970823,-2.25,25.65,26.25,-89.35547,-105.46875,1024.41406,0.15334916593627698,0.2759218939745868,0.08686678220100978,70.5,3.45,87.75,-860.35156,61.03516,571.77734,-0.33774110701437554,0.012257272803830977,0.08580090962681684,56.4,22.65,22.65
-1004.39453,-25.39063,-302.24609,0.060087322823034785,0.09126344111970869,0.026246610357341126,-2.25,25.65,26.25,-69.82422,-109.375,1039.0625,0.16081009942270233,0.28471521181198456,0.011324568851565207,70.5,3.45,87.75,-870.11719,49.80469,558.10547,-0.30376722592675465,0.0022649137703130416,0.16613928776074183,56.4,22.65,22.65
-1026.85547,-29.78516,-306.64062,0.06821444848494637,0.11537830632866394,0.017852972918649995,-2.55,26.1,25.65,-78.61328,-109.86328,1038.57422,0.1382939558085739,0.3160244987305857,0.08886518419454328,72.0,3.45,88.05,-869.62891,48.33984,546.875,-0.2892450393526107,0.011058231607710873,0.09619294905904148,57.3,23.7,22.8
-1009.76562,-36.13281,-301.26953,0.07434299762039927,0.012390441425758144,0.02238280045927608,-2.55,26.1,25.65,-117.67578,-105.46875,1045.89844,0.12057432604477626,0.2939080355151639,0.08326948407972427,72.0,3.45,88.05,-871.58203,45.41016,575.68359,-0.3027013533525617,-0.03450690464117989,0.17906275274005903,57.3,23.7,22.8
-1004.39453,-36.62109,-306.15234,0.11551147495059111,0.015588059148336955,0.04343339110050489,-2.55,26.1,25.65,-92.28516,-121.09375,1051.75781,0.07674125454556469,0.23568612059666066,0.07900616831587771,72.0,3.45,88.05,-864.74609,38.57422,587.40234,-0.34986521119627934,-0.04036911653277844,0.1666723113143009,56.4,23.85,22.2
-1005.85937,-36.62109,-304.19922,0.08020520951199782,0.012656953202537678,0.0058622118915985545,-2.55,26.1,25.65,-108.39844,-119.14063,1044.43359,0.08739963122164364,0.18319289988197843,0.05022813241144401,72.0,3.45,88.05,-872.55859,8.30078,581.05469,-0.33347779125052895,-0.003996978519992214,0.14295712650405235,56.4,23.85,22.2
-1005.37109,-37.10938,-299.80469,0.03117611829667391,0.02238280045927608,-0.012790121824464847,-1.05,25.8,26.1,-107.42188,-114.74609,1058.10547,0.07420982899847209,0.1957166844625889,0.09819135105257498,71.25,2.7,87.0,-857.42187,18.55469,565.42969,-0.35372902109434434,0.04290054207987102,0.15175044434145019,57.6,24.3,22.8
-1004.88281,-41.99219,-303.22266,0.07647474276878514,0.08180393110682463,0.023048992634762316,-1.05,25.8,26.1,-110.35156,-110.83984,1042.96875,0.07754061534297808,0.12803525953120162,0.03330786344505979,71.25,2.7,87.0,-873.53516,14.16016,546.38672,-0.35292948576400573,0.022516143614128445,0.15827867387560976,57.6,24.3,22.8
-1003.90625,-34.17969,-298.33984,0.09459422746421467,0.08859884695068895,-0.01252378458061051,-2.55,25.35,25.65,-114.25781,-108.88672,1047.85156,0.08886518419454328,0.14815314622016465,0.02224963183734891,71.55,3.45,86.7,-847.65625,1.95312,575.19531,-0.33707508937181446,0.05142717360756412,0.17546562915169872,57.6,24.3,22.8
-985.83984,-33.20313,-314.94141,0.12883462032861503,0.05902145024884184,0.07647474276878514,-2.55,25.35,25.65,-122.55859,-90.82031,1037.59766,0.09392803528872844,0.17133530747685413,0.09659262945774817,71.55,3.45,86.7,-866.21094,9.27734,593.75,-0.3049662671228748,0.031442630073453444,0.16507358971947408,57.6,24.3,22.8
-990.72266,-12.20703,-293.45703,0.08620059002552354,0.05982081104625525,0.04556513624889076,-2.1,27.0,26.4,-114.74609,-87.89063,1016.60156,0.08606742140359638,0.17240118005104707,0.07860648791717102,70.8,3.9,87.0,-859.86328,14.64844,586.42578,-0.2641974701913896,0.06741508768753297,0.16387437399042878,56.25,24.3,23.85
-991.69922,-31.25,-307.61719,0.1057856276938527,0.03943641258051267,0.018918845492842937,-2.1,27.0,26.4,-129.88281,-94.72656,1013.18359,0.06235223659334782,0.17253452320589946,0.055290983505629165,70.8,3.9,87.0,-859.86328,28.80859,591.30859,-0.23555277744180833,0.04516545585018406,0.15921137782787553,56.25,24.3,23.85
-989.25781,-35.64453,-297.85156,0.06701523275590107,0.13069985370022136,-0.014522186574144018,-1.5,26.7,25.95,-133.30078,-107.91016,1035.64453,0.05782240905272174,0.18599083720585052,0.07660791139071231,70.8,3.9,87.0,-849.12109,28.80859,574.21875,-0.20810712588834707,0.047830050019203804,0.15654678365885577,56.25,24.3,23.85
-980.46875,-42.48047,-275.87891,0.06634921511334003,0.06421746996495417,0.012656953202537678,-1.5,26.7,25.95,-118.65234,-96.19141,1039.55078,0.10405356294417353,0.20291110617223476,0.0839356762552105,70.8,3.9,87.0,-856.93359,23.4375,567.87109,-0.16307501319301537,0.044099583275991124,0.19798159823290198,56.25,24.3,23.85
-977.05078,-38.57422,-289.0625,0.05235987755982989,0.11244720038286467,0.02224963183734891,-1.5,26.7,25.95,-116.69922,-102.05078,1052.73438,0.09126344111970869,0.25447162293465125,0.06408430134302699,70.8,3.9,87.0,-848.63281,43.94531,572.26562,-0.19798159823290198,0.03384071246569365,0.21583457115155197,56.25,24.3,23.85
-956.05469,-50.29297,-288.57422,0.09392803528872844,0.07727410356619854,0.0482297304179105,-1.5,26.7,25.95,-132.8125,-95.21484,1018.55469,0.08939820774810235,0.2468775208262987,0.06901380928235978,72.15,3.3,87.9,-850.58594,59.08203,570.3125,-0.16800452113234815,0.014788698350923554,0.18186069006393116,56.55,24.0,23.85
-952.14844,-55.66406,-280.76172,0.07034601910040704,0.08127108208619076,0.04116847733019184,-3.15,25.05,25.35,-131.83594,-81.54297,1009.27734,0.09166312151841538,0.27072587425847444,0.16320818181494254,72.15,3.3,87.9,-841.30859,51.26953,565.42969,-0.18679019800326394,0.06115319539722772,0.18252688223941738,56.55,24.0,23.85
-948.73047,-44.92188,-288.08594,0.1077840296873862,0.05315923835724329,0.04183466950567808,-3.15,25.05,25.35,-134.76562,-68.84766,1017.57812,0.02944405354699474,0.2617993877991494,0.1253706653621819,72.6,2.7,87.75,-819.82422,63.96484,533.20312,-0.14868599524079854,-0.0025314255470925756,0.1730673722265333,57.0,24.3,23.55
-940.91797,-46.38672,-284.17969,0.0470306892217904,0.12417144963313657,-0.022915824012835147,-3.15,25.05,24.75,-117.1875,-108.39844,1017.08984,0.09139660974163587,0.2876463177577839,0.10125580015322662,72.6,2.7,87.75,-823.73047,41.99219,568.35937,-0.22302916739412298,0.05089432458693025,0.1714686506317065,57.0,24.3,23.55
-940.91797,-48.82813,-266.60156,0.05382543053272952,0.10551911591707318,-0.03290818304635308,-3.15,25.05,24.75,-105.46875,-91.30859,1015.625,0.1236386006125027,0.2736569802042737,0.11750987694412462,72.6,2.7,87.75,-829.58984,57.12891,577.14844,-0.2981715258119357,0.02704597115475453,0.14935218741628475,57.0,25.05,23.85
-932.12891,-60.05859,-276.85547,0.09046408032229529,0.1289677889505422,-0.020650910242522108,-3.45,24.75,26.1,-114.25781,-42.96875,1035.64453,0.05782240905272174,0.3282817715344166,0.0920628019171221,72.6,2.7,87.75,-806.15234,51.75781,568.35937,-0.27911951169716553,0.07181157207330668,0.15374884633498367,57.0,25.05,23.85
-937.01172,-58.59375,-256.34766,0.11084847878803786,0.14002602055825306,0.09699230985645488,-3.45,24.75,26.1,-168.94531,-55.17578,1037.10938,0.02931088492506757,0.22356201641475687,0.08273663505909039,71.25,3.15,86.7,-825.68359,75.19531,562.5,-0.27099238603525394,0.11817606911961086,0.10711783751189999,57.0,24.0,22.8
-928.22266,-45.89844,-284.66797,0.11218068860608514,0.08819916655198225,0.07847314476231865,-2.55,26.1,25.2,-91.79688,-98.63281,1017.57812,0.04050228515470561,0.371448650858142,0.08926486459324998,71.25,3.15,86.7,-803.71094,60.54688,560.54687,-0.2400826049824344,0.062219067971420655,0.09352835489002174,57.0,24.0,22.8
-934.08203,-43.94531,-298.82812,0.16813786428720054,0.13736142638923332,0.11884226129509709,-2.55,26.1,25.2,-144.53125,-65.91797,987.79297,0.11124815918674456,0.36172280360140363,0.13509651261892028,72.45,4.05,86.1,-821.77734,25.39063,531.73828,-0.2632649407720491,0.08593407824874401,0.16387437399042878,56.4,23.4,23.25
-952.63672,-17.08984,-294.43359,0.08513471745133061,0.2031776179490143,0.05289272658046376,-2.55,26.1,25.2,-155.76172,-55.66406,988.28125,0.12377176923442987,0.27272427625200796,0.11617766712607734,72.45,4.05,86.1,-811.03516,28.80859,550.29297,-0.2744563410016871,0.08033837813392498,0.15921137782787553,56.4,23.4,23.25
-954.58984,-18.55469,-296.875,0.13789427540986718,0.2619325564210766,0.08326948407972427,-2.55,26.1,25.2,-135.74219,-77.63672,994.62891,0.07847314476231865,0.2558040072856237,0.04902909121532391,72.15,4.8,88.35,-812.5,35.15625,579.58984,-0.3049662671228748,0.11337972980220523,0.13189889489634146,56.7,24.9,23.25
-962.40234,-9.27734,-293.94531,0.08140425070811792,0.1998468316045083,0.06355127778946792,-2.55,26.1,25.2,-131.34766,-61.03516,1006.34766,0.1057856276938527,0.231955653853448,0.04196783812760525,72.15,4.8,88.35,-807.61719,22.46094,574.21875,-0.31069531039254616,0.09232931369390163,0.1382939558085739,56.7,24.9,23.25
-971.19141,-25.39063,-297.36328,0.13269825569375487,0.1293674693492489,0.12990049290280797,-3.3,26.1,25.95,-134.27734,-59.57031,1011.23047,0.1370949146124538,0.20490968269869347,0.11790973187575651,72.15,4.8,88.35,-833.49609,44.43359,536.13281,-0.24647784042759202,0.1013889687751538,0.18092798611166538,56.7,24.9,23.25
-965.33203,-12.69531,-299.31641,0.08993105676873621,0.12617002615959527,0.08833233517390941,-3.3,26.1,25.95,-137.20703,-61.03516,1016.60156,0.16400771714528115,0.17679783896974602,0.13802761856471957,72.15,4.8,88.35,-825.68359,37.10938,567.87109,-0.3177565634802648,0.07021285047847989,0.24647784042759202,56.7,24.9,23.25
-970.21484,-17.57813,-309.57031,0.1151117945518844,0.11830941227446322,0.05808874629657607,-3.3,24.9,25.2,-106.93359,-31.25,1018.06641,0.13496316946406792,0.21916535749605795,0.13802761856471957,74.25,4.05,86.85,-814.45312,35.15625,583.00781,-0.3101622868389871,0.0486294108166172,0.1759984781723326,57.45,25.35,22.95
-964.35547,-14.64844,-310.05859,0.10072277659966757,0.1545482071323971,0.025447249559927724,-3.3,24.9,25.2,-125.97656,-18.55469,1013.18359,0.04250068714823912,0.19718223743548857,0.15095108354403677,74.25,4.05,86.85,-820.3125,39.55078,592.28516,-0.3242847930144244,0.0571562168772355,0.15974422684850942,57.45,25.35,22.95
-974.60937,-10.74219,-296.875,0.0896645449919567,0.12830177130798115,0.04330022247857772,-3.6,25.65,24.9,-118.65234,-42.96875,1015.625,0.010525208054151804,0.1341638086666545,0.18252688223941738,72.3,5.7,87.45,-825.68359,47.85156,589.35547,-0.2595344740288364,0.06541651116107426,0.07940584871458442,57.45,25.35,22.95
-987.30469,-32.71484,-308.59375,0.058488601228207975,0.1236386006125027,0.01811948469542953,-3.6,25.65,24.9,-113.28125,-41.50391,1010.25391,0.034373736019252726,0.1536156777130565,0.1759984781723326,72.3,5.7,87.45,-821.28906,43.45703,561.52344,-0.28524806083261844,0.10924958266028587,0.11524496317381157,57.45,25.35,22.95
-979.98047,-32.22656,-302.24609,0.11657734752478405,0.07047936225525941,0.09792501380872065,-2.55,25.65,25.95,-106.93359,-64.94141,1005.37109,0.04103530870826468,0.1212403436873373,0.1909203451451833,72.9,4.5,86.55,-835.9375,37.59766,592.77344,-0.24061562853599347,0.09272899409260832,0.18092798611166538,57.3,24.3,22.5
-979.00391,-45.41016,-303.22266,0.12377176923442987,0.03837054000631974,0.07687442316749184,-2.55,25.65,25.95,-115.23438,-79.10156,993.16406,0.023848353432175718,0.09952373540354745,0.15321599731434982,72.9,4.5,86.55,-834.96094,27.34375,617.67578,-0.2963062924403293,0.12923430072732173,0.12710255557893585,57.3,24.3,22.5
-964.35547,-55.17578,-294.92187,0.09925722362676792,0.022915824012835147,0.03903673218180597,-2.55,25.65,25.95,-93.26172,-95.70313,995.60547,0.04183466950567808,0.10418690609902591,0.14015918918018025,71.7,4.5,86.1,-838.37891,25.39063,645.50781,-0.2776539587242659,0.0972588216332344,0.1629418445710882,57.0,25.5,22.8
-955.56641,-57.12891,-300.78125,0.06794793670816685,0.10165548055193334,-0.0470306892217904,-2.55,25.65,25.95,-96.67969,-91.30859,996.09375,0.10978260621384492,0.12790191637634926,0.17852990371942518,71.7,4.5,86.1,-835.44922,29.78516,631.83594,-0.23222199109730232,0.12510415358540233,0.19025415296969708,57.0,25.5,22.8
-933.10547,-34.17969,-293.45703,0.1033873707686873,0.08526806060618297,-0.03277483989150072,-1.35,25.8,25.35,-97.65625,-37.10938,1030.27344,-0.015454890526409788,0.1192419416938038,0.20530936309740017,73.2,5.25,87.6,-831.05469,37.10938,597.65625,-0.1942511314896893,0.09339518626809457,0.14828631484209184,54.9,24.9,22.8
-943.84766,-37.59766,-286.13281,0.06621587195848767,0.10112245699837426,-0.011457912006417574,-1.35,25.8,25.35,-107.42188,-91.30859,1026.85547,-0.03330786344505979,0.06062017184366865,0.1950504922871027,73.2,5.25,87.6,-836.42578,40.52734,580.56641,-0.1151117945518844,0.1111148160318922,0.132165406673121,54.9,24.9,22.65
-933.10547,-32.71484,-282.71484,0.09672579807967534,0.06701523275590107,-0.0381042027624654,-1.35,26.25,26.1,-119.62891,-121.58203,1032.71484,-0.012257272803830977,0.09832469420742734,0.15641344050400344,72.0,3.45,86.25,-830.56641,52.24609,602.05078,-0.10765086106545904,0.09939056678162028,0.14855282661887137,57.3,24.9,22.65
-922.85156,-17.08984,-296.875,0.132165406673121,0.014522186574144018,0.03304135166828025,-1.35,26.25,26.1,-108.39844,-92.28516,993.16406,0.04303371070179819,0.04103530870826468,0.16520675834140125,72.0,3.45,86.25,-820.80078,50.78125,633.30078,-0.10871673363965198,0.08087140168748405,0.17733086252330507,57.3,25.05,23.85
-931.64062,-32.22656,-279.29687,0.10898307088350632,0.10352071392353968,0.028245012350874635,-3.6,25.35,24.9,-115.72266,-65.42969,992.67578,0.0377045223637587,0.10045643935581322,0.20291110617223476,72.0,3.45,86.25,-823.73047,36.13281,632.8125,-0.09792501380872065,0.10152213739708096,0.2023782571516009,57.3,25.05,23.85
-930.17578,-25.87891,-292.96875,0.08580090962681684,0.08859884695068895,0.05462479133014293,-3.6,25.35,24.9,-135.25391,-55.66406,997.07031,-0.08673361357908262,0.03570594583729999,0.2067749160702998,72.0,3.45,86.25,-824.70703,27.83203,587.89062,-0.09472739608614184,0.09006439992358858,0.18665702938133677,56.7,25.35,23.25
-939.45312,-33.20313,-290.52734,0.06248540521527499,0.09419454706550798,0.019318525891549636,-3.75,25.05,24.75,-95.21484,-102.53906,998.53516,0.028644692749581334,0.05955429926947571,0.17320054084846048,72.6,4.2,87.75,-828.125,20.99609,569.33594,-0.11684385930156357,0.06381778956624745,0.16533992696332844,56.7,25.35,23.25
-957.03125,-37.59766,-291.01562,0.0632847660126884,0.10605213947063225,0.007727445263204894,-3.75,25.05,24.75,-103.02734,-88.37891,1013.67187,0.19545017268580941,0.02411486520895525,0.1545482071323971,72.6,4.2,87.75,-824.70703,36.13281,579.58984,-0.14508887165243822,0.07087904265396612,0.16653896815944855,57.0,25.05,23.55
-952.63672,-18.06641,-297.85156,0.06208572481656829,0.12137368684218967,-0.03024341434440814,-3.75,25.05,24.75,-124.51172,-63.47656,1027.34375,0.167871352510421,0.025447249559927724,0.11244720038286467,72.45,5.55,86.85,-831.05469,21.97266,588.37891,-0.17506577422006683,0.05022813241144401,0.1637412053685016,57.0,25.05,23.55
-964.35547,-37.10938,-294.43359,0.06315159739076123,0.06514999938429474,0.02051756708766974,-3.75,25.05,24.75,-92.28516,-62.5,1016.11328,0.1398928519363259,0.031309286918601076,0.17093562707814744,72.45,5.55,86.85,-830.07812,40.03906,576.66016,-0.09699230985645488,0.060087322823034785,0.1557472483285172,57.0,25.05,23.55
-973.63281,-28.32031,-300.29297,0.1009892883764471,0.08953137637002952,0.013855994398657782,-3.45,25.05,24.0,-108.39844,-70.3125,1008.30078,0.15907803467302317,0.03623896939085906,0.15921137782787553,72.9,5.25,86.85,-826.66016,34.66797,584.96094,-0.16693882309108043,0.08366916447843097,0.11271371215964421,57.0,25.05,23.55
-979.98047,-47.36328,-315.91797,0.05036147556629638,0.0046631706954784495,0.020251229843815406,-3.45,25.05,24.0,-131.34766,-94.23828,1012.20703,0.23248850287408188,-0.017986141540577164,0.15841201703046212,72.9,5.25,86.85,-851.07422,33.69141,558.59375,-0.21410268093479798,0.09899088638291359,0.21263712796189838,56.1,24.9,23.25
-980.95703,-42.96875,-298.33984,0.01065855120900417,0.05742272865401504,-0.052226708937902724,-3.75,26.25,24.3,-125.48828,-85.44922,1017.57812,0.3643873977704233,-0.07287744464749962,0.13842729896342626,72.9,5.25,86.85,-845.70312,28.80859,585.44922,-0.2651301741436554,0.1107151356331855,0.12790191637634926,56.1,24.9,23.25
-963.37891,-57.61719,-311.52344,0.04649766566823133,0.047830050019203804,0.01025887081029747,-3.75,26.25,24.3,-170.41016,-78.125,1039.0625,0.24940894637339128,-0.16147629159818858,0.1528161423827179,72.9,5.25,86.85,-843.75,29.29688,611.81641,-0.28604742163003183,0.052226708937902724,0.16533992696332844,56.55,27.0,23.1
-949.21875,-41.01563,-317.87109,0.07327712504620633,0.048496242194690044,0.01958503766832917,-3.15,24.3,23.7,-118.16406,-65.91797,1031.25,0.1682710329091277,-0.1990474708070949,0.21063855143543964,72.9,5.25,86.85,-840.82031,28.32031,627.44141,-0.25313941311660393,0.059421130647548545,0.1974487492122681,56.55,27.0,23.1
-932.61719,-42.48047,-322.75391,0.10365388254546684,-0.012390441425758144,0.03264167126957355,-3.15,24.3,23.7,-96.19141,-75.68359,1020.99609,0.09885754322806121,-0.08073805853263168,0.16573960736203514,70.65,4.8,86.85,-830.56641,13.18359,591.79687,-0.2514073483669248,0.0863337586474507,0.18585766858392339,57.0,25.05,22.05
-925.78125,-43.94531,-302.24609,0.09019756854551575,0.0377045223637587,0.02011788668896304,-3.6,25.35,24.6,-154.29687,-56.64063,1009.76562,0.07567538197137175,-0.11684385930156357,0.12350543199057554,70.65,4.8,86.85,-838.37891,24.90234,587.89062,-0.24274737368437935,0.06022049144496195,0.19371828246905543,57.0,25.05,22.05
-940.91797,-40.03906,-312.5,0.10645181986933895,0.016520588567677526,0.06781476808623968,-3.6,25.35,24.6,-130.37109,-70.3125,1006.83594,0.08873201557261612,-0.13363095964602065,0.18905511177357698,71.4,5.25,86.85,-834.96094,-0.97656,592.77344,-0.25247322094111774,0.027845331952167932,0.14282395788212518,56.25,26.25,23.55
-932.12891,-44.43359,-308.10547,0.0377045223637587,0.08566774100488968,0.013722825776730615,-3.6,25.35,24.6,-134.27734,-85.44922,997.07031,0.1252373222073295,-0.15468155028724945,0.15801233663175543,71.4,5.25,86.85,-838.37891,-4.88281,591.79687,-0.2206309104689576,-0.002664594169019743,0.21117157498899872,56.25,26.25,23.55
-933.59375,-30.76172,-297.85156,0.07301078780235198,0.11724353970027028,0.0002665117767795341,-3.6,25.35,24.6,-133.78906,-73.24219,967.28516,0.20077953555677408,-0.08273663505909039,0.12310575159186884,71.4,5.25,86.85,-838.86719,-10.74219,581.05469,-0.18612400582777772,-0.03570594583729999,0.18838891959809073,57.45,27.15,22.95
-938.47656,-39.0625,-314.94141,0.06701523275590107,0.09499390786292138,0.011058231607710873,-2.25,25.65,24.15,-152.83203,-58.59375,980.95703,0.24461260705598567,-0.04489894407340452,0.09446088430936231,71.4,5.25,86.85,-820.80078,4.88281,601.5625,-0.17679783896974602,-0.06928032105913931,0.19145336869874238,57.45,27.15,22.95
-942.38281,-25.39063,-298.33984,0.10485292374158693,0.05928796202562137,0.10805054146416575,-2.25,25.65,24.15,-128.41797,-11.23047,985.35156,0.26246557997463565,-0.03930324395858551,0.1293674693492489,72.15,4.8,86.55,-813.47656,-27.34375,598.63281,-0.17240118005104707,-0.04116847733019184,0.11737670832219745,57.0,25.05,21.3
-926.75781,-29.29688,-295.41016,0.07993869773521828,0.07860648791717102,0.07407648584361974,-3.45,26.25,24.75,-121.58203,24.41406,992.1875,0.10471975511965978,-0.020784078864449274,0.18958813532713606,72.15,4.8,86.55,-826.66016,-5.85937,596.67969,-0.1634746935917221,-0.05462479133014293,0.17653132719296646,57.0,25.05,21.3
-924.80469,-5.85937,-299.80469,0.06381778956624745,0.10938292581513821,0.08806582339712987,-3.45,26.25,24.75,-155.27344,19.04297,1015.625,-0.020650910242522108,-0.1464210814704855,0.240882140312773,73.2,5.55,85.8,-824.70703,5.37109,596.19141,-0.13856046758535343,-0.04250068714823912,0.1131133925583509,57.0,25.05,21.3
-923.82812,-13.67187,-301.75781,0.05835525807335561,0.14508887165243822,0.06634921511334003,-4.05,23.85,25.65,-116.69922,-57.61719,1028.32031,0.21676727510381774,-0.13043334192344183,0.1353630243956998,73.2,5.55,85.8,-842.77344,-3.90625,607.42187,-0.15601376010529672,-0.03677181841149293,0.1424242774834185,57.0,25.05,21.3
-918.94531,6.34766,-290.52734,0.07820680751846432,0.14615474422663116,0.07967236049136395,-4.05,23.85,25.65,-126.95313,15.13672,1053.71094,0.22769216355667624,-0.08020520951199782,0.12830177130798115,72.6,5.7,86.25,-817.87109,17.57813,617.1875,-0.17320054084846048,0.0035972981212855125,0.16120977982140902,56.55,25.8,23.85
-909.66797,8.78906,-284.66797,0.10511943551836647,0.16800452113234815,0.03357420068891412,-4.05,23.85,25.65,-84.96094,8.78906,1032.22656,0.06874729750558024,-0.08686678220100978,0.19438430011161645,72.6,5.7,86.25,-831.05469,26.36719,610.83984,-0.17493260559813967,0.04476577545147736,0.1107151356331855,56.55,25.8,23.85
-912.59766,-1.46484,-293.45703,0.10045643935581322,0.08526806060618297,0.1289677889505422,-4.05,23.85,25.65,-113.76953,-28.80859,1003.41797,0.15707963267948966,0.02224963183734891,0.17093562707814744,72.6,5.7,86.25,-839.84375,46.875,605.46875,-0.17693100759167316,0.0458314734927451,0.03903673218180597,56.55,25.8,23.85
-912.10937,23.4375,-288.57422,0.06754825630946014,0.09166312151841538,0.1276355791324949,-4.05,23.85,25.65,-126.46484,12.20703,1012.69531,0.1870567097800435,-0.031975479094087315,0.21010570241480578,72.6,5.7,86.25,-846.19141,30.27344,604.49219,-0.2155680593747724,-0.02464771422958912,0.07274427602557246,56.55,25.8,23.85
-906.73828,4.88281,-296.875,0.11417909059961863,0.14535520889629253,0.08140425070811792,-4.2,25.8,24.3,-118.16406,28.80859,1045.41016,0.10698466888997281,-0.037171498810199634,0.20104587280062844,71.7,6.0,87.6,-829.58984,41.01563,604.98047,-0.16747167211171432,-0.025313906405075356,0.09113009796485633,56.55,25.8,23.85
-897.46094,37.59766,-297.36328,0.05342575013402282,0.1462879128485583,0.05382543053272952,-4.2,25.8,24.3,-118.16406,10.25391,1054.6875,0.1293674693492489,-0.023048992634762316,0.21916535749605795,71.7,6.0,87.6,-843.75,41.01563,620.11719,-0.17013626628073403,-0.04290054207987102,0.09339518626809457,56.55,26.55,22.8
-910.15625,22.46094,-305.17578,0.0006661921754862356,0.18479179600973042,0.05395859915465669,-3.15,26.55,25.05,-129.88281,20.99609,1059.57031,0.07327712504620633,-0.02558041818185489,0.2117044240096326,73.05,5.4,86.25,-821.28906,32.22656,622.55859,-0.17373356440201956,-0.07420982899847209,0.08580090962681684,56.55,26.55,22.8
-910.15625,21.97266,-303.22266,0.02091724748637644,0.1726676918278266,0.021849951438642212,-3.15,26.55,25.05,-109.375,14.64844,1069.33594,0.07274427602557246,0.0025314255470925756,0.20264476892838043,73.05,5.4,86.25,-832.03125,10.74219,621.09375,-0.10165548055193334,-0.06461715036366086,0.06594953471463334,55.35,25.65,22.95
-928.22266,32.22656,-297.85156,0.017986141540577164,0.16720516033493477,0.14215776570663893,-4.65,26.1,24.15,-104.00391,17.08984,1066.40625,0.030909606519894377,-0.03757117920890633,0.23115629305603458,72.0,6.15,85.65,-825.19531,33.20313,618.65234,-0.12377176923442987,-0.04649766566823133,0.004796339317405617,55.35,25.65,22.95
-917.48047,39.55078,-305.17578,0.02278248085798278,0.10312103352483297,0.1013889687751538,-4.65,26.1,24.15,-132.8125,-4.88281,1062.5,-0.00039968039870670147,-0.02984373394570144,0.22929088515150303,72.0,6.15,85.65,-821.77734,8.78906,583.98437,-0.10618530809255941,-0.0063950609122324234,0.08620059002552354,57.45,25.65,22.2
-935.54687,25.87891,-318.35937,0.01492186697285072,0.13602904203826086,0.08087140168748405,-4.35,24.6,24.15,-121.09375,-18.55469,1059.57031,0.016520588567677526,-0.03424039286440035,0.22516073800958367,72.15,4.5,86.1,-812.5,-14.16016,579.58984,-0.09805818243064782,-0.035839288992152364,0.05235987755982989,57.45,25.65,22.2
-938.47656,35.64453,-317.38281,0.0014655529728996386,0.17972894491554528,0.0466310088230837,-4.35,24.6,24.15,-120.60547,-13.18359,1049.80469,-0.03530626543859329,-0.04969528339081014,0.24208118150889307,72.15,4.5,86.1,-816.40625,-22.46094,580.56641,-0.06368444641139509,-0.009059655081252166,0.023848353432175718,55.2,27.0,23.1
-963.37891,46.38672,-336.91406,-0.021849951438642212,0.18612400582777772,0.06035383459981431,-4.35,24.6,24.15,-125.97656,-42.96875,1019.53125,-0.00279793732387211,-0.05915461887076901,0.26219906819785616,71.25,6.6,87.45,-817.87109,-22.46094,576.66016,-0.07154523482945235,-0.016920443499309427,0.07207808385008622,55.2,27.0,23.1
-965.33203,25.39063,-345.70312,-0.022649312236055614,0.17679783896974602,0.039969436134071744,-4.35,24.6,24.15,-137.69531,-31.25,1033.20313,0.004529827540626083,-0.06514999938429474,0.22449472036702264,71.25,6.6,87.45,-823.24219,-16.11328,573.24219,-0.011058231607710873,-0.0011990411961201044,0.04796321864113097,56.25,26.55,23.1
-983.88672,43.94531,-345.21484,-0.01771980429672283,0.13629555381504038,0.0,-3.0,26.4,24.9,-130.37109,-51.26953,1026.36719,-0.0381042027624654,-0.007194421709645826,0.2562036876843304,71.4,7.5,87.15,-822.26562,-24.41406,563.96484,-0.06101985224237535,0.01358965715480345,0.07993869773521828,56.25,26.55,23.1
-973.14453,33.20313,-348.14453,-0.011324568851565207,0.10738434928867951,0.12297240843701647,-3.0,26.4,24.9,-108.39844,-64.45313,1007.32422,-0.0831363154577971,-0.01358965715480345,0.20144555319933513,71.4,7.5,87.15,-834.47266,-22.46094,566.40625,-0.06754825630946014,-0.004796339317405617,0.1452220402743654,56.7,25.65,23.25
-978.51562,30.76172,-366.21094,0.01212410418190381,0.10325420214676014,0.08953137637002952,-3.0,25.65,23.85,-128.90625,-60.54688,1012.69531,-0.06714857591075343,-0.031708967317307775,0.19611636486129563,71.4,7.5,87.15,-825.19531,-23.92578,580.07812,-0.01625425132382319,0.03543943406052046,0.031975479094087315,56.7,25.65,23.25
-975.58594,19.04297,-358.39844,-0.005995380513525721,0.07740727218812571,0.0972588216332344,-3.0,25.65,23.85,-140.13672,-77.63672,991.69922,-0.0972588216332344,0.011990761027051442,0.17173498787556082,71.4,7.5,87.15,-840.33203,-15.13672,582.51953,0.0038636353651398474,-0.02571358680378206,0.06994633870170035,56.7,25.65,23.25
-961.42578,36.13281,-368.16406,-0.05435827955336339,0.11098164740996504,0.02944405354699474,-4.5,24.3,24.3,-125.97656,-86.42578,974.12109,-0.08060488991070451,-0.03357420068891412,0.18745639017875018,72.0,6.6,87.0,-835.44922,-8.78906,574.70703,0.009192998236104533,0.04423275189791829,0.018785676870915768,56.7,25.65,23.25
-971.67969,31.25,-359.86328,-0.06408430134302699,0.11298004940349854,-0.015454890526409788,-4.5,24.3,24.3,-119.62891,-83.98438,983.39844,-0.08380250763328333,-0.0029311059457992773,0.1849249646316576,72.0,6.6,87.0,-835.9375,4.39453,555.17578,0.05036147556629638,-0.0058622118915985545,0.02464771422958912,56.7,25.35,22.65
-969.23828,40.03906,-347.16797,-0.08047172128877735,0.07660791139071231,-0.02651294760119546,-4.5,25.8,25.05,-102.53906,-76.17188,983.88672,-0.025313906405075356,0.0022649137703130416,0.12497098496347518,72.15,5.55,86.85,-823.73047,10.25391,579.58984,0.031575798695380616,-0.02424803383088242,0.002664594169019743,56.7,25.35,22.65
-944.33594,41.01563,-353.51562,-0.018918845492842937,0.07207808385008622,0.05302606973531612,-4.5,25.8,25.05,-121.09375,-92.28516,961.91406,0.00839363743869113,0.04303371070179819,0.11604432397122498,72.15,5.55,86.85,-831.05469,18.55469,583.00781,0.03490658503988659,-0.04316687932372535,0.04343339110050489,56.7,25.35,22.65
-947.26562,50.29297,-341.79687,-0.03783769098568587,0.04170132635082572,0.05209336578305035,-4.5,25.8,25.05,-120.60547,-62.01172,951.17187,0.03623896939085906,0.014788698350923554,0.12190653586282353,71.25,4.65,87.75,-808.59375,29.29688,572.75391,0.04996179516758968,0.0006661921754862356,0.024514545607661954,56.7,25.35,22.65
-932.12891,56.15234,-338.86719,-0.04676417744501087,0.01958503766832917,0.10165548055193334,-4.5,25.8,25.05,-124.51172,-56.15234,981.93359,0.05928796202562137,0.05422511093143622,0.08060488991070451,71.25,4.65,87.75,-833.00781,26.36719,562.5,0.06674889551204674,0.009859190411590769,0.05209336578305035,57.45,27.45,23.7
-925.78125,49.80469,-340.82031,-0.08566774100488968,0.07634157414685798,0.011990761027051442,-4.35,26.1,23.55,-114.74609,-58.10547,959.47266,0.021050590641228807,-0.038903563559878805,0.11750987694412462,71.25,4.65,87.75,-820.80078,20.99609,552.73437,0.0847350370526239,-0.024914226006368657,0.041301645952119014,57.45,27.45,23.7
-917.96875,54.6875,-341.30859,-0.0936615235119489,0.05395859915465669,0.02891120452636087,-4.35,26.1,23.55,-124.02344,-33.69141,959.47266,0.04929560299210344,0.00013316862192716734,0.03597245761407953,71.25,4.65,87.75,-815.91797,30.76172,579.58984,0.020251229843815406,-0.03837054000631974,-0.0030642745677264445,55.2,27.0,23.55
-910.64453,63.96484,-329.58984,-0.10738434928867951,0.07900616831587771,0.04969528339081014,-3.6,26.1,24.6,-99.60938,-41.01563,979.00391,0.03384071246569365,0.05502447172884963,0.02238280045927608,71.25,4.65,87.75,-812.98828,46.38672,595.70312,-0.016653931722529894,-0.03970292435729221,0.02011788668896304,55.2,27.0,23.55
-924.31641,73.24219,-324.70703,-0.05968764242432808,0.04103530870826468,0.07794029574168478,-3.6,26.1,24.6,-124.51172,-22.46094,974.60937,0.05662319332367644,0.053558918755949994,0.08926486459324998,71.25,6.6,87.45,-826.66016,28.80859,615.23437,-0.021050590641228807,-0.035039753661813756,0.0283781809728018,55.2,27.0,23.55
-891.11328,56.64063,-313.96484,-0.05609034430304257,0.006661572689011957,0.06808110533009401,-5.1,25.65,24.6,-121.09375,-17.08984,982.91016,0.03877022040502644,-0.009592678634811233,0.02984373394570144,71.25,6.6,87.45,-817.87109,37.59766,580.56641,0.02224963183734891,0.03743801058697916,-0.0007993607974134029,55.2,27.3,23.85
-906.25,56.15234,-310.05859,-0.07167840345137952,0.0377045223637587,0.08819916655198225,-5.1,25.65,24.6,-121.58203,-29.78516,993.65234,-0.011724423783197109,0.02198312006056938,0.05582383252626303,71.4,6.3,86.55,-826.17187,39.55078,576.17187,0.008127125661911596,0.05542415212755633,-0.01492186697285072,55.2,27.3,23.85
-920.41016,58.10547,-319.33594,-0.13443032044343403,0.12097400644348297,0.06941348968106648,-5.4,26.1,25.2,-117.1875,-32.22656,1006.83594,-0.040901965553412314,0.026779459377974997,0.06062017184366865,71.4,6.3,86.55,-840.82031,16.11328,591.79687,0.003463954966433146,0.003463954966433146,-0.05622351292496973,56.1,26.4,22.65
-914.0625,55.17578,-315.42969,-0.16853754468590723,0.10805054146416575,0.06261874837012736,-5.4,26.1,25.2,-116.21094,-44.92188,1005.37109,-0.06022049144496195,-0.008127125661911596,0.019718206290256335,71.4,6.3,86.55,-829.58984,22.94922,600.58594,-0.012390441425758144,-0.017586461141870464,-0.028245012350874635,56.1,26.4,22.65
-890.13672,46.38672,-313.96484,-0.10671815711319327,0.11444560237639817,0.019318525891549636,-5.4,26.1,25.2,-124.51172,-35.64453,1014.16016,-0.03863705178309927,-0.0035972981212855125,0.04956194023595778,71.4,6.3,86.55,-818.84766,26.36719,594.23828,-0.011457912006417574,0.007594102108352528,-0.05582383252626303,57.3,25.5,23.55
-902.83203,37.10938,-328.125,-0.06821444848494637,0.08606742140359638,0.09979024718032699,-5.4,26.1,25.2,-119.14063,-44.92188,1024.90234,-0.04103530870826468,-0.029710565323774273,0.048762579438544375,73.35,5.7,87.0,-833.49609,0.97656,585.44922,0.007993957039984428,0.043699902877284424,-0.0291777163031404,57.3,25.5,23.55
-916.50391,30.27344,-328.61328,-0.035173096816666125,0.07727410356619854,0.07021285047847989,-3.45,25.05,24.75,-136.23047,-75.68359,1030.76172,-0.14295712650405235,-0.0486294108166172,0.07847314476231865,73.35,5.7,87.0,-819.33594,8.30078,579.10156,0.024914226006368657,0.02518073778314819,-0.009192998236104533,55.65,25.65,24.0
-925.78125,28.80859,-339.84375,-0.07767378396490525,0.06475031898558803,0.09073041756614963,-3.45,25.05,24.75,-140.13672,-90.33203,1004.88281,-0.09126344111970869,-0.021583439661862675,0.07087904265396612,70.8,5.7,85.65,-838.37891,1.95312,583.49609,0.04076879693148514,0.026246610357341126,-0.06475031898558803,55.65,25.65,24.0
-931.64062,25.39063,-334.47266,-0.11404592197769146,0.16081009942270233,0.01851916509413623,-4.2,25.8,24.3,-140.13672,-75.68359,997.55859,-0.05062781281015071,0.006794741310939124,0.04796321864113097,70.8,5.7,85.65,-817.38281,6.83594,601.07422,0.07247776424879292,-0.007860613885132062,0.006794741310939124,55.65,25.65,24.0
-930.17578,23.92578,-357.42187,-0.05449162270821576,0.1013889687751538,-0.0005328490206338688,-4.2,25.8,24.3,-142.57812,-109.86328,1007.8125,-0.04476577545147736,-0.005462531492891852,-0.0025314255470925756,71.1,5.55,86.85,-847.16797,1.46484,598.14453,0.07993869773521828,0.026379778979268294,-0.0275788201753884,55.65,25.65,24.0
-939.94141,27.34375,-345.21484,-0.08739963122164364,0.11471211415317771,-0.05209336578305035,-4.2,25.05,24.0,-129.39453,-96.19141,1004.88281,0.0069280844657914915,0.0,-0.0011990411961201044,71.1,5.55,86.85,-845.21484,0.48828,576.17187,0.11724353970027028,0.0365053066347134,-0.04716385784371757,56.7,26.7,23.7
-949.70703,26.36719,-361.81641,-0.021316927885083145,0.053292581512095656,0.021316927885083145,-4.2,25.05,24.0,-146.97266,-96.19141,1019.04297,0.04902909121532391,-0.10325420214676014,-0.04956194023595778,71.1,5.55,86.85,-864.74609,-9.76562,553.22266,0.16307501319301537,0.04303371070179819,-0.0011990411961201044,56.7,26.7,23.7
-958.98437,14.64844,-369.62891,-0.04156815772889855,0.04076879693148514,-0.0002665117767795341,-4.95,25.05,25.05,-133.30078,-87.89063,1033.20313,0.03597245761407953,-0.015987739547043658,-0.05649002470174927,71.1,5.55,86.85,-859.375,4.88281,552.24609,0.18106132926651775,-0.014788698350923554,-0.00186523337160634,56.55,26.25,24.15
-962.40234,9.76562,-372.07031,-0.01492186697285072,0.07167840345137952,0.0029311059457992773,-4.95,25.05,25.05,-130.37109,-89.35547,1024.90234,0.051960197161123184,-0.0676814249313873,0.00652840406708479,72.0,6.15,87.0,-861.81641,-4.88281,564.94141,0.23009042048184167,-0.017852972918649995,0.001065872574192937,56.55,26.25,24.15
-972.16797,8.30078,-364.25781,-0.03916990080373314,0.08286980368101757,-0.014122506175437317,-4.95,25.05,25.05,-117.67578,-82.51953,1039.0625,0.09739199025516157,0.03024341434440814,-0.07194491522815906,72.0,6.15,87.0,-870.11719,11.71875,587.89062,0.18612400582777772,-0.04063545377663278,-0.04010260475599891,56.55,27.3,23.85
-965.82031,20.50781,-379.88281,-0.03637213801278623,0.096459460835821,-0.027179139776681696,-4.95,25.05,25.05,-153.80859,-54.6875,1026.36719,0.03623896939085906,-0.0722112524720134,-0.06794793670816685,70.5,4.95,86.7,-846.19141,18.55469,585.9375,0.18132766651037208,-0.016920443499309427,-0.017186780743163762,56.55,27.3,23.85
-953.125,29.29688,-367.1875,-0.013189976756096747,0.11790973187575651,-0.024514545607661954,-4.95,25.05,25.05,-123.04688,-55.66406,1026.85547,0.048496242194690044,-0.08087140168748405,-0.05862176985013514,70.5,4.95,86.7,-861.32812,19.04297,541.50391,0.2071745964690065,0.07021285047847989,0.01305663360124438,55.65,27.45,23.7
-955.07812,25.87891,-374.02344,-0.010924888452858507,0.09113009796485633,-0.025313906405075356,-5.25,24.3,23.7,-133.30078,-59.57031,1013.67187,0.025313906405075356,-0.10152213739708096,-0.07007968185655272,71.7,5.55,86.1,-853.51562,30.76172,527.83203,0.2680612800894547,-0.0377045223637587,-0.00279793732387211,55.65,27.45,23.7
-958.00781,20.50781,-370.60547,0.022915824012835147,0.034773416417959425,-0.014788698350923554,-5.25,24.3,23.7,-125.0,-61.03516,1020.99609,0.05462479133014293,-0.08819916655198225,-0.03304135166828025,71.7,5.55,86.1,-855.46875,5.85937,540.52734,0.2314226302998889,0.00746093348642536,-0.03703833018827246,55.2,28.05,22.8
-961.42578,18.06641,-367.67578,0.04143498910697138,0.023715184810248553,0.0063950609122324234,-4.95,26.25,22.65,-144.53125,-24.41406,1006.34766,0.035173096816666125,-0.055690663904335864,-0.1115144964305989,72.3,5.4,85.65,-849.60937,18.55469,558.59375,0.21703361234767207,-0.0009327039522657697,-0.03663864978956576,55.2,28.05,22.8
-953.125,41.01563,-369.14062,-0.02931088492506757,0.05449162270821576,-0.03424039286440035,-4.95,26.25,22.65,-132.8125,-41.01563,1017.08984,-0.02411486520895525,0.00559570011481902,-0.094860564708069,72.3,5.4,85.65,-856.93359,12.69531,577.14844,0.20597555527288638,0.0013323843509724712,-0.02011788668896304,55.65,26.1,23.7
-951.66016,39.55078,-362.30469,-0.022649312236055614,0.05422511093143622,-0.03703833018827246,-4.05,26.1,23.85,-148.92578,-56.64063,1004.39453,-0.04529862447211123,-0.04676417744501087,-0.10432007472095307,71.1,4.8,85.5,-844.23828,28.80859,562.5,0.2287580361308692,-0.003463954966433146,-0.05049464418822355,55.65,26.1,23.7
-961.91406,30.27344,-363.28125,-0.06501683076236757,0.07714093494427138,-0.05515781488370199,-4.05,26.1,23.85,-128.90625,-51.26953,989.74609,-0.051560516762416485,-0.05369226191080236,-0.08540122922811014,71.1,4.8,85.5,-844.72656,9.27734,550.78125,0.23701833041470793,-0.030909606519894377,-0.04716385784371757,55.65,26.1,23.7
-958.49609,30.27344,-368.16406,-0.00746093348642536,-0.03903673218180597,-0.00373046674321268,-4.95,26.25,24.75,-140.625,-65.91797,1001.46484,-0.0811377389313384,-0.03663864978956576,-0.08220361150553133,70.8,6.6,87.75,-833.98437,20.50781,567.87109,0.28751297460293146,-0.07194491522815906,-0.03344103206698695,55.65,26.1,23.7
-971.19141,33.69141,-360.83984,-0.0033307863445059785,0.02411486520895525,0.023182161256689485,-4.95,26.25,24.75,-145.99609,-53.71094,1000.0,-0.03877022040502644,-0.053292581512095656,-0.10125580015322662,70.8,6.6,87.75,-849.60937,19.04297,572.26562,0.31162783981188674,-0.043699902877284424,-0.019318525891549636,55.65,26.1,23.7
-973.14453,28.80859,-365.23437,-0.01851916509413623,-0.012390441425758144,-0.015454890526409788,-4.95,26.25,24.75,-121.58203,-39.0625,1015.13672,-0.04356655972243205,-0.045032112695331694,-0.0920628019171221,70.8,6.6,87.75,-847.16797,34.66797,576.17187,0.26459732512302153,-0.007327764864498192,-0.04516545585018406,57.15,27.15,23.7
-976.07422,16.11328,-362.79297,-0.04489894407340452,0.009592678634811233,-0.043699902877284424,-4.95,26.25,24.75,-130.37109,-40.52734,1017.08984,-0.030509926121187674,-0.02145027103993551,-0.0811377389313384,70.8,6.6,87.75,-825.68359,42.96875,558.59375,0.2796523607177994,-0.017852972918649995,0.0041301471419193814,57.15,27.15,23.7
-971.19141,23.92578,-363.76953,-0.04489894407340452,-0.007860613885132062,-0.05395859915465669,-5.25,25.5,23.7,-141.11328,-41.99219,1027.34375,-0.04170132635082572,-0.05342575013402282,-0.11164783958545127,71.7,5.25,86.55,-839.35547,41.99219,558.10547,0.30483309850094764,-0.007594102108352528,-0.03623896939085906,57.15,27.15,23.7
-963.86719,23.4375,-355.95703,-0.026646290756047828,0.014788698350923554,0.007860613885132062,-5.25,25.5,23.7,-137.69531,-16.60156,1012.69531,-0.06235223659334782,-0.08047172128877735,-0.07687442316749184,71.7,5.25,86.55,-837.40234,37.59766,575.68359,0.23768452259019418,-0.008526806060618296,-0.06874729750558024,57.15,27.15,23.7
-970.21484,23.92578,-368.65234,0.009192998236104533,-0.04103530870826468,-0.03530626543859329,-3.75,25.05,23.25,-124.51172,-21.48438,1023.4375,-0.06541651116107426,-0.05489130310692246,-0.06355127778946792,72.45,5.55,87.15,-833.49609,56.15234,598.63281,0.23328786367149526,0.015987739547043658,-0.08753297437649601,57.0,27.0,23.1
-948.24219,9.76562,-343.75,0.023848353432175718,-0.031442630073453444,-0.0291777163031404,-3.75,25.05,23.25,-144.04297,-43.45703,1024.90234,-0.07887282516102534,-0.08047172128877735,-0.09912405500484074,72.45,5.55,87.15,-852.05078,50.78125,611.81641,0.18359258028068512,0.013189976756096747,-0.024514545607661954,57.0,27.0,23.1
-947.26562,11.71875,-351.5625,0.0058622118915985545,-0.025047394628295826,0.004929507939332785,-3.15,25.8,23.25,-125.48828,-33.69141,1028.32031,-0.11604432397122498,-0.07687442316749184,-0.09579326866033477,71.7,7.05,86.85,-841.30859,63.96484,587.89062,0.2155680593747724,-0.00039968039870670147,-0.09259565093775597,56.25,25.8,24.15
-931.15234,2.92969,-344.23828,-0.007327764864498192,0.0093261668580317,-0.04929560299210344,-3.15,25.8,23.25,-114.74609,-20.50781,1046.38672,-0.08100457030941122,-0.10152213739708096,-0.09179629014034256,71.7,7.05,86.85,-846.67969,61.03516,571.28906,0.25234005231919054,0.021183759263155976,-0.07301078780235198,56.25,25.8,24.15
-941.40625,-2.92969,-330.07812,-0.02238280045927608,-0.053292581512095656,-0.13043334192344183,-5.4,26.4,23.55,-125.97656,-38.08594,1067.87109,-0.07167840345137952,-0.08779931162035035,-0.0847350370526239,71.7,7.05,86.85,-836.91406,64.45313,579.58984,0.23501992842117445,0.04476577545147736,-0.06928032105913931,56.55,27.3,22.5
-935.54687,-16.11328,-334.96094,-0.01585457092511649,0.012257272803830977,-0.10325420214676014,-5.4,26.4,23.55,-95.70313,-40.03906,1038.57422,-0.05009496378951684,-0.13802761856471957,-0.08220361150553133,70.65,6.0,85.5,-848.14453,63.47656,585.9375,0.21849916532057173,0.0013323843509724712,-0.09992341580225415,56.55,27.3,22.5
-940.91797,-17.57813,-347.16797,0.05515781488370199,-0.08486838020747627,-0.05982081104625525,-5.4,26.4,23.55,-100.58594,-56.15234,1046.875,-0.06088668362044818,-0.10525260414029364,-0.11817606911961086,70.65,6.0,85.5,-833.00781,60.54688,577.63672,0.23235533425215468,-0.0058622118915985545,-0.0644839817417337,56.7,26.1,23.7
-946.28906,-12.20703,-330.07812,0.05742272865401504,-0.08446852527584436,-0.040901965553412314,-5.4,26.4,23.55,-102.05078,-59.08203,1058.10547,-0.026246610357341126,-0.10325420214676014,-0.10085611975451993,72.9,6.3,85.5,-840.33203,64.45313,581.54297,0.231955653853448,0.0006661921754862356,-0.09632611768096865,56.7,26.1,23.7
-942.38281,-7.8125,-336.91406,0.047430369620497105,-0.06035383459981431,-0.07900616831587771,-3.6,25.35,23.55,-112.30469,-41.99219,1037.59766,-0.03597245761407953,-0.1057856276938527,-0.0839356762552105,72.9,6.3,85.5,-838.37891,82.51953,583.49609,0.2547381347114308,-0.0058622118915985545,-0.09259565093775597,57.3,24.75,23.1
-937.5,0.0,-351.07422,0.034773416417959425,0.04156815772889855,-0.1877227274226045,-3.6,25.35,23.55,-119.14063,-45.41016,1008.30078,-0.031975479094087315,-0.10072277659966757,-0.05688970510045597,73.05,3.9,86.25,-847.65625,80.56641,588.86719,0.25806892105593676,-0.008260294283838763,-0.08846550379583658,57.3,24.75,23.1
-947.26562,15.625,-339.35547,0.05169368538434365,0.0019984019935335075,-0.0839356762552105,-5.4,25.65,24.6,-116.69922,-40.52734,1012.20703,-0.0575558972759422,-0.07754061534297808,-0.06101985224237535,73.05,3.9,86.25,-849.60937,79.10156,606.93359,0.19758191783419526,0.02224963183734891,-0.1548147189091766,57.6,25.05,23.1
-952.14844,15.13672,-347.65625,-0.0058622118915985545,-0.015188378749630253,-0.1252373222073295,-5.4,25.65,24.6,-122.55859,-42.48047,1007.8125,-0.06408430134302699,-0.08140425070811792,-0.07181157207330668,73.05,3.9,86.25,-853.51562,90.33203,614.25781,0.18465845285487806,0.01638741994575036,-0.1476202971995308,57.6,25.05,23.1
-950.68359,21.48438,-345.21484,0.03783769098568587,-0.013456313999951081,-0.020784078864449274,-4.95,25.05,23.25,-105.46875,-39.0625,1022.46094,-0.01252378458061051,-0.0664823837352672,-0.07034601910040704,73.05,3.9,86.25,-855.95703,94.23828,590.33203,0.1192419416938038,0.02571358680378206,-0.12070749466670343,57.6,25.05,23.1
-950.68359,30.27344,-345.21484,0.024381376985734785,-0.04423275189791829,-0.030909606519894377,-4.95,25.05,23.25,-104.49219,-24.41406,1028.32031,0.0486294108166172,-0.07407648584361974,-0.07007968185655272,71.25,5.7,88.05,-859.375,88.37891,565.91797,0.17466609382136014,0.06541651116107426,-0.1496186991930643,57.6,25.05,23.1
-966.30859,41.99219,-351.07422,0.013189976756096747,-0.03570594583729999,-0.0466310088230837,-4.95,25.05,23.25,-104.98047,-33.20313,1036.13281,-0.013323145378023914,-0.05489130310692246,-0.11258036900479183,71.25,5.7,88.05,-848.14453,74.21875,569.82422,0.20464317092191392,0.05622351292496973,-0.20530936309740017,54.45,26.55,24.15
-968.75,35.64453,-333.00781,0.01638741994575036,-0.004796339317405617,-0.004529827540626083,-4.95,25.05,23.25,-107.42188,-34.17969,1034.17969,-0.013855994398657782,-0.06781476808623968,-0.09819135105257498,70.65,4.8,87.15,-843.75,84.96094,593.26172,0.15921137782787553,0.013855994398657782,-0.16240882101752913,54.45,26.55,24.15
-964.35547,33.20313,-337.89062,-0.048762579438544375,0.02331550441154185,-0.04196783812760525,-5.4,24.9,24.9,-111.81641,-39.55078,1018.55469,0.0006661921754862356,-0.07394331722169258,-0.09232931369390163,70.65,4.8,87.15,-848.63281,95.21484,597.65625,0.11524496317381157,0.0664823837352672,-0.17626498994911213,54.45,26.55,24.15
-959.47266,40.03906,-337.40234,-0.07447634077525163,0.012923464979317213,-0.04290054207987102,-5.4,24.9,24.9,-101.07422,-36.62109,1030.27344,-0.015188378749630253,-0.07234459562686575,-0.09179629014034256,72.15,5.55,85.8,-847.65625,70.80078,585.44922,0.1662726309155942,0.029577396701847107,-0.1418912539298594,54.45,26.55,24.15
-953.61328,39.55078,-318.35937,-0.03117611829667391,-0.03743801058697916,-0.020784078864449274,-4.5,25.8,24.75,-113.28125,-26.36719,1054.19922,-0.02931088492506757,-0.10058960797774039,-0.1192419416938038,72.15,5.55,85.8,-862.79297,66.40625,558.10547,0.1714686506317065,0.0283781809728018,-0.1216401986189692,54.45,26.55,24.15
-943.84766,41.99219,-327.63672,-0.05915461887076901,-0.077007591789419,0.03024341434440814,-4.5,25.8,24.75,-107.91016,-33.20313,1044.43359,-0.03930324395858551,-0.1529494855375703,-0.16427405438913548,72.15,5.55,85.8,-834.96094,53.22266,544.43359,0.17453292519943295,0.08699995082293695,-0.27299078802878746,55.8,26.25,23.1
-922.85156,23.92578,-333.49609,-0.0275788201753884,-0.07354363682298586,0.03370754384376649,-5.4,24.6,25.2,-109.86328,-21.97266,1046.875,-0.024381376985734785,-0.1293674693492489,-0.15827867387560976,72.15,5.55,85.8,-831.54297,50.78125,528.80859,0.19531700406388222,0.0015987215948268059,0.009992359033517936,55.8,26.25,23.1
-938.47656,33.69141,-332.03125,-0.033973881087620825,-0.06754825630946014,0.001065872574192937,-5.4,24.6,25.2,-107.91016,0.48828,1030.76172,-0.04330022247857772,-0.14055904411181214,-0.10165548055193334,71.25,5.7,87.45,-845.21484,52.73438,546.38672,0.17213484280719277,0.039569755735365045,-0.23422056762376103,56.7,24.9,22.95
-926.26953,8.78906,-313.96484,-0.07567538197137175,-0.018385996472209065,0.010525208054151804,-5.4,24.6,24.15,-115.72266,-5.37109,1033.20313,-0.07101221127589329,-0.08606742140359638,-0.07127872305267281,71.25,5.7,87.45,-829.10156,56.64063,553.71094,0.23581928921858783,0.025313906405075356,-0.23342120682634765,56.7,24.9,22.95
-923.82812,8.30078,-329.58984,-0.08953137637002952,-0.0030642745677264445,-0.0011990411961201044,-5.4,24.6,24.15,-109.86328,-4.39453,1027.34375,-0.07967236049136395,-0.10618530809255941,-0.06514999938429474,70.65,5.55,87.15,-827.14844,41.50391,525.87891,0.20864014944190615,0.05022813241144401,-0.21463552995543186,55.2,25.5,22.05
-936.03516,-0.48828,-344.23828,-0.1049862668964393,0.04729702646564473,-0.01305663360124438,-5.4,24.6,24.15,-107.42188,-24.41406,1021.97266,-0.1216401986189692,-0.11444560237639817,-0.017186780743163762,70.65,5.55,87.15,-834.47266,41.50391,504.88281,0.22289582423927062,0.04796321864113097,-0.19398461971290976,55.2,25.5,22.05
-949.70703,2.44141,-347.65625,0.0007993607974134029,0.010924888452858507,-0.0002665117767795341,-5.4,24.6,24.15,-120.11719,-8.78906,1001.95312,-0.1759984781723326,-0.1386936362072806,-0.06821444848494637,71.4,5.55,85.8,-820.3125,29.29688,495.11719,0.239283244185021,0.04929560299210344,-0.17826339194264562,56.4,26.1,23.7
-951.17187,7.8125,-344.72656,0.02198312006056938,0.0033307863445059785,0.015188378749630253,-5.4,24.6,24.15,-121.58203,-40.52734,970.21484,-0.2208974222457371,-0.19265240989486246,-0.02731248293153406,71.4,5.55,85.8,-817.38281,37.10938,498.53516,0.24487894429984003,0.05649002470174927,-0.15374884633498367,56.4,26.1,23.7
-968.75,5.85937,-356.93359,-0.016120908168970823,-0.01252378458061051,0.0030642745677264445,-5.7,26.1,23.85,-117.1875,-47.36328,991.21094,-0.21463552995543186,-0.22129710264444383,-0.07767378396490525,71.55,6.15,87.0,-813.47656,26.85547,511.23047,0.261000027001736,0.08779931162035035,-0.20690808469222696,56.4,26.1,22.2
-991.69922,1.95312,-353.02734,-0.05235987755982989,0.05129400498563695,-0.0738101485997654,-5.7,26.1,23.85,-132.32422,-78.61328,1034.17969,-0.20091270417870125,-0.2194318692728375,-0.03464007326310706,71.55,6.15,87.0,-805.17578,14.64844,497.07031,0.25607051906240325,0.08446852527584436,-0.24674417767144632,56.4,26.1,22.2
-982.91016,8.30078,-349.12109,-0.06901380928235978,0.04609798526952463,-0.04076879693148514,-3.75,25.05,23.25,-109.375,-54.19922,1021.97266,-0.22729248315796954,-0.30083611998095544,-0.06808110533009401,70.2,4.95,87.0,-791.99219,31.25,512.20703,0.27672125477200016,0.06235223659334782,-0.21796631629993785,57.3,27.0,22.8
-989.25781,16.60156,-355.95703,-0.04343339110050489,0.06075351499852101,-0.07127872305267281,-3.75,25.05,23.25,-109.375,-56.15234,945.80078,-0.2555374955088442,-0.2859142530081047,-0.05875493847206231,70.2,4.95,87.0,-812.98828,14.64844,529.78516,0.2744563410016871,0.08979788814680904,-0.1958498530845161,57.3,27.0,22.8
-987.30469,13.18359,-348.14453,-0.017053612121236593,-0.025313906405075356,0.0025314255470925756,-3.3,26.4,24.6,-113.76953,-98.14453,917.96875,-0.30083611998095544,-0.26646255849462785,-0.04916225983725108,71.25,5.4,86.25,-817.38281,29.78516,536.62109,0.25393877391401737,0.08833233517390941,-0.17453292519943295,57.3,27.0,22.8
-972.16797,6.83594,-360.83984,0.012390441425758144,-0.04063545377663278,-0.04516545585018406,-3.3,26.4,24.6,-111.32813,-107.42188,920.89844,-0.2368851617927808,-0.25060798756951136,-0.045698304870817934,71.25,5.4,86.25,-809.57031,41.01563,530.76172,0.2635314525488286,0.07181157207330668,-0.2335543754482748,57.3,27.0,22.8
-966.30859,36.13281,-346.19141,-0.009992359033517936,-0.05955429926947571,-0.030110245722480975,-3.45,25.8,23.7,-101.5625,-122.07031,949.70703,-0.19798159823290198,-0.3284149401563438,-0.047696706864351436,71.25,5.4,86.25,-811.03516,62.01172,533.69141,0.2717917468326674,0.1281684281531288,-0.23422056762376103,57.15,25.35,22.2
-966.79687,1.46484,-343.75,-0.06408430134302699,-0.01358965715480345,-0.0972588216332344,-3.45,25.8,23.7,-111.81641,-107.42188,968.75,-0.12417144963313657,-0.302301672953855,-0.08580090962681684,71.25,5.4,86.25,-827.14844,82.03125,531.73828,0.2582020896778639,0.1200413024912172,-0.2105053828135125,57.15,25.35,22.2
-961.91406,4.39453,-341.30859,-0.08460186843069674,0.021183759263155976,-0.011724423783197109,-3.45,25.8,23.7,-84.96094,-84.47266,998.04687,-0.17253452320589946,-0.27871983129845884,-0.0676814249313873,69.9,4.05,88.35,-836.42578,89.35547,552.73437,0.2444792639011333,0.08540122922811014,-0.11857574951831756,57.15,25.35,22.2
-965.82031,6.34766,-337.40234,-0.0932618431132422,0.013456313999951081,-0.007061253087718659,-3.45,25.8,23.7,-80.56641,-106.93359,965.82031,-0.22169678304315052,-0.24154815795533402,-0.06581619155978097,69.9,4.05,88.35,-828.61328,101.5625,543.94531,0.22049774184703042,0.1370949146124538,-0.17493260559813967,57.15,25.35,22.2
-961.91406,2.44141,-329.58984,-0.04556513624889076,-0.08460186843069674,0.03024341434440814,-5.1,26.7,23.85,-81.54297,-110.83984,952.63672,-0.18319289988197843,-0.15308265415949743,-0.07860648791717102,69.9,6.0,88.35,-837.89062,119.14063,570.80078,0.22182995166507768,0.07394331722169258,-0.18905511177357698,57.3,25.05,21.3
-955.56641,-0.97656,-332.51953,-0.047830050019203804,-0.06514999938429474,0.02238280045927608,-5.1,26.7,23.85,-125.0,-89.35547,957.03125,-0.11471211415317771,-0.12270589666023693,-0.10272135312612628,69.9,6.0,87.15,-842.28516,126.46484,580.07812,0.192918921671642,0.0835359958565038,-0.14615474422663116,57.3,25.05,21.3
-927.73437,4.39453,-328.125,-0.07527570157266503,-0.07234459562686575,-0.04343339110050489,-4.5,26.25,24.0,-83.98438,-96.19141,939.94141,-0.09566010003840761,-0.1390934911389125,-0.1281684281531288,69.6,4.5,87.15,-842.28516,139.64844,579.58984,0.18639051760455722,0.06554985431592662,-0.18292656263812407,56.25,24.3,21.0
-927.73437,-1.46484,-333.49609,-0.07887282516102534,-0.03557277721537283,-0.03797085960761303,-4.5,26.25,24.0,-102.05078,-108.39844,950.19531,-0.03104294967474674,-0.07114555443074566,-0.12870145170668787,69.6,4.5,87.9,-843.75,136.71875,578.61328,0.15921137782787553,0.06128636401915488,-0.14908567563950523,56.25,24.3,21.0
-925.29297,-11.71875,-333.98437,-0.07087904265396612,0.003996978519992214,-0.04063545377663278,-4.05,25.65,23.85,-90.33203,-108.88672,974.60937,0.0377045223637587,-0.0664823837352672,-0.1301670046795875,69.6,4.5,87.9,-848.14453,139.64844,612.79297,0.11218068860608514,0.05995397966818241,-0.19185304909744907,56.25,24.3,21.0
-926.26953,-7.32422,-329.10156,-0.08193727426167699,0.027845331952167932,-0.03184231047216015,-4.05,25.65,23.85,-86.42578,-67.87109,971.19141,0.09619294905904148,-0.07527570157266503,-0.12430479278798894,69.9,3.3,87.15,-848.63281,136.23047,596.19141,0.061419532641082054,0.07061253087718658,-0.14948553057113714,56.55,24.3,21.75
-917.96875,-16.60156,-329.10156,-0.05449162270821576,0.06195255619464112,-0.0063950609122324234,-4.5,25.05,23.7,-71.28906,-65.42969,995.60547,0.09685914123452771,-0.04529862447211123,-0.14175808530793224,69.9,3.3,87.15,-866.21094,140.625,608.39844,0.06541651116107426,0.047696706864351436,-0.17706435074652552,56.55,24.3,21.75
-923.33984,-38.57422,-340.33203,0.00039968039870670147,-0.015987739547043658,-0.0029311059457992773,-4.5,25.05,23.7,-69.82422,-75.68359,1021.97266,0.06741508768753297,0.03290818304635308,-0.12510415358540233,71.1,3.75,86.55,-855.46875,111.81641,596.67969,0.07207808385008622,0.026379778979268294,-0.17013626628073403,57.45,23.85,23.7
-919.92187,-30.27344,-320.3125,-0.02278248085798278,0.015188378749630253,-0.06301842876883405,-4.5,25.05,23.7,-76.66016,-58.59375,1036.62109,0.09059724894422246,0.023182161256689485,-0.12310575159186884,71.1,3.75,86.55,-851.07422,109.375,609.375,0.04982845201273731,0.06235223659334782,-0.16107661119948188,57.45,23.85,23.7
-934.57031,-25.39063,-325.19531,0.008926486459324997,0.00279793732387211,-0.04436592051984546,-4.5,25.05,23.7,-94.72656,-41.99219,1042.48047,0.06168604441786158,-0.02224963183734891,-0.11804290049768368,70.5,3.9,86.7,-833.49609,94.72656,595.21484,0.022649312236055614,0.07354363682298586,-0.1605435876459228,56.55,24.75,21.75
-926.26953,-29.29688,-324.70703,-0.05649002470174927,0.05275955795853659,-0.04929560299210344,-5.1,25.35,24.6,-91.79688,-76.66016,1025.39063,0.08753297437649601,-0.09512707648484854,-0.11564464357251827,70.5,3.9,86.7,-858.39844,95.21484,588.37891,0.031309286918601076,0.03384071246569365,-0.16267533279430868,56.55,24.75,21.75
-936.03516,-13.18359,-330.07812,-0.023981696587028086,-0.00373046674321268,-0.007327764864498192,-5.1,25.35,24.6,-76.17188,-56.64063,1011.71875,0.10232167272741956,-0.025447249559927724,-0.10858339048479962,70.5,3.9,86.7,-841.30859,76.17188,571.77734,0.029577396701847107,0.04223434990438478,-0.2133031456044594,57.15,23.85,21.6
-957.03125,-18.06641,-319.82422,-0.00839363743869113,0.0843353566539172,-0.019318525891549636,-3.6,25.65,23.55,-64.94141,-47.85156,1009.76562,0.04996179516758968,0.0279785005740951,-0.13030017330151467,70.5,3.9,86.7,-842.77344,60.05859,567.87109,0.07780712711975761,0.06435063858688132,-0.12923430072732173,57.15,23.85,21.6
-960.44922,-2.92969,-322.75391,0.018918845492842937,-0.03250850264764638,-0.013989337553510148,-3.6,25.65,23.55,-75.68359,-39.55078,1007.8125,0.0063950609122324234,0.04290054207987102,-0.08340282723457662,69.9,4.8,87.6,-819.82422,62.01172,589.84375,0.03424039286440035,0.0291777163031404,-0.16813786428720054,57.15,23.85,21.6
-950.68359,-0.48828,-319.82422,0.04636449704630416,-0.052626389336609423,0.026779459377974997,-4.95,26.25,25.05,-68.84766,-21.97266,1029.29688,-0.02984373394570144,0.0038636353651398474,-0.0839356762552105,69.9,4.8,87.6,-804.6875,62.98828,590.82031,0.02278248085798278,0.023048992634762316,-0.15041805999047772,57.15,23.85,21.6
-953.61328,10.25391,-320.80078,0.004796339317405617,-0.013855994398657782,-0.0009327039522657697,-4.95,26.25,25.05,-54.6875,-25.39063,1035.64453,-0.040901965553412314,-0.040901965553412314,-0.0920628019171221,69.3,2.55,88.35,-801.26953,26.36719,566.40625,0.05928796202562137,0.08420218803199005,-0.12710255557893585,56.55,24.0,22.8
-958.98437,12.20703,-326.17187,-0.029710565323774273,-0.025846929958634426,-0.014122506175437317,-4.05,24.9,23.55,-52.73438,-52.24609,1035.15625,-0.06954665830299364,-0.020784078864449274,-0.14375648730146573,69.3,2.55,88.35,-793.45703,33.20313,551.75781,0.06674889551204674,0.07007968185655272,-0.15974422684850942,56.55,24.0,22.8
-968.75,36.13281,-330.07812,-0.045698304870817934,0.017986141540577164,-0.0644839817417337,-4.05,24.9,23.55,-70.80078,-28.80859,1003.41797,-0.06808110533009401,-0.015721227770264124,-0.11271371215964421,70.65,3.3,86.1,-790.52734,26.85547,545.41016,0.09712565301130725,0.07474267801910597,-0.16813786428720054,54.9,24.15,21.6
-967.28516,35.15625,-318.35937,-0.03290818304635308,-0.025846929958634426,-0.014255674797364485,-4.05,24.9,23.55,-72.26563,-29.78516,991.69922,-0.1151117945518844,0.01958503766832917,-0.06301842876883405,70.65,3.3,86.1,-781.73828,40.52734,554.19922,0.13229857529504815,0.04210100674953242,-0.15188361296337732,54.9,24.15,21.6
-970.70312,35.64453,-326.66016,-0.006794741310939124,-0.04489894407340452,0.0190520141147701,-4.05,24.9,23.55,-56.64063,-55.66406,980.46875,-0.1115144964305989,0.011724423783197109,-0.05209336578305035,70.65,3.3,86.1,-778.80859,33.20313,554.19922,0.07474267801910597,0.0579555776746489,-0.18172734690907877,57.3,23.7,21.75
-952.14844,32.71484,-323.73047,-0.0454317930940384,-0.10058960797774039,0.03450690464117989,-4.2,25.05,24.75,-64.45313,-65.42969,1008.78906,-0.13469683222021359,-0.019318525891549636,-0.06075351499852101,70.65,3.3,86.1,-783.69141,22.94922,560.54687,0.09312867449131504,0.08939820774810235,-0.18439211561102373,57.3,23.7,21.75
-961.91406,20.50781,-318.84766,-0.026379778979268294,-0.07647474276878514,0.08939820774810235,-4.2,25.05,24.75,-70.80078,-47.85156,998.04687,-0.11937511031573096,-0.05902145024884184,-0.06155287579593442,70.35,6.0,86.85,-791.01562,24.90234,542.48047,0.0863337586474507,0.06981317007977318,-0.2043766591451344,57.0,25.5,23.1
-938.96484,5.85937,-321.28906,-0.09659262945774817,-0.0660827033365605,-0.019984718067035872,-4.65,26.1,23.55,-40.52734,-89.35547,972.16797,-0.08646710180230308,-0.06741508768753297,-0.08993105676873621,70.35,6.0,86.85,-789.0625,35.64453,529.78516,0.10591879631577987,0.04383307149921159,-0.1682710329091277,57.0,25.5,23.1
-938.47656,2.44141,-318.84766,-0.10445324334288024,-0.07301078780235198,-0.010924888452858507,-4.65,26.1,23.55,-15.13672,-109.375,958.98437,-0.10232167272741956,-0.010525208054151804,-0.04529862447211123,69.3,4.05,86.1,-789.55078,35.15625,535.15625,0.08713329397778931,0.09073041756614963,-0.17733086252330507,58.35,24.0,21.0
-931.15234,-16.11328,-311.52344,-0.09352835489002174,-0.09739199025516157,-0.10405356294417353,-4.65,26.4,24.15,-88.86719,-114.74609,970.70312,-0.0940612039106556,-0.04183466950567808,-0.06581619155978097,69.3,4.05,86.1,-769.53125,32.22656,540.03906,0.07714093494427138,0.11018228661255162,-0.13935982838276684,58.35,24.0,21.0
-911.62109,-20.50781,-294.92187,-0.057689065897869374,-0.08247012328231085,-0.05728938549916267,-4.65,26.4,24.15,-75.19531,-104.49219,972.16797,-0.10165548055193334,-0.027712163330240767,-0.03450690464117989,70.5,3.9,87.45,-785.15625,42.48047,535.64453,0.05609034430304257,0.12856810855183548,-0.15388201495691084,57.15,22.65,22.95
-899.41406,-44.43359,-294.92187,-0.05209336578305035,-0.11284688078157137,-0.07074587403203896,-3.75,26.55,25.05,-33.69141,-127.44141,946.77734,-0.12923430072732173,-0.007993957039984428,-0.04103530870826468,70.5,3.9,87.45,-785.15625,17.08984,542.48047,0.05435827955336339,0.14269061472727282,-0.162275652395602,57.15,22.65,22.95
-897.94922,-70.80078,-294.43359,-0.02198312006056938,-0.09845786282935451,-0.0385038831611721,-3.75,26.55,25.05,-59.08203,-124.02344,973.63281,-0.07993869773521828,0.01771980429672283,-0.05702304825530834,69.3,5.55,88.35,-791.99219,16.60156,535.64453,0.0754088701945922,0.06421746996495417,-0.18798923919938404,57.15,22.65,22.95
-894.04297,-55.66406,-288.08594,-0.02611326720248876,-0.03184231047216015,-0.11138132780867173,-3.75,26.55,25.05,-45.89844,-107.42188,970.21484,-0.06408430134302699,0.004529827540626083,-0.03250850264764638,69.3,5.55,88.35,-813.47656,36.13281,541.99219,0.11804290049768368,0.10964926305899256,-0.1897213039490632,57.15,22.65,22.95
-904.78516,-67.87109,-278.32031,-0.03184231047216015,-0.05475795995207009,-0.10631847671448658,-3.75,26.55,25.05,-61.52344,-145.01953,965.82031,-0.04516545585018406,0.016920443499309427,-0.08073805853263168,70.8,6.15,87.45,-820.3125,35.15625,541.01562,0.06355127778946792,0.11671051614671123,-0.18545781365229144,57.15,22.65,22.95
-891.60156,-84.96094,-289.55078,-0.00652840406708479,-0.019718206290256335,-0.08207044288360416,-3.75,26.55,25.05,-76.17188,-98.63281,949.21875,-0.038903563559878805,0.04982845201273731,-0.07820680751846432,70.8,6.15,87.45,-821.77734,48.82813,564.94141,0.07434299762039927,0.08580090962681684,-0.1446891912537315,57.15,24.15,22.95
-891.11328,-65.42969,-303.22266,0.06701523275590107,-0.0648836621404404,-0.051560516762416485,-3.3,25.35,23.85,-68.84766,-114.74609,962.89062,-0.0811377389313384,-0.008127125661911596,-0.07554203881651937,70.8,3.15,86.7,-843.75,39.0625,575.19531,0.07061253087718658,0.12137368684218967,-0.1512174207878911,57.15,24.15,22.95
-889.16016,-83.00781,-305.66406,0.03970292435729221,-0.042634030303091486,-0.022116463215421746,-3.3,25.35,23.85,-90.82031,-125.48828,956.54297,-0.008260294283838763,0.03104294967474674,-0.10591879631577987,70.8,3.15,86.7,-847.65625,37.59766,576.17187,0.0454317930940384,0.11231385722801229,-0.2023782571516009,57.15,24.15,22.95
-885.74219,-63.96484,-303.22266,0.05542415212755633,-0.025313906405075356,-0.015454890526409788,-4.5,24.75,25.05,-99.60938,-108.39844,971.67969,-0.018385996472209065,0.08260329190423803,-0.06475031898558803,70.8,3.15,86.7,-861.32812,43.45703,565.42969,0.06714857591075343,0.16041041902399564,-0.14801997759823748,57.15,24.15,22.95
-901.85547,-65.42969,-315.91797,0.0291777163031404,0.026246610357341126,-0.07580855059329891,-4.5,24.75,25.05,-99.12109,-116.21094,979.49219,0.006661572689011957,0.07460950939717881,-0.07021285047847989,70.8,3.15,86.7,-854.00391,43.94531,592.28516,0.030909606519894377,0.1541485267336904,-0.12883462032861503,57.9,23.85,21.6
-898.4375,-63.47656,-323.24219,0.014255674797364485,0.02704597115475453,0.009992359033517936,-4.05,26.4,23.85,-92.28516,-105.95703,988.28125,-0.011457912006417574,0.06155287579593442,-0.1115144964305989,70.8,3.15,86.7,-881.34766,51.75781,583.00781,0.0482297304179105,0.1446891912537315,-0.14562172067307208,57.9,23.85,21.6
-915.52734,-31.73828,-323.73047,0.03024341434440814,0.07780712711975761,0.028111843728947466,-4.05,26.4,23.85,-108.39844,-80.56641,1020.01953,-0.01771980429672283,0.08566774100488968,-0.08140425070811792,70.8,4.2,87.75,-866.69922,42.96875,580.56641,0.04756353824242427,0.12297240843701647,-0.14828631484209184,56.55,24.0,21.0
-924.80469,-38.08594,-328.61328,0.0847350370526239,0.0035972981212855125,0.06821444848494637,-5.25,26.25,23.7,-106.93359,-97.16797,1048.82813,0.01585457092511649,0.10418690609902591,-0.10205516095064003,70.8,4.2,87.75,-878.41797,57.61719,585.9375,0.05342575013402282,0.12617002615959527,-0.0762082309920056,56.55,24.0,21.0
-929.19922,-29.29688,-339.84375,0.0567565364785288,-0.004263315763846549,0.11098164740996504,-5.25,26.25,23.7,-109.375,-101.07422,1065.42969,-0.004396658918698916,0.06914697790428695,-0.09965690402547463,70.5,4.95,87.45,-883.78906,45.89844,580.07812,0.034107224242473186,0.11897542991702426,-0.1424242774834185,57.6,23.25,21.0
-930.17578,-22.46094,-330.07812,0.06954665830299364,0.004263315763846549,0.12883462032861503,-5.25,26.25,23.7,-116.21094,-90.33203,1052.24609,0.014122506175437317,0.026246610357341126,-0.1025880099712739,70.5,4.95,87.45,-874.51172,48.33984,545.41016,0.09992341580225415,0.16547327011818078,-0.16600611913881466,57.6,23.25,21.0
-942.38281,-24.90234,-345.70312,-0.01212410418190381,0.05022813241144401,0.0656830229378538,-5.25,26.25,23.7,-121.09375,-87.40234,1013.67187,-0.07261110740364529,0.04889592259339674,-0.05395859915465669,69.0,2.7,85.95,-878.90625,64.94141,564.45312,0.11004894345769926,0.1458882324498516,-0.04996179516758968,56.4,23.85,21.15
-931.64062,-46.38672,-358.88672,0.012790121824464847,0.06195255619464112,0.16400771714528115,-4.05,25.35,23.1,-122.55859,-119.14063,1028.80859,-0.09299533133646266,-0.0093261668580317,-0.06315159739076123,69.0,2.7,85.95,-881.34766,68.84766,550.29297,0.1192419416938038,0.07474267801910597,-0.10671815711319327,56.4,23.85,21.15
-928.71094,-38.57422,-354.98047,-0.018918845492842937,0.05249304618175705,0.12497098496347518,-4.05,25.35,23.1,-111.81641,-126.46484,1008.78906,-0.11884226129509709,0.01585457092511649,-0.0940612039106556,68.1,3.75,87.15,-876.46484,56.15234,566.40625,0.0928621627145355,0.05808874629657607,-0.10205516095064003,57.0,23.25,22.5
-913.08594,-49.31641,-355.95703,0.02198312006056938,0.012790121824464847,0.13309793609246157,-5.25,25.8,24.3,-124.02344,-128.90625,1016.60156,-0.08913169597132281,0.043699902877284424,-0.10392039432224637,68.1,3.75,87.15,-877.92969,70.80078,571.28906,0.12310575159186884,0.08060488991070451,-0.12323892021379601,57.0,23.25,22.5
-929.19922,-38.57422,-356.44531,0.03863705178309927,-0.012923464979317213,0.16094326804462952,-5.25,25.8,24.3,-106.93359,-114.74609,1022.94922,-0.08167076248489745,0.02731248293153406,-0.08646710180230308,71.25,2.7,87.45,-865.23437,64.45313,547.36328,0.08167076248489745,0.06874729750558024,-0.061419532641082054,57.45,23.1,21.6
-931.15234,-45.89844,-358.39844,0.045032112695331694,0.00039968039870670147,0.13469683222021359,-3.75,26.25,24.75,-115.72266,-101.5625,1020.99609,-0.08207044288360416,0.04489894407340452,-0.08566774100488968,71.25,2.7,87.45,-865.72266,84.47266,554.19922,0.10938292581513821,0.07367680544491303,-0.03117611829667391,57.45,23.1,21.6
-920.41016,-28.32031,-356.44531,0.08140425070811792,0.03623896939085906,0.19851462178646104,-3.75,26.25,24.75,-108.39844,-122.07031,1011.23047,-0.03930324395858551,0.013456313999951081,-0.0843353566539172,72.15,4.05,87.9,-876.46484,78.61328,556.64062,0.07860648791717102,0.03250850264764638,-0.06301842876883405,57.45,23.1,21.6
-917.48047,-25.87891,-361.32812,0.00013316862192716734,0.05462479133014293,0.06275191699205453,-4.2,25.5,23.7,-115.72266,-105.46875,1026.36719,-0.05915461887076901,0.011457912006417574,-0.08220361150553133,72.15,4.05,87.9,-871.58203,79.58984,557.61719,0.053558918755949994,0.07114555443074566,-0.0486294108166172,57.45,23.1,21.6
-951.17187,-36.13281,-375.97656,0.0005328490206338688,0.07194491522815906,0.03797085960761303,-4.2,25.5,23.7,-138.67187,-106.93359,1013.18359,-0.0668820641339739,-0.008127125661911596,-0.08766614299842318,72.15,4.05,87.9,-884.76562,92.77344,552.73437,0.012790121824464847,0.07674125454556469,0.016653931722529894,58.2,22.65,20.85
-927.73437,-38.57422,-375.48828,0.06155287579593442,0.09046408032229529,0.04050228515470561,-4.2,25.5,23.7,-128.90625,-101.5625,1023.92578,-0.06421746996495417,-0.0019984019935335075,-0.08220361150553133,72.15,4.05,87.9,-892.08984,97.16797,550.78125,0.04156815772889855,0.09432771568743514,0.0381042027624654,58.2,22.65,20.85
-937.98828,-32.22656,-363.76953,0.07634157414685798,0.0279785005740951,0.09579326866033477,-4.2,25.5,23.7,-130.85937,-110.83984,1010.74219,-0.06115319539722772,-0.0002665117767795341,-0.07021285047847989,72.3,2.7,87.0,-874.02344,103.51563,558.10547,0.06235223659334782,0.06022049144496195,-0.05129400498563695,58.2,22.65,20.85
-943.35937,-24.90234,-370.60547,0.06355127778946792,0.07021285047847989,0.08247012328231085,-4.2,25.8,23.7,-138.67187,-115.23438,1013.18359,-0.07141189167459998,0.040901965553412314,-0.011990761027051442,72.3,2.7,87.0,-869.14062,102.53906,544.43359,0.06581619155978097,0.04716385784371757,-0.01025887081029747,58.2,22.65,20.85
-937.98828,-22.46094,-358.39844,0.06901380928235978,0.08127108208619076,0.1033873707686873,-4.2,25.8,23.7,-119.14063,-115.23438,999.02344,-0.015188378749630253,0.007993957039984428,-0.07833997614039148,70.65,4.5,86.85,-861.81641,97.16797,564.45312,0.06261874837012736,0.029977077100553806,-0.0022649137703130416,58.2,22.65,20.85
-938.96484,-34.66797,-362.30469,0.018785676870915768,0.09006439992358858,-0.00839363743869113,-3.45,25.5,24.0,-118.16406,-114.25781,997.55859,-0.03250850264764638,0.01585457092511649,-0.02851152412765417,70.65,4.5,86.85,-854.49219,107.42188,534.17969,0.003996978519992214,0.04196783812760525,0.05622351292496973,57.9,22.35,20.1
-956.05469,-35.64453,-358.88672,0.05009496378951684,0.13123270272085524,-0.00559570011481902,-3.45,25.5,24.0,-126.46484,-109.375,986.32812,0.02851152412765417,0.010525208054151804,-0.024514545607661954,71.1,3.0,86.85,-848.14453,98.14453,554.19922,0.0575558972759422,0.04116847733019184,-0.008659974682545464,57.9,22.35,20.1
-970.21484,-39.0625,-355.95703,0.0466310088230837,0.07727410356619854,-0.0002665117767795341,-5.4,24.9,24.15,-109.375,-114.25781,994.62891,0.02198312006056938,0.0462311538914518,-0.003463954966433146,71.1,3.0,86.85,-853.51562,110.83984,542.96875,0.0283781809728018,0.014389017952216851,0.05129400498563695,58.95,22.35,21.6
-975.58594,-38.08594,-359.375,0.1049862668964393,0.0668820641339739,0.08580090962681684,-5.4,24.9,24.15,-99.12109,-116.69922,997.07031,0.06928032105913931,-0.012390441425758144,0.008793317837397832,71.1,3.0,86.85,-847.65625,97.16797,541.01562,0.0058622118915985545,0.01585457092511649,0.035039753661813756,58.95,22.35,21.6
-966.30859,-37.59766,-368.16406,0.08180393110682463,0.03543943406052046,0.04023577337792608,-5.4,24.9,24.15,-93.75,-98.14453,999.51172,0.07194491522815906,0.031309286918601076,-0.06128636401915488,71.1,3.0,86.85,-845.21484,95.21484,546.875,-0.015188378749630253,0.009592678634811233,0.03344103206698695,56.25,22.5,21.3
-958.00781,-25.87891,-361.81641,0.12403828101120941,-0.01305663360124438,0.06728174453268061,-5.4,24.9,24.15,-92.28516,-84.96094,984.375,0.09033073716744291,0.04596481664759746,-0.021716608283789844,70.5,3.45,86.25,-845.70312,96.19141,552.73437,-0.06381778956624745,-0.02424803383088242,0.1065849884912661,56.25,22.5,21.3
-967.77344,-15.625,-368.16406,0.0648836621404404,0.08513471745133061,-0.07514235841781267,-5.1,26.7,23.55,-99.12109,-62.98828,1000.0,0.09086376072100198,0.009459335479958867,-0.017986141540577164,70.5,3.45,86.25,-854.49219,95.70313,547.85156,-0.1309663654770009,0.003463954966433146,0.08406884487713767,57.15,22.35,22.2
-971.19141,-10.25391,-358.39844,0.04649766566823133,0.04489894407340452,-0.01851916509413623,-5.1,26.7,23.55,-97.16797,-72.26563,1003.41797,0.14335680690275904,-0.015987739547043658,-0.008260294283838763,70.8,2.7,88.5,-850.58594,83.98438,562.98828,-0.11990813386929003,-0.04103530870826468,0.08180393110682463,57.15,22.35,22.2
-976.07422,-17.08984,-352.05078,0.0579555776746489,0.05289272658046376,0.016653931722529894,-4.2,26.55,24.3,-98.63281,-71.77734,989.25781,0.13269825569375487,-0.0029311059457992773,-0.020650910242522108,70.8,2.7,88.5,-862.30469,85.9375,549.31641,-0.12656970655830196,-0.015188378749630253,0.07900616831587771,58.2,24.15,21.6
