IMU1_AccX,IMU1_AccY,IMU1_AccZ,IMU1_GyrX,IMU1_GyrY,IMU1_GyrZ,IMU1_MagX,IMU1_MagY,IMU1_MagZ,IMU2_AccX,IMU2_AccY,IMU2_AccZ,IMU2_GyrX,IMU2_GyrY,IMU2_GyrZ,IMU2_MagX,IMU2_MagY,IMU2_MagZ,IMU3_AccX,IMU3_AccY,IMU3_AccZ,IMU3_GyrX,IMU3_GyrY,IMU3_GyrZ,IMU3_MagX,IMU3_MagY,IMU3_MagZ
-1001.95312,-9.76562,-75.68359,0.07021285047847989,-0.13083302232214852,0.03743801058697916,2.4,24.75,33.15,-134.27734,-98.63281,1007.32422,-0.01678710034445706,-0.0011990411961201044,0.015987739547043658,72.9,-0.75,86.55,-869.14062,92.28516,502.44141,-0.10485292374158693,0.00839363743869113,-0.04330022247857772,57.6,23.25,20.7
-1004.88281,-8.78906,-51.75781,0.171202138854927,-0.15015154821369817,0.04982845201273731,4.2,24.75,33.15,-121.09375,-112.79297,978.02734,-0.03783769098568587,-0.006794741310939124,0.0458314734927451,71.7,-0.3,86.1,-862.30469,105.46875,520.50781,-0.08686678220100978,-0.008260294283838763,-0.0470306892217904,58.05,21.0,19.2
-999.51172,-5.37109,-67.38281,0.10365388254546684,-0.08207044288360416,-0.034773416417959425,3.6,25.35,33.0,-125.48828,-108.88672,997.55859,-0.019318525891549636,0.011058231607710873,0.022915824012835147,71.7,-0.3,86.1,-859.375,93.26172,506.83594,-0.03330786344505979,-0.026379778979268294,0.01212410418190381,56.4,23.4,18.45
-996.09375,-15.625,-50.78125,0.07873965653909817,-0.10751769244353188,0.03783769098568587,3.15,25.8,33.45,-129.88281,-110.83984,991.21094,0.017186780743163762,0.005329188338039486,0.07034601910040704,72.3,0.9,86.7,-852.05078,101.07422,500.48828,-0.1021883295725672,-0.03344103206698695,0.04076879693148514,56.4,23.4,18.45
-988.28125,-17.08984,-59.57031,0.09899088638291359,-0.03916990080373314,-0.01678710034445706,3.75,25.05,33.15,-110.35156,-117.1875,987.30469,-0.05395859915465669,0.0093261668580317,0.05782240905272174,72.15,0.75,85.5,-852.53906,94.72656,506.83594,-0.08033837813392498,0.019851374912183504,-0.05862176985013514,58.95,24.15,18.0
-1002.44141,-23.92578,-42.96875,0.12070749466670343,-0.11684385930156357,-0.0015987215948268059,3.75,25.05,33.15,-106.93359,-131.83594,999.02344,0.0005328490206338688,-0.026646290756047828,0.08460186843069674,72.3,0.15,85.95,-849.60937,88.37891,507.8125,-0.04076879693148514,-0.05116083636370978,0.006661572689011957,58.2,23.4,17.7
-1021.97266,-14.64844,-54.19922,0.0656830229378538,-0.03703833018827246,0.0029311059457992773,4.35,25.65,31.5,-102.05078,-119.14063,964.84375,-0.01025887081029747,0.0013323843509724712,0.06861412888365308,72.3,0.15,85.95,-845.70312,75.68359,515.13672,-0.10911641403835869,-0.0093261668580317,0.0015987215948268059,59.1,22.5,18.6
-1013.67187,-24.41406,-41.99219,0.09845786282935451,-0.04463243229662499,-0.017852972918649995,4.05,24.15,33.0,-107.91016,-142.57812,990.72266,0.04303371070179819,0.0014655529728996386,0.09352835489002174,71.7,0.3,86.85,-830.56641,71.28906,512.20703,-0.09446088430936231,0.009859190411590769,-0.03250850264764638,58.35,23.7,20.25
-997.07031,-19.53125,-43.45703,0.11577798672737065,-0.08273663505909039,-0.0029311059457992773,3.0,23.85,31.95,-104.98047,-130.37109,989.25781,0.024781057384441488,0.01305663360124438,0.08979788814680904,71.55,0.9,85.65,-850.09766,58.59375,508.30078,-0.09605978043711431,-0.014788698350923554,-0.04516545585018406,58.35,22.95,18.9
-1016.11328,-6.34766,-49.31641,0.12430479278798894,-0.08660027042423024,0.0648836621404404,2.7,25.5,32.7,-105.46875,-130.85937,1019.53125,0.024914226006368657,0.04689734606693803,0.12803525953120162,72.0,0.45,86.7,-868.65234,54.6875,486.32812,-0.14042570095695978,0.03797085960761303,0.017852972918649995,57.6,22.95,19.2
-1006.34766,0.0,-41.99219,0.013855994398657782,-0.061419532641082054,-0.03370754384376649,2.7,25.5,32.7,-124.02344,-150.39062,976.07422,0.06514999938429474,0.01678710034445706,0.07674125454556469,71.55,1.95,87.0,-871.09375,48.82813,491.69922,-0.07420982899847209,-0.0030642745677264445,-0.031708967317307775,57.6,22.95,19.2
-1008.30078,-8.30078,-54.6875,0.05409194230950906,-0.08207044288360416,0.09086376072100198,4.35,24.6,34.35,-122.07031,-136.23047,997.07031,0.06661555235719438,0.04170132635082572,0.07354363682298586,72.15,0.0,87.15,-875.0,57.61719,517.57812,-0.11977496524736285,-0.016520588567677526,-0.004529827540626083,58.5,24.6,19.5
-1006.83594,-21.48438,-55.17578,0.003463954966433146,-0.0182526533173567,0.03357420068891412,3.45,25.5,35.25,-137.20703,-123.53516,982.91016,0.02611326720248876,0.04250068714823912,0.11164783958545127,72.0,0.9,86.7,-875.97656,54.6875,489.25781,-0.13003366152473514,0.023582016188321384,-0.016120908168970823,58.5,24.6,19.5
-1006.83594,-30.76172,-60.05859,-0.00279793732387211,-0.005995380513525721,0.014389017952216851,2.25,24.9,33.0,-138.18359,-149.90234,1021.97266,0.06155287579593442,0.05129400498563695,0.11417909059961863,72.0,0.9,86.7,-883.30078,55.66406,504.39453,-0.15654678365885577,-0.0035972981212855125,-0.02038439846574257,58.2,21.9,19.8
-1003.41797,-21.48438,-48.82813,0.0007993607974134029,-0.044099583275991124,0.07660791139071231,2.25,24.9,33.0,-127.92969,-134.27734,1017.08984,0.04076879693148514,0.0015987215948268059,0.1107151356331855,72.3,0.9,85.95,-871.09375,64.45313,515.13672,-0.17866307234135234,0.027179139776681696,-0.0291777163031404,58.05,22.2,17.55
-1008.30078,-7.8125,-50.29297,0.008260294283838763,-0.011324568851565207,0.018385996472209065,2.25,24.9,33.0,-125.0,-121.58203,1007.8125,0.09232931369390163,0.023715184810248553,0.08127108208619076,72.0,0.45,87.0,-880.85937,56.64063,490.72266,-0.16307501319301537,-0.017852972918649995,-0.038903563559878805,57.3,23.25,18.9
-1030.27344,-4.88281,-57.61719,-0.03970292435729221,0.04956194023595778,0.061819213039788753,3.45,24.3,33.75,-132.8125,-118.16406,1004.39453,0.11551147495059111,0.0058622118915985545,0.10325420214676014,73.2,-0.3,86.1,-866.21094,72.75391,541.01562,-0.1966493884148547,-0.017320123898016127,-0.022516143614128445,57.9,24.9,18.75
-1036.13281,-14.64844,-64.45313,-0.03677181841149293,0.07434299762039927,0.0361056262360067,3.3,25.35,33.6,-133.30078,-104.98047,1009.27734,0.052626389336609423,0.03930324395858551,0.06754825630946014,73.2,-0.3,86.1,-878.41797,46.875,513.18359,-0.1763981585710393,-0.01065855120900417,-0.07167840345137952,57.9,24.9,18.75
-1039.55078,-1.95312,-60.54688,-0.011857592405124276,0.033973881087620825,0.05116083636370978,2.4,25.5,32.4,-133.30078,-126.46484,1017.57812,0.030110245722480975,0.0361056262360067,0.12550383398410905,72.3,0.9,86.7,-880.85937,38.57422,510.74219,-0.18865543137487029,-0.005329188338039486,0.017586461141870464,57.9,23.4,19.05
-1047.36328,5.85937,-51.75781,-0.05835525807335561,0.04996179516758968,-0.004396658918698916,2.4,25.5,32.4,-116.21094,-128.90625,1016.11328,0.015987739547043658,0.0291777163031404,0.16267533279430868,73.2,1.5,86.85,-888.67187,36.13281,553.22266,-0.15095108354403677,-0.010392039432224637,-0.021183759263155976,57.9,23.4,19.05
-1032.22656,2.44141,-39.0625,-0.0458314734927451,-0.0381042027624654,0.07074587403203896,4.05,22.65,31.95,-114.74609,-137.20703,1018.06641,0.004796339317405617,0.06554985431592662,0.1853246450303643,73.5,1.5,86.85,-881.34766,47.36328,532.22656,-0.11551147495059111,-0.005462531492891852,-0.03530626543859329,57.9,23.4,19.05
-1021.48437,-3.90625,-41.50391,-0.01638741994575036,0.0019984019935335075,0.03597245761407953,3.6,23.4,31.95,-88.86719,-138.18359,1030.27344,-0.02744565155346123,0.025846929958634426,0.1464210814704855,73.5,1.5,86.85,-889.64844,65.42969,574.21875,-0.16587295051688747,0.047430369620497105,0.0015987215948268059,57.3,24.3,19.95
-1014.16016,-5.85937,-30.27344,-0.06728174453268061,0.025447249559927724,0.02198312006056938,3.45,24.75,31.95,-85.9375,-156.73828,1033.69141,-0.06435063858688132,0.03863705178309927,0.10005658442418133,73.05,-0.45,87.75,-875.0,61.03516,548.82812,-0.15201678158530452,0.07687442316749184,-0.0033307863445059785,57.45,24.15,18.75
-999.02344,6.83594,-46.38672,-0.11377941020091194,0.021316927885083145,0.030509926121187674,3.6,24.75,32.7,-104.98047,-150.87891,1041.01563,-0.07047936225525941,0.09792501380872065,0.11457894553125055,72.15,1.8,87.15,-883.30078,69.33594,503.90625,-0.1260366830047429,0.09339518626809457,0.03277483989150072,58.5,25.35,19.8
-1011.23047,5.85937,-47.36328,-0.03597245761407953,-0.011457912006417574,0.05449162270821576,3.6,24.15,31.5,-78.61328,-159.17969,1036.13281,-0.08926486459324998,0.05142717360756412,0.07860648791717102,73.2,0.3,85.8,-873.53516,93.75,500.97656,-0.11404592197769146,0.0972588216332344,0.04556513624889076,58.05,23.25,18.6
-1044.43359,15.13672,-63.96484,-0.09086376072100198,0.05382543053272952,-0.013855994398657782,3.6,24.15,31.5,-97.65625,-131.83594,997.55859,-0.0063950609122324234,0.06754825630946014,0.11950845347058334,73.2,0.3,85.8,-857.91016,111.32813,453.125,-0.14868599524079854,0.03464007326310706,0.04223434990438478,57.9,24.6,19.05
-1054.6875,9.27734,-55.66406,-0.1289677889505422,0.03863705178309927,-0.002664594169019743,3.6,25.65,32.55,-91.30859,-167.96875,1002.92969,-0.006794741310939124,0.0972588216332344,0.0972588216332344,73.5,1.05,87.15,-853.02734,146.48437,493.65234,-0.22329550463797732,0.04250068714823912,0.014788698350923554,58.5,23.4,18.75
-1054.6875,-10.25391,-41.99219,-0.06981317007977318,-0.03557277721537283,-0.011857592405124276,2.7,25.05,33.45,-109.86328,-201.17187,967.77344,0.08420218803199005,0.1228392398150893,0.14122506175437316,72.6,1.95,86.7,-838.86719,155.76172,532.71484,-0.32495098518991067,-0.0025314255470925756,0.01638741994575036,58.5,23.4,18.75
-1051.26953,-46.38672,-20.01953,-0.08620059002552354,-0.02944405354699474,-0.009192998236104533,4.2,25.8,33.75,-114.74609,-210.9375,960.44922,0.1464210814704855,0.18892194315164978,0.15548091108466286,73.2,1.5,86.1,-841.30859,150.87891,546.875,-0.3482664896014525,0.004796339317405617,0.07754061534297808,58.5,24.15,19.5
-1036.13281,-52.73438,-12.20703,-0.05009496378951684,-0.03943641258051267,-0.011591080628344743,4.5,24.3,32.1,-98.63281,-194.33594,959.96094,0.3093629260415737,0.2274256517798967,0.13642872243696755,73.2,1.5,86.1,-828.125,117.67578,572.26562,-0.3878360708038924,0.02038439846574257,0.1119141768293056,58.5,24.15,19.5
-1003.90625,-48.82813,0.48828,0.025447249559927724,-0.14162474215307985,-0.020251229843815406,4.5,24.3,32.1,-89.84375,-144.53125,954.58984,0.4103522144180208,0.2145023613335047,0.1317657262744143,74.7,0.75,85.8,-827.14844,79.10156,536.13281,-0.4047565143032018,0.047430369620497105,0.015321547371557422,58.35,23.7,18.9
-966.79687,-37.59766,9.76562,-0.02224963183734891,-0.05728938549916267,-0.07447634077525163,3.45,24.0,32.7,-84.47266,-101.07422,973.14453,0.42647312258699166,0.2019785767528942,0.08540122922811014,73.95,3.0,87.6,-827.63672,65.42969,570.80078,-0.37930926474327403,0.03450690464117989,0.08007204089007065,57.3,24.3,19.65
-962.40234,-26.85547,27.34375,0.04023577337792608,-0.0381042027624654,-0.058888281626914674,3.3,23.4,33.6,-83.98438,-55.66406,1000.0,0.43859722676889545,0.2079739572664199,0.12856810855183548,73.95,3.0,87.6,-836.91406,20.50781,570.80078,-0.2744563410016871,0.0291777163031404,0.021849951438642212,58.8,22.95,19.95
-955.56641,-30.27344,23.92578,0.10085611975451993,0.0022649137703130416,0.02331550441154185,4.65,25.65,33.3,-100.58594,-40.03906,1092.28516,0.3889019433780853,0.15947771507172986,0.13762793816601288,72.0,1.95,86.7,-847.16797,8.30078,533.69141,-0.19105351376711047,-0.030509926121187674,0.08620059002552354,58.8,23.25,19.95
-973.63281,-25.39063,20.99609,0.10405356294417353,0.013189976756096747,0.045698304870817934,4.05,24.15,32.55,-101.5625,-46.38672,1069.82422,0.2731241311836399,0.07207808385008622,0.12150685546411683,73.5,1.8,86.55,-849.60937,16.60156,537.10937,-0.1474869540446784,-0.04276719892501865,0.07847314476231865,58.8,23.25,19.95
-984.86328,-6.34766,10.74219,-0.02051756708766974,0.0811377389313384,0.0275788201753884,4.05,24.15,32.55,-88.37891,-86.42578,1003.90625,0.11950845347058334,0.014255674797364485,0.1807948174897382,73.95,2.55,86.85,-856.44531,6.34766,566.40625,-0.1248376418086228,-0.10005658442418133,0.09792501380872065,57.3,22.95,19.95
-1005.85937,5.37109,-7.32422,0.017453292519943295,0.05808874629657607,0.06035383459981431,2.55,24.9,33.3,-102.53906,-119.62891,930.17578,0.002398082392240209,0.09126344111970869,0.24034911675921392,73.95,2.55,86.85,-853.51562,-11.23047,562.5,-0.19518383544195508,-0.013855994398657782,0.0186523337160634,57.3,22.95,19.95
-987.79297,12.69531,-6.83594,0.026246610357341126,0.061819213039788753,0.08660027042423024,3.6,24.15,33.0,-107.91016,-131.34766,966.30859,-0.011058231607710873,0.1135130729570576,0.21716695550252443,73.5,2.55,85.05,-870.60547,9.27734,555.66406,-0.21476869857735903,0.055690663904335864,0.06461715036366086,58.2,24.9,19.5
-995.11719,41.01563,-23.4375,-0.08260329190423803,0.12803525953120162,0.05395859915465669,4.5,24.0,33.75,-119.62891,-120.60547,979.49219,0.06514999938429474,0.10618530809255941,0.1621424837736748,73.05,1.65,86.25,-883.30078,25.87891,536.62109,-0.2250275693876565,0.06754825630946014,0.013722825776730615,57.0,24.0,19.2
-993.65234,35.15625,-31.73828,-0.08167076248489745,0.15321599731434982,0.039969436134071744,2.55,24.9,33.3,-130.85937,-114.74609,976.5625,0.1293674693492489,0.10565245907192554,0.14935218741628475,73.95,3.75,86.55,-878.41797,43.94531,562.5,-0.3202878144944322,0.06621587195848767,-0.002398082392240209,57.6,24.75,19.2
-987.30469,36.62109,-38.08594,-0.05235987755982989,0.13030017330151467,0.05915461887076901,2.55,24.9,33.3,-136.71875,-105.46875,991.69922,0.1821270273077855,0.05515781488370199,0.14029253233503258,73.95,3.75,86.55,-873.04687,47.36328,567.38281,-0.29670597283903605,-0.0015987215948268059,0.012390441425758144,57.0,24.75,19.65
-984.86328,38.08594,-47.85156,-0.11204751998415798,0.16773818388849382,-0.04290054207987102,3.45,25.05,32.7,-166.01562,-76.66016,996.09375,0.2839158510145712,0.0855343978500373,0.1253706653621819,74.1,3.15,87.0,-864.74609,62.01172,558.10547,-0.34307046988534023,-0.0063950609122324234,-0.03357420068891412,57.9,24.6,19.5
-984.375,15.625,-62.98828,-0.09099692934292915,0.22076425362380997,0.05515781488370199,3.15,24.3,33.15,-35.64453,-67.38281,1118.65234,0.21663393194896538,0.3661194625201025,0.10485292374158693,72.45,2.25,85.8,-840.33203,58.10547,579.10156,-0.3181562438789715,-0.02851152412765417,-0.009992359033517936,58.05,25.5,19.65
-988.28125,26.85547,-56.64063,-0.07833997614039148,0.17506577422006683,-0.01811948469542953,4.2,26.25,33.15,-245.11719,48.33984,992.1875,0.1276355791324949,0.13069985370022136,0.1119141768293056,72.45,2.25,85.8,-847.65625,19.04297,582.51953,-0.33014700490602295,0.012257272803830977,-0.015454890526409788,58.05,25.5,19.65
-978.51562,29.29688,-59.57031,-0.12563700260603622,0.1938514510909826,-0.04076879693148514,2.7,24.75,32.7,-156.73828,-66.40625,1100.09766,-0.14655442462533785,0.11857574951831756,0.2347534166443949,73.95,3.3,86.55,-832.03125,-14.64844,609.375,-0.3200214772505779,-0.016120908168970823,0.028245012350874635,58.05,25.5,19.65
-959.96094,23.92578,-39.55078,-0.03597245761407953,0.1305666850782942,-0.04489894407340452,2.7,24.75,32.7,-110.83984,-139.64844,1077.14844,-0.09113009796485633,0.019718206290256335,0.2291577165295759,73.5,3.0,85.5,-829.58984,-42.48047,598.14453,-0.2536722621372378,-0.031309286918601076,0.0029311059457992773,58.2,24.15,21.6
-964.84375,27.83203,-34.66797,-0.04316687932372535,0.16307501319301537,-0.045698304870817934,3.45,25.05,32.7,-97.16797,-151.85547,948.73047,-0.15654678365885577,0.023048992634762316,0.2582020896778639,74.7,1.8,86.1,-806.15234,-78.125,621.58203,-0.1442895108550248,-0.02145027103993551,0.023848353432175718,57.6,23.7,20.25
-942.87109,0.0,-36.62109,-0.12643636340344963,0.16027725040206847,-0.09499390786292138,4.05,24.6,33.0,-71.77734,-194.33594,999.51172,-0.09566010003840761,-0.018385996472209065,0.20570904349610689,74.7,1.8,86.1,-827.63672,-87.40234,603.51562,0.010392039432224637,0.008526806060618296,0.013722825776730615,57.6,24.75,20.7
-947.75391,1.95312,-59.57031,-0.09219597053904927,0.13682840283567427,-0.08859884695068895,2.7,26.25,33.45,-66.40625,-198.24219,1036.62109,-0.05542415212755633,0.01025887081029747,0.13389747142280017,75.0,1.8,86.85,-828.61328,-84.96094,597.16797,0.07154523482945235,-0.032375159492794015,0.039969436134071744,57.9,23.4,20.1
-966.79687,-5.37109,-72.75391,-0.01065855120900417,0.09526041963970092,-0.0652833425391471,3.45,25.05,32.4,-99.12109,-192.38281,996.58203,-0.02224963183734891,-0.0855343978500373,0.03930324395858551,73.35,3.15,85.95,-842.28516,-62.5,589.35547,0.1865236862264844,-0.05489130310692246,0.0470306892217904,57.9,24.15,20.55
-956.54297,-12.20703,-70.80078,-0.06728174453268061,0.16094326804462952,-0.060087322823034785,3.45,25.05,32.4,-90.82031,-150.87891,1011.23047,0.0470306892217904,-0.10831705324094529,0.027179139776681696,73.35,4.2,85.65,-845.70312,-47.85156,583.49609,0.20104587280062844,-0.002398082392240209,0.07407648584361974,58.35,24.75,20.25
-969.23828,-17.08984,-74.70703,-0.02051756708766974,0.08793265477520272,-0.03277483989150072,2.25,26.1,33.3,-103.51563,-126.46484,1023.92578,0.08340282723457662,-0.1337641282679478,-0.022649312236055614,73.35,3.45,86.7,-841.79687,-33.69141,543.94531,0.2904440805487308,-0.045032112695331694,0.05782240905272174,58.35,24.75,20.25
-986.32812,-20.50781,-83.00781,0.04649766566823133,0.1442895108550248,-0.04982845201273731,2.55,24.9,32.55,-121.58203,-92.28516,1022.46094,0.08899852734939565,-0.11724353970027028,-0.007594102108352528,74.4,3.45,86.7,-835.44922,-30.27344,534.66797,0.29084376094743747,-0.00559570011481902,0.015055210127703087,57.6,23.7,19.65
-1004.39453,2.44141,-102.05078,0.006261892290305255,0.1807948174897382,-0.08606742140359638,2.4,24.75,33.45,-136.23047,-79.58984,1022.94922,0.07021285047847989,-0.1460214010717788,-0.0007993607974134029,73.05,3.45,86.7,-849.12109,-7.32422,530.76172,0.29284233747389615,0.009192998236104533,-0.011058231607710873,57.6,23.7,19.65
-1025.39063,6.34766,-103.02734,0.05249304618175705,0.0660827033365605,0.023582016188321384,3.0,26.4,33.0,-150.87891,-79.58984,1010.74219,0.02198312006056938,-0.09219597053904927,0.015321547371557422,73.05,3.45,86.7,-854.98047,13.67187,512.69531,0.32934764410860956,0.034373736019252726,0.012923464979317213,58.2,23.4,21.15
-1033.69141,35.15625,-116.21094,0.038903563559878805,0.07607506237007844,0.03663864978956576,3.0,26.4,33.0,-148.92578,-60.05859,1036.62109,-0.06408430134302699,-0.08247012328231085,0.007194421709645826,73.5,3.75,86.55,-884.76562,18.06641,546.38672,0.2559371759075509,-0.0041301471419193814,-0.0482297304179105,57.45,25.35,18.45
-1040.52734,44.43359,-118.65234,-0.027712163330240767,0.08620059002552354,-0.012656953202537678,2.25,26.1,33.0,-168.45703,-91.30859,1022.46094,-0.09979024718032699,-0.10551911591707318,-0.007727445263204894,74.25,2.25,84.75,-895.99609,37.10938,520.01953,0.2951072512442092,-0.012923464979317213,-0.021583439661862675,58.35,23.7,21.3
-1020.99609,56.64063,-107.91016,-0.08713329397778931,0.06661555235719438,0.04809656179598333,4.2,24.0,31.35,-151.85547,-104.00391,1013.18359,-0.19171970594259674,-0.0454317930940384,0.02411486520895525,72.0,3.9,86.7,-902.34375,22.94922,535.64453,0.2716585782107402,-0.02944405354699474,-0.01305663360124438,57.9,25.65,20.55
-1021.48437,51.26953,-113.76953,-0.026912627999902163,0.023448673033469015,0.13443032044343403,3.75,26.25,31.35,-148.92578,-130.85937,991.69922,-0.19171970594259674,-0.02145027103993551,-0.017320123898016127,72.0,3.9,86.7,-893.06641,36.62109,534.66797,0.2315559734547413,0.021849951438642212,-0.02611326720248876,58.8,24.0,21.0
-1010.25391,41.50391,-104.49219,-0.12417144963313657,0.012656953202537678,0.08020520951199782,3.15,25.8,33.15,-141.60156,-148.4375,988.76953,-0.10871673363965198,-0.06208572481656829,-0.04689734606693803,72.0,3.9,86.7,-880.37109,44.43359,530.76172,0.26446398196816917,-0.01358965715480345,0.03464007326310706,57.6,25.8,20.7
-991.69922,34.17969,-92.28516,-0.12257272803830976,0.06928032105913931,0.00559570011481902,3.15,25.8,33.15,-133.78906,-152.34375,986.32812,-0.056356856079822104,-0.1057856276938527,-0.04396624012113876,74.25,3.3,86.1,-902.34375,55.17578,543.94531,0.27632157437329347,-0.0190520141147701,0.04729702646564473,57.6,25.8,20.7
-974.60937,25.87891,-93.75,-0.0738101485997654,0.023848353432175718,0.03344103206698695,3.15,25.8,33.15,-147.94922,-144.04297,987.30469,-0.013855994398657782,-0.12870145170668787,-0.07420982899847209,73.8,1.95,87.45,-896.48437,63.96484,512.69531,0.3126937123860797,-0.011724423783197109,0.0462311538914518,58.05,23.25,19.65
-984.86328,30.76172,-93.75,-0.09979024718032699,0.07314395642427915,-0.03930324395858551,2.4,27.0,32.1,-148.92578,-129.88281,1006.34766,0.02424803383088242,-0.07727410356619854,-0.06928032105913931,74.1,2.4,87.75,-889.16016,97.16797,542.96875,0.3345436638247219,-0.05275955795853659,0.07634157414685798,57.6,25.05,19.95
-987.30469,23.4375,-95.70313,-0.07727410356619854,0.13363095964602065,-0.03837054000631974,3.15,26.25,32.7,-158.20312,-89.84375,1006.83594,0.024514545607661954,-0.0839356762552105,-0.12470447318669564,72.9,3.75,85.8,-885.74219,91.30859,514.16016,0.32495098518991067,-0.006128723668378088,0.07660791139071231,57.3,24.75,20.7
-1002.92969,28.80859,-107.91016,-0.029977077100553806,0.08060488991070451,-0.055290983505629165,2.4,26.25,30.6,-178.22266,-73.24219,1012.69531,0.059421130647548545,-0.09059724894422246,-0.07420982899847209,73.35,2.4,85.95,-879.88281,111.81641,526.85547,0.337341601148594,-0.0046631706954784495,0.09059724894422246,57.9,24.15,18.75
-1007.32422,20.50781,-99.12109,-0.01851916509413623,0.06794793670816685,-0.03317452029020742,2.7,25.05,31.35,-159.17969,-65.91797,1040.03906,0.03450690464117989,-0.11138132780867173,-0.1077840296873862,73.5,2.55,85.8,-874.02344,105.46875,499.02344,0.3534625093175648,-0.015721227770264124,0.04463243229662499,57.3,24.75,20.7
-1005.85937,25.87891,-95.21484,-0.012257272803830977,0.05728938549916267,-0.006261892290305255,2.7,25.05,31.35,-161.62109,-87.40234,1004.39453,-0.0022649137703130416,-0.11138132780867173,-0.16653896815944855,73.5,2.55,85.8,-881.83594,93.75,458.00781,0.3405390443382476,-0.04556513624889076,0.05449162270821576,57.0,25.5,19.95
-1001.46484,26.36719,-109.86328,-0.05835525807335561,0.10631847671448658,-0.05022813241144401,3.15,25.05,31.05,-155.76172,-79.10156,987.30469,0.03450690464117989,-0.13975950878147356,-0.04449926367469782,73.8,3.45,87.0,-870.60547,82.51953,497.55859,0.3080307162235264,-0.05116083636370978,0.10392039432224637,57.0,25.5,19.95
-1021.97266,37.59766,-112.30469,0.025047394628295826,0.06554985431592662,-0.03557277721537283,2.55,24.6,33.0,-147.94922,-73.24219,961.42578,0.0041301471419193814,-0.08540122922811014,-0.12590351438281575,73.35,3.9,86.25,-849.60937,75.19531,509.27734,0.2472772012250054,-0.03024341434440814,0.04902909121532391,57.0,25.5,19.95
-1024.41406,33.69141,-117.1875,0.004796339317405617,0.07953901733651159,-0.01358965715480345,2.1,25.8,32.7,-132.32422,-79.10156,975.09766,0.0762082309920056,-0.06541651116107426,-0.1260366830047429,73.8,1.95,85.95,-866.21094,75.68359,501.46484,0.2519401973875587,-0.001065872574192937,0.057689065897869374,58.35,25.05,20.25
-1007.32422,52.73438,-100.09766,-0.06155287579593442,0.1013889687751538,-0.017186780743163762,2.55,24.6,32.55,-124.02344,-63.47656,1001.46484,0.061419532641082054,-0.05609034430304257,-0.15388201495691084,73.35,2.7,85.95,-860.83984,69.33594,498.53516,0.2079739572664199,-0.06101985224237535,0.06701523275590107,58.35,25.05,20.25
-998.53516,40.52734,-103.02734,-0.0033307863445059785,0.08526806060618297,0.02091724748637644,2.55,24.6,32.55,-127.92969,-70.80078,1008.30078,0.04969528339081014,-0.02851152412765417,-0.16147629159818858,73.05,2.4,87.45,-874.02344,93.26172,489.25781,0.21143791223285305,-0.0373046674321268,0.06821444848494637,57.6,25.5,19.65
-1014.16016,26.85547,-98.14453,0.00186523337160634,0.05515781488370199,-0.0009327039522657697,4.05,26.7,31.5,-131.83594,-79.58984,977.05078,0.007327764864498192,-0.029044373148288036,-0.1281684281531288,72.45,2.55,86.55,-864.74609,89.35547,516.11328,0.19931398258387445,-0.10938292581513821,0.08726646259971647,58.05,25.05,21.0
-1011.23047,37.59766,-81.54297,-0.05555749528240869,0.11044862385640596,0.002131745148385874,1.8,24.9,33.0,-132.8125,-67.38281,979.49219,-0.015188378749630253,-0.04010260475599891,-0.15921137782787553,72.45,2.55,86.55,-867.67578,107.42188,513.18359,0.21703361234767207,0.029577396701847107,0.08087140168748405,56.7,25.35,19.5
-1011.23047,35.15625,-94.23828,-0.05022813241144401,0.10045643935581322,-0.0486294108166172,2.1,25.8,31.65,-116.69922,-58.59375,1025.87891,0.01305663360124438,-0.031309286918601076,-0.10565245907192554,72.9,2.25,86.85,-868.65234,106.93359,505.85937,0.22929088515150303,-0.05076115596500308,0.04729702646564473,57.3,25.05,18.15
-1009.76562,28.80859,-103.02734,0.0015987215948268059,0.04183466950567808,-0.013989337553510148,3.75,24.0,31.35,-133.78906,-80.07813,1006.34766,0.03224199087086685,-0.03224199087086685,-0.11377941020091194,72.15,2.55,85.05,-852.53906,124.51172,528.32031,0.1593445464498027,-0.058488601228207975,0.03983609297921937,57.15,24.15,18.45
-997.55859,11.23047,-105.46875,-0.03757117920890633,0.11697702792349074,-0.08660027042423024,3.75,24.0,31.35,-155.27344,-80.07813,1005.85937,0.008526806060618296,-0.0924624823158288,-0.14002602055825306,72.15,2.55,85.05,-870.11719,112.30469,526.36719,0.18399226067939184,-0.03557277721537283,0.019185357269622467,57.15,24.6,19.5
-1012.69531,3.41797,-102.53906,-0.007594102108352528,0.15175044434145019,-0.03983609297921937,4.2,24.75,32.1,-129.88281,-84.96094,1014.64844,0.003996978519992214,-0.08926486459324998,-0.057689065897869374,72.15,2.55,85.05,-872.55859,119.62891,518.55469,0.21769980452315832,-0.024781057384441488,-0.007594102108352528,57.15,24.6,19.5
-1030.27344,11.71875,-123.53516,0.010125527655445103,0.1236386006125027,-0.010791719830931338,1.35,25.05,32.4,-139.16016,-73.24219,1021.97266,0.0275788201753884,-0.03290818304635308,-0.0920628019171221,73.8,1.2,85.95,-886.71875,111.81641,551.26953,0.2165007633270382,-0.07807346436361194,0.015321547371557422,58.2,24.6,19.8
-1043.45703,14.64844,-102.53906,0.03424039286440035,0.14921901879435762,-0.01358965715480345,4.95,25.8,31.35,-140.13672,-76.17188,1048.82813,0.01625425132382319,-0.016520588567677526,-0.0738101485997654,72.9,3.3,85.8,-881.34766,125.97656,519.53125,0.20943951023931956,-0.06581619155978097,0.0002665117767795341,57.6,25.8,19.65
-1045.89844,23.4375,-115.72266,0.009592678634811233,0.14095872451051883,-0.05875493847206231,4.95,25.8,31.35,-132.8125,-77.63672,1042.96875,0.0017320647496791726,-0.023048992634762316,-0.11004894345769926,73.05,3.15,87.0,-862.79297,120.60547,534.66797,0.23875039516438712,-0.053292581512095656,0.048496242194690044,58.35,25.05,19.65
-1035.15625,28.80859,-106.44531,0.057689065897869374,0.09832469420742734,-0.014655355196071187,1.35,25.8,32.7,-133.30078,-90.33203,1039.0625,0.022516143614128445,-0.034107224242473186,-0.12950081250410125,72.9,2.55,85.05,-852.05078,118.16406,531.25,0.2238285281915364,-0.05875493847206231,0.04716385784371757,58.35,24.75,19.2
-1036.62109,43.94531,-95.70313,-0.001065872574192937,0.11524496317381157,0.0,1.5,27.15,31.95,-116.21094,-77.14844,1007.8125,0.0186523337160634,-0.003996978519992214,-0.15961105822658223,71.7,1.5,86.55,-867.67578,120.60547,494.14062,0.15721280130141685,-0.007993957039984428,0.027179139776681696,58.8,25.8,19.2
-1007.32422,57.12891,-105.95703,-0.005329188338039486,0.04063545377663278,-0.021050590641228807,2.25,26.4,30.45,-101.5625,-67.38281,1006.34766,0.05808874629657607,-0.012656953202537678,-0.14042570095695978,72.3,1.2,87.0,-862.30469,117.67578,536.62109,0.09512707648484854,-0.06514999938429474,-0.020784078864449274,57.3,25.05,19.2
-1022.46094,49.80469,-85.44922,-0.014255674797364485,0.03104294967474674,0.05489130310692246,2.1,24.3,30.0,-100.58594,-44.43359,1010.74219,0.05822208945142844,0.01492186697285072,-0.12923430072732173,72.3,1.2,87.0,-854.98047,124.51172,534.17969,0.10352071392353968,-0.061819213039788753,0.022649312236055614,57.3,25.05,19.2
-1000.97656,31.73828,-99.60938,-0.07207808385008622,0.0656830229378538,0.01771980429672283,2.1,24.3,30.0,-98.14453,-34.17969,981.93359,0.03543943406052046,0.04489894407340452,-0.13842729896342626,73.2,3.3,86.85,-846.67969,117.1875,530.27344,0.12137368684218967,-0.030110245722480975,-0.007727445263204894,57.45,23.85,19.05
-996.58203,20.50781,-90.33203,-0.06914697790428695,0.06901380928235978,0.03104294967474674,1.8,24.9,30.9,-89.84375,-46.875,997.55859,0.012257272803830977,0.09446088430936231,-0.13722825776730616,73.35,3.45,85.95,-834.47266,134.76562,534.17969,0.094860564708069,-0.016653931722529894,0.04170132635082572,57.45,23.85,19.05
-995.11719,10.74219,-78.125,-0.01252378458061051,0.06901380928235978,0.019318525891549636,1.8,26.1,30.15,-89.84375,-61.52344,990.23437,-0.012390441425758144,0.07274427602557246,-0.07714093494427138,72.15,3.0,86.85,-829.58984,136.23047,542.48047,0.07940584871458442,-0.022915824012835147,0.014255674797364485,57.6,26.25,17.85
-1000.0,16.60156,-79.10156,0.037171498810199634,0.03663864978956576,-0.028644692749581334,3.0,26.1,31.2,-87.40234,-72.26563,1009.76562,-0.04063545377663278,0.04676417744501087,-0.08073805853263168,72.15,3.0,86.85,-827.63672,120.60547,549.31641,0.0831363154577971,-0.04596481664759746,-0.01638741994575036,58.35,25.05,19.2
-1010.25391,44.43359,-61.03516,-0.03290818304635308,0.10245484134934674,-0.03797085960761303,3.75,25.05,30.6,-84.96094,-84.47266,994.14062,-0.008526806060618296,0.08993105676873621,-0.07447634077525163,72.45,2.55,86.1,-830.07812,137.69531,561.03516,0.07074587403203896,0.012257272803830977,-0.024514545607661954,55.8,25.5,19.2
-983.39844,29.78516,-82.51953,0.005995380513525721,0.06741508768753297,-0.008926486459324997,3.75,25.05,30.6,-95.70313,-81.05469,975.09766,0.016653931722529894,0.05609034430304257,-0.06621587195848767,74.1,3.15,85.95,-827.63672,136.71875,539.55078,0.06341810916754076,0.007594102108352528,-0.0033307863445059785,58.2,24.6,20.1
-980.95703,29.78516,-80.07813,0.023981696587028086,0.06408430134302699,-0.008793317837397832,2.4,25.05,32.4,-91.30859,-100.09766,1002.92969,-0.03224199087086685,0.011990761027051442,-0.11084847878803786,74.1,3.15,85.95,-828.61328,129.88281,523.92578,0.1009892883764471,-0.006261892290305255,-0.057689065897869374,58.2,24.6,20.1
-984.375,30.76172,-79.58984,-0.06554985431592662,0.10551911591707318,0.005995380513525721,3.15,25.05,31.35,-110.83984,-90.33203,984.86328,-0.04716385784371757,0.03184231047216015,-0.08087140168748405,73.8,1.65,86.25,-834.47266,116.21094,579.10156,0.06661555235719438,-0.009192998236104533,0.004529827540626083,58.5,24.9,19.8
-974.60937,12.69531,-68.84766,-0.019451694513476805,0.1021883295725672,0.015588059148336955,2.1,24.75,29.25,-121.58203,-91.79688,1009.27734,-0.015987739547043658,0.00652840406708479,-0.0750091897958855,73.95,3.0,86.55,-838.37891,103.51563,580.07812,0.05169368538434365,0.0093261668580317,-0.034107224242473186,57.45,26.7,19.5
-951.66016,-5.85937,-69.82422,0.030509926121187674,0.051960197161123184,0.02278248085798278,1.8,25.35,28.8,-112.30469,-94.72656,1012.20703,-0.0019984019935335075,0.016520588567677526,-0.1025880099712739,72.6,1.2,85.2,-851.07422,102.53906,582.03125,0.05995397966818241,-0.021716608283789844,0.003996978519992214,57.45,26.7,19.5
-939.45312,-12.20703,-65.91797,-0.05928796202562137,0.17786371154393893,-0.013722825776730615,1.8,25.35,28.8,-90.33203,-104.00391,1013.18359,0.040901965553412314,-0.01252378458061051,-0.08873201557261612,72.6,1.2,85.2,-837.40234,97.16797,581.05469,0.11764322009897699,-0.038903563559878805,0.017586461141870464,57.3,24.0,19.65
-946.28906,-26.36719,-86.91406,0.061419532641082054,0.1805283057129587,0.07154523482945235,1.05,25.05,31.65,-88.37891,-117.67578,1015.625,-0.015055210127703087,-0.02931088492506757,-0.08260329190423803,72.6,1.2,85.2,-821.28906,88.86719,572.26562,0.11364624157898477,-0.04716385784371757,-0.007061253087718659,56.55,24.75,19.2
-978.02734,-37.59766,-78.61328,0.09259565093775597,0.15641344050400344,0.04982845201273731,2.55,25.65,29.4,-88.37891,-123.53516,1008.78906,-0.006261892290305255,-0.10325420214676014,-0.0571562168772355,74.7,0.75,86.55,-810.54687,103.02734,595.70312,0.10192181779578767,-0.030110245722480975,-0.04596481664759746,58.35,26.25,20.25
-974.60937,-20.50781,-91.30859,0.06728174453268061,0.2671285761371889,0.057689065897869374,2.25,25.35,30.45,-69.82422,-109.86328,996.09375,0.0025314255470925756,-0.12350543199057554,-0.09152977836356303,73.8,1.2,86.25,-811.03516,94.23828,588.86719,0.14988521096984384,0.023848353432175718,-0.026379778979268294,57.9,24.9,19.05
-981.93359,-15.625,-99.12109,0.10471975511965978,0.13656206559181994,0.08207044288360416,0.6,25.5,30.3,-59.57031,-109.375,1015.13672,-0.0014655529728996386,-0.09019756854551575,-0.08420218803199005,73.2,1.5,86.85,-832.51953,98.63281,582.51953,0.1448223598756587,-0.015721227770264124,-0.03210864771601448,56.7,25.35,19.5
-971.19141,-10.74219,-91.30859,0.16200914061882243,0.13722825776730616,0.10125580015322662,0.6,25.5,30.3,-93.75,-115.23438,1004.39453,0.031309286918601076,-0.07660791139071231,-0.09752533341001395,73.05,1.65,85.65,-827.63672,108.39844,573.73047,0.14335680690275904,-0.008526806060618296,-0.08660027042423024,56.4,24.9,19.8
-958.00781,-12.20703,-120.11719,0.06368444641139509,0.17786371154393893,0.0750091897958855,0.6,25.5,30.3,-92.77344,-96.67969,1023.92578,0.07487602117395832,-0.06208572481656829,-0.12976714974795558,71.7,1.8,86.85,-851.07422,123.04688,586.91406,0.19491732366517553,0.014389017952216851,-0.029977077100553806,56.4,24.9,19.8
-971.67969,-7.8125,-123.53516,0.0843353566539172,0.19238589811808296,0.09685914123452771,1.65,24.3,29.55,-105.46875,-67.87109,1025.87891,0.06674889551204674,-0.045698304870817934,-0.13496316946406792,73.8,0.45,85.95,-854.98047,117.1875,566.89453,0.23701833041470793,-0.034773416417959425,-0.06968000145784602,57.3,23.7,18.15
-959.47266,-5.85937,-120.11719,0.10805054146416575,0.13576270479440652,0.18385909205746465,1.5,24.6,31.2,-90.82031,-47.85156,1021.48437,0.006661572689011957,-0.07674125454556469,-0.1009892883764471,73.8,0.45,85.95,-859.86328,127.44141,566.89453,0.231955653853448,-0.00039968039870670147,-0.06475031898558803,57.3,23.7,18.15
-953.125,-11.71875,-136.71875,0.08286980368101757,0.20490968269869347,0.17013626628073403,2.1,25.5,30.3,-91.79688,-77.14844,1046.38672,-0.010125527655445103,-0.10711783751189999,-0.15947771507172986,73.5,0.75,86.55,-840.33203,124.51172,549.31641,0.19878095903031537,-0.0035972981212855125,-0.0924624823158288,58.2,24.6,17.7
-972.65625,-11.23047,-137.69531,0.11164783958545127,0.21197093578641213,0.2079739572664199,0.75,24.6,31.2,-94.23828,-86.91406,1039.55078,-0.015321547371557422,-0.10818371008609293,-0.1418912539298594,73.2,0.75,86.85,-828.125,123.04688,545.41016,0.13642872243696755,0.022915824012835147,-0.08446852527584436,58.35,25.05,19.2
-980.46875,-20.99609,-143.55469,0.16933690548332064,0.1536156777130565,0.3009692886028826,0.75,24.6,31.2,-86.91406,-102.05078,1030.76172,-0.011724423783197109,-0.09046408032229529,-0.09046408032229529,71.4,1.8,85.5,-834.47266,123.53516,543.45703,0.13323127924731393,0.019318525891549636,-0.11124815918674456,56.4,24.9,19.8
-1003.90625,-13.18359,-151.36719,0.13483000084214075,0.20650840429352027,0.2532725817385311,1.8,25.35,31.95,-119.14063,-103.02734,1030.76172,-0.05449162270821576,-0.13283159884860724,-0.0567565364785288,71.4,1.8,85.5,-843.26172,133.30078,553.22266,0.15907803467302317,-0.022516143614128445,-0.028111843728947466,56.4,24.6,20.1
-1015.13672,-11.71875,-166.50391,0.2331546950495681,0.13922665976083967,0.2568698798598167,1.05,26.55,31.05,-117.1875,-105.95703,1022.46094,-0.10405356294417353,-0.08513471745133061,-0.11484528277510488,73.5,3.75,86.55,-843.26172,129.39453,538.08594,0.15388201495691084,0.016120908168970823,-0.10458658649773261,58.5,24.6,19.5
-1023.4375,4.39453,-156.73828,0.2462113286508125,0.09046408032229529,0.34120523651373386,1.05,25.8,31.35,-102.53906,-127.92969,1033.69141,-0.11138132780867173,-0.09712565301130725,-0.10418690609902591,73.35,1.65,86.25,-864.74609,125.97656,553.22266,0.15854518565238931,0.005995380513525721,-0.06088668362044818,57.9,24.9,20.85
-1020.50781,7.32422,-172.36328,0.23448690486761536,0.08766614299842318,0.291110272724217,1.05,26.25,29.55,-103.02734,-119.14063,1019.53125,-0.08486838020747627,-0.06115319539722772,-0.08180393110682463,72.15,0.75,85.5,-846.67969,149.90234,541.01562,0.164540566165915,0.01119140022963804,-0.11604432397122498,57.9,24.9,20.85
-1017.57812,-16.11328,-187.01172,0.2887120157990516,0.04809656179598333,0.31136132803510724,1.05,26.25,29.55,-114.25781,-123.04688,1026.36719,-0.05502447172884963,-0.07181157207330668,-0.07927250555973205,72.9,1.5,87.15,-833.00781,137.69531,517.08984,0.16920373686139348,0.03224199087086685,-0.08326948407972427,58.5,23.85,19.5
-1021.97266,-20.50781,-166.01562,0.3721148430336282,0.0005328490206338688,0.3001699278054692,0.45,24.9,31.2,-94.23828,-121.58203,987.79297,-0.015454890526409788,-0.05302606973531612,-0.08020520951199782,73.8,0.45,87.45,-832.03125,151.36719,516.11328,0.11404592197769146,0.021849951438642212,-0.07247776424879292,57.6,24.3,19.95
-1018.55469,-25.87891,-177.73437,0.3974287494387036,0.04423275189791829,0.27898616854231323,1.2,24.6,29.85,-97.16797,-127.92969,994.14062,-0.030509926121187674,-0.021050590641228807,-0.06248540521527499,71.4,2.25,85.5,-840.82031,174.80469,489.25781,0.06461715036366086,0.047830050019203804,-0.03344103206698695,58.2,23.4,19.05
-1045.89844,-13.18359,-172.36328,0.4119509360128476,-0.0186523337160634,0.3045665867241681,1.8,25.65,29.4,-97.16797,-114.74609,969.72656,0.007194421709645826,0.002131745148385874,-0.04183466950567808,71.4,2.25,85.5,-843.75,165.03906,496.58203,0.0041301471419193814,0.022516143614128445,-0.04250068714823912,58.5,24.6,20.1
-1010.25391,4.88281,-161.62109,0.4888253591803394,-0.04942877161403061,0.32761557935893043,0.75,25.35,29.85,-125.97656,-105.95703,983.88672,0.05928796202562137,-0.03117611829667391,-0.03330786344505979,72.3,1.2,87.0,-844.72656,167.48047,509.27734,-0.04556513624889076,0.03983609297921937,-0.08819916655198225,58.2,24.6,20.1
-1002.44141,24.90234,-153.80859,0.49615312404483763,-0.11644417890285688,0.3073645240480402,0.75,25.35,29.85,-134.76562,-80.56641,997.07031,0.04809656179598333,-0.012390441425758144,-0.03543943406052046,72.6,1.65,85.95,-863.28125,159.66797,504.88281,-0.09059724894422246,-0.05235987755982989,-0.01305663360124438,58.2,23.1,21.6
-992.67578,42.48047,-152.34375,0.44925577797789956,-0.025047394628295826,0.30110263175773494,1.35,25.8,29.55,-156.73828,-67.38281,999.51172,0.04076879693148514,-0.04276719892501865,-0.007594102108352528,72.6,1.95,86.7,-871.58203,156.25,527.34375,-0.09512707648484854,0.020784078864449274,-0.04489894407340452,57.0,25.05,18.9
-962.40234,66.89453,-138.18359,0.5076110360512552,-0.06821444848494637,0.2815175940894058,0.75,24.6,29.1,-160.15625,-102.05078,1027.34375,0.011990761027051442,-0.01025887081029747,-0.03264167126957355,72.6,1.95,86.7,-886.71875,148.92578,512.69531,-0.14668759324726502,0.025846929958634426,-0.05489130310692246,57.0,25.05,18.9
-969.23828,65.91797,-140.625,0.4842955316397134,-0.03823737138439257,0.29337518649453004,0.45,25.65,29.85,-150.39062,-83.00781,988.28125,-0.010392039432224637,-0.01625425132382319,0.019984718067035872,72.15,0.75,87.6,-872.07031,133.30078,505.85937,-0.1552143993078833,-0.029044373148288036,-0.06941348968106648,59.85,24.3,20.25
-975.09766,72.75391,-131.83594,0.3903674963509849,0.06888046612750741,0.22116393402251666,1.35,25.05,30.3,-122.55859,-93.26172,1009.27734,0.00652840406708479,-0.04343339110050489,0.04343339110050489,73.2,0.3,87.9,-879.39453,142.08984,524.41406,-0.14895250701757806,-0.017186780743163762,-0.07394331722169258,59.85,24.3,20.25
-987.30469,80.07813,-154.29687,0.3718483312568487,0.11684385930156357,0.21223744756319168,1.35,25.05,30.3,-123.04688,-86.91406,971.19141,-0.0046631706954784495,-0.016653931722529894,0.05662319332367644,73.2,0.3,87.9,-863.76953,140.625,517.08984,-0.19318525891549634,-0.019451694513476805,-0.0006661921754862356,58.05,24.3,20.25
-984.86328,66.89453,-152.34375,0.40808730064770776,0.04463243229662499,0.2872466373590772,1.35,22.95,29.55,-113.28125,-115.72266,1013.18359,-0.015055210127703087,-0.013456313999951081,0.0632847660126884,72.45,1.8,86.85,-843.75,135.25391,530.76172,-0.22276265561734346,-0.03370754384376649,-0.010791719830931338,57.6,23.7,19.95
-989.74609,64.45313,-159.66797,0.3181562438789715,0.06301842876883405,0.21516837897606572,1.05,24.75,30.3,-119.14063,-85.44922,1023.92578,0.015321547371557422,-0.0017320647496791726,0.09939056678162028,71.7,0.3,86.55,-854.00391,143.06641,527.83203,-0.21583457115155197,-0.0385038831611721,0.0014655529728996386,57.6,25.05,18.6
-1004.88281,56.64063,-146.48437,0.30669833187255396,0.062219067971420655,0.1771975193684527,1.35,25.5,29.25,-128.90625,-109.86328,1026.36719,0.05289272658046376,-0.015588059148336955,0.07514235841781267,73.05,1.95,86.7,-861.81641,127.44141,528.32031,-0.1990474708070949,-0.014522186574144018,-0.047696706864351436,59.1,24.0,19.95
-1010.74219,57.61719,-170.89844,0.3292143009537572,0.004396658918698916,0.17733086252330507,-0.45,25.35,31.95,-126.46484,-96.19141,1018.55469,0.06301842876883405,-0.020650910242522108,0.09272899409260832,73.05,1.95,86.7,-862.30469,122.55859,520.50781,-0.1845252842329509,-0.04689734606693803,-0.028644692749581334,58.35,24.0,18.9
-1013.67187,58.59375,-154.78516,0.26060034660302933,0.08793265477520272,0.14109189313244602,-0.45,25.35,31.95,-128.90625,-91.79688,1024.90234,0.026912627999902163,0.03384071246569365,0.09126344111970869,72.9,0.75,86.85,-851.07422,98.63281,497.55859,-0.2050428513206206,-0.005995380513525721,-0.008526806060618296,58.35,24.75,20.25
-1029.78516,69.82422,-158.20312,0.2551378151101375,0.04676417744501087,0.05315923835724329,2.1,25.5,28.2,-105.46875,-96.19141,1007.32422,-0.01771980429672283,0.010125527655445103,0.13522968124084744,72.9,1.8,87.6,-842.77344,86.42578,493.65234,-0.2299570773269893,-0.00559570011481902,-0.05142717360756412,58.35,24.75,20.25
-1040.03906,66.40625,-161.13281,0.1851914764084371,0.02891120452636087,0.07314395642427915,1.05,24.75,28.95,-99.60938,-94.72656,985.35156,0.011591080628344743,0.0013323843509724712,0.1184425808963904,72.3,1.65,86.7,-834.47266,93.26172,503.41797,-0.1994471512058016,-0.02944405354699474,-0.035039753661813756,57.9,24.9,19.5
-1035.64453,84.96094,-154.78516,0.18892194315164978,-0.03543943406052046,0.04156815772889855,0.0,24.3,28.95,-107.91016,-104.00391,986.32812,0.008127125661911596,0.07367680544491303,0.06941348968106648,72.0,0.45,87.0,-854.00391,86.91406,490.23437,-0.18292656263812407,-0.03757117920890633,0.0014655529728996386,57.15,25.65,19.5
-1018.55469,68.84766,-153.80859,0.1289677889505422,-0.051960197161123184,0.06421746996495417,-0.3,24.75,28.95,-96.67969,-102.53906,975.09766,0.008526806060618296,0.0377045223637587,0.13682840283567427,72.9,1.8,85.05,-836.91406,85.44922,523.92578,-0.20144555319933513,-0.025313906405075356,-0.007860613885132062,57.15,24.6,18.75
-1020.99609,72.75391,-148.4375,0.17413324480072626,-0.04796321864113097,0.10352071392353968,-0.3,24.75,28.95,-120.60547,-116.69922,980.46875,0.05209336578305035,0.14868599524079854,0.09592643728226194,72.6,2.4,85.95,-851.5625,81.54297,507.8125,-0.2165007633270382,-0.0014655529728996386,-0.04436592051984546,57.0,24.3,20.25
-1017.08984,65.91797,-141.11328,0.08886518419454328,-0.04383307149921159,0.05076115596500308,0.6,24.3,30.0,-130.85937,-108.88672,998.53516,0.04010260475599891,0.1200413024912172,0.15108425216596394,72.6,2.4,85.95,-873.53516,50.29297,530.27344,-0.22582693018506989,0.026912627999902163,-0.022516143614128445,58.35,23.7,19.2
-1020.99609,71.28906,-153.80859,0.05742272865401504,-0.04356655972243205,0.05275955795853659,1.05,24.75,28.95,-126.95313,-133.78906,1029.29688,0.08247012328231085,0.08660027042423024,0.11857574951831756,72.6,2.4,85.95,-878.90625,42.96875,531.73828,-0.255404326886917,0.04356655972243205,-0.06075351499852101,57.45,23.85,19.5
-1000.97656,71.28906,-136.71875,0.03490658503988659,-0.05609034430304257,0.05928796202562137,0.0,25.05,29.55,-126.95313,-140.13672,1037.10938,0.05289272658046376,0.10671815711319327,0.11364624157898477,73.2,1.5,86.55,-890.625,57.12891,522.46094,-0.2384838833876076,0.0361056262360067,-0.030909606519894377,57.45,23.85,19.5
-991.69922,62.98828,-117.67578,0.0025314255470925756,0.0369049870334201,0.05995397966818241,-0.15,25.35,29.85,-151.85547,-131.83594,1020.50781,0.055290983505629165,0.11098164740996504,0.12430479278798894,72.9,1.5,87.15,-878.41797,58.59375,536.13281,-0.2395497559618005,0.015588059148336955,-0.06674889551204674,58.95,23.4,19.8
-978.51562,73.73047,-114.25781,-0.016920443499309427,0.023848353432175718,0.02744565155346123,-0.15,25.35,29.85,-149.90234,-136.23047,1017.08984,0.06155287579593442,0.1013889687751538,0.13562936163955416,72.15,0.75,87.6,-862.79297,75.19531,537.10937,-0.2047763395438411,-0.033973881087620825,-0.011990761027051442,58.95,23.4,19.8
-1014.64844,69.82422,-125.48828,0.0030642745677264445,0.00373046674321268,0.07794029574168478,1.65,25.8,30.0,-125.0,-124.02344,999.02344,0.03623896939085906,0.08699995082293695,0.10618530809255941,72.15,0.75,87.6,-848.14453,80.56641,526.85547,-0.22596009880699708,-0.04223434990438478,-0.020650910242522108,57.3,23.7,22.05
-1007.32422,96.19141,-139.16016,-0.08713329397778931,0.04942877161403061,0.052626389336609423,0.45,24.9,30.15,-125.97656,-91.30859,1003.90625,0.07474267801910597,0.06781476808623968,0.07660791139071231,73.35,1.95,86.7,-840.33203,81.05469,531.73828,-0.23861722654245995,0.05835525807335561,-0.006128723668378088,56.1,23.85,20.55
-1031.25,71.77734,-139.64844,-0.0932618431132422,0.029977077100553806,0.0014655529728996386,-0.15,25.65,28.8,-112.30469,-114.25781,1004.39453,0.06341810916754076,0.07007968185655272,0.1065849884912661,73.5,1.8,86.85,-854.00391,57.12891,545.89844,-0.2238285281915364,-0.010125527655445103,0.005062851094185151,57.0,23.7,19.65
-1030.76172,74.70703,-136.71875,-0.05622351292496973,-0.008926486459324997,0.06861412888365308,1.05,26.25,27.9,-105.46875,-99.60938,997.55859,0.06581619155978097,0.12257272803830976,0.10685150026804564,73.5,1.8,86.85,-856.44531,65.91797,590.33203,-0.26886064088686806,0.03543943406052046,-0.06728174453268061,57.0,24.0,21.75
-1025.39063,58.59375,-127.92969,-0.09899088638291359,0.031575798695380616,0.016653931722529894,1.05,26.25,27.9,-116.21094,-106.44531,1000.0,0.03663864978956576,0.12110717506541013,0.11551147495059111,73.35,1.65,87.75,-869.62891,63.96484,583.98437,-0.2444792639011333,0.019984718067035872,-0.023582016188321384,57.0,24.0,21.75
-1005.37109,53.22266,-115.72266,-0.11284688078157137,0.034373736019252726,-0.03290818304635308,1.05,26.25,27.9,-116.21094,-139.16016,1008.78906,0.01638741994575036,0.10152213739708096,0.1394931715376192,72.6,1.65,85.95,-860.83984,36.13281,561.03516,-0.23861722654245995,-0.008127125661911596,-0.03597245761407953,57.45,24.15,19.05
-974.60937,68.35938,-114.74609,-0.07021285047847989,-0.002131745148385874,-0.013456313999951081,1.5,24.9,28.8,-92.28516,-131.83594,1015.625,0.017986141540577164,0.08526806060618297,0.13736142638923332,73.2,2.25,87.9,-857.42187,34.17969,600.09766,-0.20730776509093368,0.02651294760119546,-0.03450690464117989,57.45,24.15,21.6
-966.79687,58.10547,-105.95703,-0.07154523482945235,-0.012257272803830977,-0.0676814249313873,1.5,23.85,28.35,-77.14844,-132.8125,1030.27344,0.0,0.0932618431132422,0.15561407970659,73.2,2.25,87.9,-843.75,32.71484,552.24609,-0.1670719917130076,-0.014255674797364485,-0.06888046612750741,57.45,24.15,21.6
-960.44922,54.19922,-111.81641,-0.0831363154577971,0.0660827033365605,-0.08020520951199782,-0.45,24.6,28.8,-85.44922,-125.48828,1006.83594,-0.012257272803830977,0.04596481664759746,0.13789427540986718,72.6,1.65,85.95,-831.05469,34.66797,576.17187,-0.21836599669864454,0.012790121824464847,0.015987739547043658,57.6,23.25,19.95
-956.05469,57.61719,-122.07031,-0.03877022040502644,0.05102749320885741,0.004529827540626083,-0.45,24.6,28.8,-103.51563,-120.60547,988.76953,0.0019984019935335075,0.031309286918601076,0.11218068860608514,72.9,1.5,86.85,-833.00781,46.875,573.73047,-0.15428169535561753,0.03623896939085906,0.015188378749630253,59.4,23.7,19.95
-974.12109,44.43359,-110.83984,-0.05702304825530834,0.02331550441154185,-0.044099583275991124,-0.45,24.6,28.8,-66.40625,-115.72266,1010.25391,0.04716385784371757,0.02571358680378206,0.15907803467302317,72.6,1.65,85.2,-827.63672,35.64453,552.24609,-0.16693882309108043,0.05169368538434365,0.015588059148336955,58.5,24.15,20.1
-987.79297,58.10547,-137.69531,-0.07034601910040704,0.10018992757903368,-0.09579326866033477,0.45,23.85,28.35,-90.33203,-115.23438,1011.71875,0.04196783812760525,0.025846929958634426,0.1293674693492489,72.6,1.65,85.2,-820.3125,47.36328,581.05469,-0.1893216235503565,0.029577396701847107,0.004929507939332785,57.15,24.9,19.8
-1008.78906,57.61719,-128.90625,-0.03250850264764638,0.025980098580561592,-0.04196783812760525,-0.3,25.5,30.0,-104.49219,-88.86719,1000.48828,-0.013323145378023914,0.026912627999902163,0.11537830632866394,72.6,1.2,86.25,-830.56641,52.73438,548.82812,-0.1873230470238978,0.07234459562686575,-0.009592678634811233,55.8,23.7,20.7
-1023.4375,75.68359,-127.92969,-0.03304135166828025,0.009592678634811233,-0.002398082392240209,0.75,24.6,29.1,-103.02734,-85.9375,1000.97656,-0.0722112524720134,0.030509926121187674,0.15308265415949743,73.05,0.9,87.0,-816.40625,46.875,572.26562,-0.17200149965234038,0.03757117920890633,-0.028777861371508503,58.35,23.25,20.7
-1011.71875,70.80078,-139.64844,-0.10005658442418133,0.010924888452858507,-0.07141189167459998,0.75,24.6,29.1,-104.98047,-102.53906,978.02734,-0.12577034576088858,0.025047394628295826,0.18465845285487806,73.05,0.9,87.0,-829.10156,68.35938,565.91797,-0.13429715182150687,0.06062017184366865,0.031708967317307775,58.35,23.25,20.7
-1009.27734,73.24219,-123.04688,-0.05422511093143622,-0.06501683076236757,-0.009859190411590769,0.6,25.5,29.25,-83.00781,-120.11719,991.21094,-0.12417144963313657,0.0579555776746489,0.13389747142280017,72.9,0.75,87.6,-828.125,67.87109,582.03125,-0.16587295051688747,0.00839363743869113,-0.007860613885132062,57.45,24.15,20.85
-972.65625,98.63281,-112.30469,-0.06301842876883405,-0.025980098580561592,-0.03077643789796721,0.45,24.6,29.1,-52.73438,-159.66797,984.86328,-0.11218068860608514,0.08673361357908262,0.16001073862528895,72.6,3.15,88.5,-827.14844,62.98828,601.5625,-0.2347534166443949,0.08500154882940344,0.029710565323774273,57.45,24.15,20.85
-968.26172,86.42578,-99.12109,-0.1448223598756587,0.018385996472209065,-0.08020520951199782,0.15,25.65,28.8,-51.75781,-208.98437,968.75,-0.06728174453268061,0.048762579438544375,0.1111148160318922,73.5,1.5,86.1,-825.19531,49.31641,567.87109,-0.2210305908676643,0.10685150026804564,-0.007860613885132062,56.7,24.6,20.55
-974.60937,67.87109,-102.53906,-0.08526806060618297,-0.01358965715480345,-0.037171498810199634,1.2,25.65,27.75,-52.73438,-206.54297,983.39844,0.023848353432175718,0.11204751998415798,0.10698466888997281,73.5,1.5,86.1,-831.05469,47.36328,595.70312,-0.20650840429352027,0.10818371008609293,-0.01252378458061051,57.9,24.15,22.2
-969.72656,59.57031,-115.23438,-0.05449162270821576,-0.025980098580561592,0.009725847256738402,1.2,25.65,27.75,-76.17188,-202.14844,1010.25391,0.07780712711975761,0.1617428033749681,0.10685150026804564,73.2,1.8,86.55,-833.49609,21.48438,568.84766,-0.22556041840829036,0.10152213739708096,0.003996978519992214,57.6,24.0,21.0
-980.46875,66.89453,-105.95703,-0.11977496524736285,-0.0017320647496791726,-0.02424803383088242,1.2,25.35,29.1,-78.61328,-132.32422,1030.76172,0.16280850141623585,-0.0190520141147701,0.07434299762039927,74.4,1.2,85.2,-835.9375,41.01563,591.30859,-0.23342120682634765,0.11098164740996504,-0.001065872574192937,57.6,25.8,19.65
-979.49219,66.40625,-109.375,-0.0811377389313384,0.030110245722480975,0.007061253087718659,0.0,25.05,28.2,-98.63281,-80.56641,1022.94922,0.12950081250410125,0.04116847733019184,0.039969436134071744,72.45,3.0,87.15,-825.68359,60.54688,620.60547,-0.22129710264444383,0.12550383398410905,-0.0015987215948268059,57.6,24.3,21.0
-989.74609,73.73047,-115.23438,-0.09539358826162808,-0.00013316862192716734,0.060487003221741484,0.3,25.5,28.95,-111.81641,-39.0625,1049.80469,0.12497098496347518,0.06381778956624745,0.06288508561398169,73.95,2.55,87.6,-844.72656,78.61328,586.91406,-0.18345941165875795,0.08846550379583658,0.017320123898016127,56.55,24.0,19.65
-985.35156,54.19922,-102.53906,-0.11324656118027807,0.008793317837397832,-0.04250068714823912,0.3,25.05,28.95,-102.53906,-28.80859,1060.54688,0.022516143614128445,0.04423275189791829,0.07940584871458442,73.35,2.4,86.7,-842.28516,107.42188,577.63672,-0.17786371154393893,0.10392039432224637,0.0275788201753884,56.55,24.0,19.65
-981.44531,43.45703,-112.30469,-0.09352835489002174,-0.048762579438544375,-0.03317452029020742,0.3,25.05,28.95,-99.60938,-29.78516,1050.78125,0.03304135166828025,-0.021849951438642212,0.08779931162035035,73.05,1.95,87.75,-856.93359,107.91016,570.80078,-0.2085068062870538,0.07141189167459998,0.00013316862192716734,57.45,26.1,20.85
-962.40234,60.05859,-118.65234,-0.020784078864449274,-0.08193727426167699,-0.04449926367469782,-0.15,24.15,29.85,-104.49219,-50.29297,1006.34766,0.002398082392240209,-0.022649312236055614,0.1529494855375703,73.05,1.95,87.75,-843.26172,122.55859,592.77344,-0.2836493392377916,0.0920628019171221,0.07327712504620633,58.2,23.85,21.15
-964.35547,69.82422,-118.65234,-0.034373736019252726,-0.04929560299210344,-0.07394331722169258,0.75,26.1,29.1,-78.61328,-45.89844,1008.78906,-0.03024341434440814,-0.04143498910697138,0.13696174599052663,72.6,2.7,85.95,-824.21875,84.47266,561.52344,-0.28125108231262624,0.12097400644348297,0.0035972981212855125,58.2,23.85,21.9
-968.75,88.37891,-133.30078,-0.07407648584361974,0.007860613885132062,-0.09925722362676792,0.75,25.35,30.15,-88.37891,-45.89844,988.76953,-0.06554985431592662,-0.021183759263155976,0.1301670046795875,73.8,3.45,87.45,-829.58984,62.5,571.28906,-0.2881791667784177,0.06235223659334782,0.0013323843509724712,56.7,24.15,20.55
-962.89062,72.75391,-140.13672,-0.07341046820105869,-0.11737670832219745,-0.10591879631577987,1.2,25.65,28.8,-82.03125,-66.40625,1007.8125,-0.1333644478692411,-0.02411486520895525,0.1617428033749681,72.6,2.4,87.45,-831.54297,33.20313,585.9375,-0.25020830717080467,0.08260329190423803,0.04116847733019184,56.7,24.15,20.55
-932.61719,78.125,-126.46484,-0.1370949146124538,-0.05622351292496973,-0.16440739754398787,1.2,25.65,28.8,-88.37891,-109.86328,1040.03906,-0.08420218803199005,-0.0373046674321268,0.20171206497611466,72.6,2.4,87.45,-828.61328,16.60156,577.14844,-0.19878095903031537,0.07993869773521828,0.03930324395858551,56.7,24.15,20.55
-942.87109,102.53906,-119.62891,-0.15108425216596394,0.010525208054151804,-0.21117157498899872,0.45,24.9,29.4,-113.28125,-139.64844,1026.85547,-0.12057432604477626,-0.06621587195848767,0.20251142577352804,72.6,2.4,87.45,-836.91406,2.44141,571.77734,-0.17479943697621247,0.077007591789419,0.013722825776730615,58.05,23.7,21.3
-954.58984,88.37891,-144.53125,-0.1406922127337393,-0.07420982899847209,-0.1244379614099161,1.2,25.65,29.1,-109.86328,-142.57812,1016.11328,-0.1366952342137471,-0.052626389336609423,0.15028489136855053,73.95,5.25,87.6,-850.58594,-10.25391,579.10156,-0.11671051614671123,0.05395859915465669,0.034107224242473186,58.05,23.7,21.3
-993.65234,84.47266,-143.55469,-0.20184540813096702,0.0041301471419193814,-0.22969074008313498,2.1,27.3,28.95,-129.88281,-164.0625,1029.29688,-0.09672579807967534,-0.06914697790428695,0.16027725040206847,73.8,2.4,87.0,-849.60937,-0.48828,579.10156,-0.18385909205746465,0.1646737347878422,-0.07660791139071231,58.35,23.25,19.65
-998.04687,55.17578,-148.92578,-0.17866307234135234,-0.029577396701847107,-0.18266005086134454,0.0,24.3,28.95,-99.60938,-154.78516,1060.54688,-0.04649766566823133,-0.11178100820737844,0.08779931162035035,72.6,3.15,87.45,-862.79297,3.41797,572.75391,-0.06435063858688132,0.12310575159186884,0.043699902877284424,58.35,23.25,19.65
-996.58203,61.03516,-144.04297,-0.171202138854927,-0.096459460835821,-0.20451000229998678,0.0,24.3,28.95,-125.0,-148.92578,1039.55078,0.02518073778314819,-0.11417909059961863,0.09459422746421467,73.2,3.3,87.9,-871.09375,19.04297,551.75781,0.03224199087086685,0.08513471745133061,0.03757117920890633,58.95,24.6,20.85
-997.07031,48.33984,-160.64453,-0.22302916739412298,-0.06381778956624745,-0.23501992842117445,1.8,24.6,28.8,-118.65234,-136.23047,1041.50391,0.05249304618175705,-0.13163238311956194,0.030643269276040042,71.4,3.3,88.35,-872.07031,21.97266,530.27344,0.08513471745133061,0.06341810916754076,0.07527570157266503,56.7,25.35,20.85
-1000.97656,38.57422,-164.55078,-0.20824046904319946,-0.10511943551836647,-0.1945176432664688,0.15,24.6,29.85,-145.01953,-87.89063,1004.88281,0.07287744464749962,-0.11977496524736285,0.048496242194690044,73.05,3.15,87.0,-880.85937,24.90234,509.76562,0.1358958734163337,0.02331550441154185,0.08100457030941122,57.15,25.65,20.1
-1029.29688,42.48047,-168.45703,-0.17053594667944072,-0.14895250701757806,-0.18745639017875018,0.15,24.9,28.8,-141.60156,-80.07813,1007.8125,0.045032112695331694,-0.11804290049768368,0.0470306892217904,73.05,3.15,87.0,-857.42187,28.32031,528.80859,0.07674125454556469,0.029977077100553806,0.008260294283838763,56.4,24.15,21.15
-1047.36328,62.01172,-192.38281,-0.19358493931420306,-0.11457894553125055,-0.16480707794269456,0.75,25.65,28.8,-132.8125,-66.40625,1003.41797,0.04716385784371757,-0.07420982899847209,0.028644692749581334,73.2,1.5,87.9,-864.25781,21.48438,510.25391,0.12350543199057554,0.03264167126957355,0.011058231607710873,56.7,23.85,20.85
-1053.22266,55.66406,-180.66406,-0.20451000229998678,-0.16427405438913548,-0.16107661119948188,0.75,25.65,28.8,-127.92969,-75.19531,1007.32422,0.034107224242473186,-0.09059724894422246,0.00373046674321268,72.3,3.15,85.95,-872.55859,25.87891,520.50781,0.06261874837012736,0.03490658503988659,-0.031309286918601076,58.5,24.6,20.85
-1038.57422,55.66406,-184.57031,-0.15881169742916884,-0.2478100502456393,-0.08260329190423803,1.05,25.5,29.25,-139.64844,-61.52344,988.28125,-0.04676417744501087,-0.05822208945142844,0.03370754384376649,72.0,1.95,87.0,-895.01953,33.20313,490.23437,0.11537830632866394,0.031975479094087315,0.040901965553412314,58.5,24.6,20.85
-1024.41406,60.05859,-168.94531,-0.1458882324498516,-0.22529408116443603,-0.13283159884860724,0.6,25.8,30.3,-131.83594,-91.79688,998.04687,-0.10538594729514601,-0.04889592259339674,0.05076115596500308,72.0,1.95,87.0,-885.74219,23.92578,544.43359,0.03783769098568587,0.02411486520895525,0.031309286918601076,58.8,24.75,18.15
-1010.74219,58.59375,-163.08594,-0.20371064150257337,-0.15388201495691084,-0.09259565093775597,1.05,25.5,30.6,-201.66016,-117.1875,967.28516,-0.09139660974163587,0.1698697545039545,0.07087904265396612,71.1,2.55,88.35,-893.06641,44.92188,511.71875,0.08300314683586993,0.002398082392240209,0.013189976756096747,57.45,23.85,20.55
-1005.37109,44.43359,-148.4375,-0.1508177403891844,-0.21756663590123115,-0.048496242194690044,1.5,24.9,30.15,-164.55078,-113.76953,958.49609,-0.13469683222021359,-0.055690663904335864,0.04636449704630416,71.7,3.3,86.1,-875.97656,45.89844,517.57812,0.07660791139071231,-0.0041301471419193814,0.020784078864449274,58.05,24.3,20.25
-996.09375,49.80469,-131.34766,-0.13456348906536122,-0.16933690548332064,-0.0361056262360067,1.5,24.9,30.15,-144.53125,-141.60156,1008.78906,-0.13309793609246157,-0.05902145024884184,0.012790121824464847,71.7,3.3,86.1,-876.46484,69.82422,522.46094,0.06101985224237535,-0.04036911653277844,0.005329188338039486,57.9,25.35,20.1
-1002.44141,65.91797,-105.95703,-0.16147629159818858,-0.08580090962681684,-0.10698466888997281,1.5,24.9,30.15,-131.83594,-125.48828,1003.90625,-0.08979788814680904,-0.013189976756096747,0.025047394628295826,70.8,2.4,87.75,-866.69922,74.70703,508.78906,0.07554203881651937,0.0035972981212855125,0.019318525891549636,57.45,24.9,21.15
-991.69922,54.19922,-114.25781,-0.10738434928867951,-0.1474869540446784,-0.06368444641139509,1.2,24.9,30.15,-137.69531,-117.67578,979.49219,-0.10072277659966757,-0.0093261668580317,-0.045032112695331694,71.55,2.4,85.65,-869.62891,76.66016,528.32031,0.05422511093143622,-0.011058231607710873,0.020251229843815406,58.5,24.9,20.85
-978.02734,59.57031,-114.25781,-0.1111148160318922,-0.09379486666680127,-0.05475795995207009,2.4,26.25,31.05,-118.65234,-125.0,991.21094,-0.04609798526952463,-0.05555749528240869,-0.03250850264764638,72.45,2.25,86.1,-861.81641,65.91797,527.83203,0.05609034430304257,-0.009859190411590769,0.05968764242432808,58.5,24.9,20.85
-967.77344,59.08203,-98.63281,-0.07474267801910597,-0.02011788668896304,-0.02891120452636087,1.35,26.25,30.0,-106.44531,-116.69922,1011.23047,-0.04836289903983767,-0.05089432458693025,-0.0069280844657914915,72.45,2.25,86.1,-851.5625,38.57422,528.80859,0.06435063858688132,0.024514545607661954,0.05462479133014293,57.3,24.0,20.25
-977.53906,45.41016,-105.95703,-0.029977077100553806,-0.09019756854551575,-0.04609798526952463,2.25,24.6,29.85,-105.46875,-114.74609,1008.78906,0.02145027103993551,-0.03970292435729221,-0.02424803383088242,71.4,2.25,86.85,-831.54297,46.38672,508.78906,0.10125580015322662,0.008793317837397832,0.0373046674321268,57.3,24.0,20.25
-972.65625,68.35938,-103.02734,-0.009992359033517936,-0.09192963329519492,-0.01771980429672283,2.25,24.6,29.85,-114.74609,-126.46484,994.62891,0.03450690464117989,-0.0009327039522657697,-0.031975479094087315,72.0,1.95,87.75,-844.72656,23.92578,497.55859,0.1629418445710882,0.023448673033469015,0.02651294760119546,57.6,25.05,21.3
-997.07031,68.84766,-105.95703,-0.05875493847206231,-0.017053612121236593,-0.08100457030941122,0.6,25.05,30.0,-117.67578,-126.46484,996.09375,0.04316687932372535,-0.057689065897869374,-0.10232167272741956,72.0,2.7,86.7,-830.56641,29.29688,538.08594,0.13443032044343403,-0.04236751852631195,0.03224199087086685,58.05,25.05,20.25
-1010.25391,67.87109,-128.41797,-0.03570594583729999,-0.02331550441154185,-0.00373046674321268,1.35,27.3,28.95,-120.11719,-120.60547,986.81641,0.019718206290256335,0.026246610357341126,-0.07727410356619854,72.9,4.5,86.85,-849.12109,31.25,506.83594,0.13642872243696755,-0.02891120452636087,0.016653931722529894,58.05,25.05,20.25
-1007.8125,89.35547,-99.12109,-0.019851374912183504,-0.014389017952216851,-0.08060488991070451,2.1,24.0,30.6,-113.76953,-102.53906,1008.78906,0.04463243229662499,0.04956194023595778,-0.10685150026804564,73.2,0.75,86.85,-850.09766,7.8125,521.48437,0.13483000084214075,-0.02731248293153406,0.005728868736746187,57.15,23.85,20.85
-1031.25,104.49219,-116.21094,-0.09192963329519492,-0.0025314255470925756,-0.10938292581513821,2.7,24.3,30.0,-96.67969,-104.49219,1020.50781,0.03823737138439257,-0.013456313999951081,-0.13323127924731393,71.55,1.65,86.7,-861.32812,21.97266,534.66797,0.132165406673121,0.026646290756047828,-0.0033307863445059785,57.15,24.15,20.1
-1022.46094,105.95703,-115.72266,-0.07967236049136395,-0.05302606973531612,-0.004929507939332785,2.7,24.3,30.0,-112.79297,-92.77344,993.65234,-0.03384071246569365,0.04316687932372535,-0.07993869773521828,71.55,1.65,86.7,-856.93359,32.22656,507.32422,0.15561407970659,0.06075351499852101,0.00279793732387211,57.9,25.35,20.85
-1025.39063,85.44922,-112.79297,-0.08726646259971647,-0.06968000145784602,-0.07514235841781267,1.5,24.9,29.85,-83.98438,-119.14063,1017.57812,-0.04836289903983767,0.02464771422958912,-0.1107151356331855,71.4,1.8,86.55,-857.42187,45.89844,560.05859,0.11444560237639817,0.01252378458061051,0.028245012350874635,58.8,24.3,20.25
-1024.41406,70.3125,-106.93359,-0.13043334192344183,-0.017186780743163762,-0.1025880099712739,0.0,25.8,31.35,-81.54297,-132.8125,977.05078,-0.09446088430936231,0.031442630073453444,-0.1777305429220118,71.7,1.8,87.15,-847.16797,72.75391,569.33594,0.16920373686139348,-0.00039968039870670147,0.03330786344505979,58.8,24.3,20.25
-1025.87891,72.75391,-112.79297,-0.07634157414685798,-0.03623896939085906,-0.11271371215964421,2.25,24.9,29.85,-79.58984,-123.04688,1003.90625,-0.013189976756096747,0.06661555235719438,-0.12217304763960307,73.2,3.0,85.8,-835.9375,67.38281,540.52734,0.1618759719968953,0.03797085960761303,-0.014522186574144018,58.5,23.4,19.8
-1018.55469,81.05469,-102.53906,-0.07194491522815906,-0.09819135105257498,-0.07487602117395832,2.4,24.75,29.55,-86.91406,-120.60547,1003.90625,0.057689065897869374,0.014655355196071187,-0.12630319478152247,73.2,3.0,85.8,-858.39844,91.79688,557.12891,0.13443032044343403,0.03663864978956576,0.014389017952216851,58.2,24.6,20.55
-1026.36719,84.47266,-109.375,-0.09699230985645488,-0.058888281626914674,-0.16240882101752913,2.4,24.75,29.55,-114.74609,-116.21094,997.07031,0.02424803383088242,0.06994633870170035,-0.20037985515806736,71.55,1.95,86.25,-858.39844,85.9375,539.55078,0.15707963267948966,0.04170132635082572,-0.02091724748637644,56.1,25.35,19.8
-1025.39063,79.10156,-104.98047,-0.12843493992990834,-0.08207044288360416,-0.1649402465646217,1.5,24.9,30.9,-126.95313,-91.79688,1011.23047,0.0575558972759422,0.09259565093775597,-0.1633415249697949,72.9,1.5,87.15,-887.69531,87.40234,558.10547,0.15175044434145019,0.00186523337160634,-0.019984718067035872,58.2,25.35,20.1
-1004.39453,77.63672,-106.93359,-0.04969528339081014,-0.06581619155978097,-0.14082538135566647,1.35,24.75,30.0,-121.09375,-97.16797,1023.4375,0.0660827033365605,0.1204409828899239,-0.18878859999679742,72.6,1.2,85.65,-895.01953,87.40234,555.17578,0.15175044434145019,0.07154523482945235,-0.01638741994575036,58.05,24.75,18.6
-998.53516,89.35547,-95.21484,-0.1313660458757076,0.019318525891549636,-0.1779968801658661,1.5,25.65,30.15,-133.78906,-93.75,1041.50391,0.03117611829667391,0.04649766566823133,-0.2031776179490143,72.0,1.95,86.25,-892.57812,89.35547,535.15625,0.17666467034781883,-0.017320123898016127,0.010392039432224637,57.15,25.65,21.6
-1007.32422,86.42578,-97.65625,-0.1728008604497538,-0.04836289903983767,-0.14042570095695978,2.7,25.8,31.05,-106.44531,-96.19141,1013.67187,0.05235987755982989,0.053292581512095656,-0.20037985515806736,72.9,3.0,86.1,-865.72266,123.53516,551.75781,0.1791960958949114,0.0019984019935335075,-0.05076115596500308,57.15,25.65,21.6
-974.60937,85.9375,-102.05078,-0.09259565093775597,-0.04529862447211123,-0.11324656118027807,2.7,25.8,31.05,-105.46875,-89.84375,1012.69531,0.06408430134302699,0.03264167126957355,-0.21849916532057173,72.9,1.5,85.8,-854.98047,121.58203,535.15625,0.19278557851678965,0.027712163330240767,0.01492186697285072,56.7,24.9,19.8
-977.05078,51.26953,-102.53906,-0.13975950878147356,0.01678710034445706,-0.1682710329091277,1.35,26.55,30.6,-98.63281,-79.58984,995.11719,0.07634157414685798,0.04330022247857772,-0.19438430011161645,72.9,1.5,85.8,-851.07422,134.27734,527.34375,0.17573196639555305,-0.01585457092511649,-0.04836289903983767,56.7,24.9,19.8
-1003.41797,50.78125,-93.26172,-0.0863337586474507,0.0279785005740951,-0.1525498051388636,1.05,24.75,31.65,-131.83594,-38.57422,1000.0,0.12150685546411683,0.030909606519894377,-0.1791960958949114,72.9,1.5,85.8,-833.98437,144.53125,545.41016,0.11271371215964421,0.011857592405124276,-0.02238280045927608,57.45,24.6,18.75
-997.07031,42.96875,-95.70313,-0.0575558972759422,-0.01119140022963804,-0.19238589811808296,1.05,25.8,31.35,-129.88281,14.64844,995.11719,0.06115319539722772,0.01585457092511649,-0.1553475679298105,72.3,2.7,86.25,-860.35156,147.46094,541.99219,0.06994633870170035,0.010791719830931338,-0.019318525891549636,56.4,23.4,19.8
-1008.30078,40.52734,-92.28516,-0.12017464564606957,0.013189976756096747,-0.24514545607661953,1.35,24.75,29.55,-86.91406,1.95312,1067.87109,0.08540122922811014,0.018385996472209065,-0.1276355791324949,73.35,0.9,85.95,-846.67969,150.87891,543.45703,0.010125527655445103,0.028111843728947466,-0.03304135166828025,58.5,24.9,19.8
-985.35156,48.82813,-91.79688,-0.10551911591707318,0.017586461141870464,-0.20117921595548077,1.35,24.75,29.55,-100.58594,-1.95312,1036.13281,0.03117611829667391,-0.03077643789796721,-0.07487602117395832,73.35,3.15,86.7,-837.40234,163.57422,540.52734,0.009592678634811233,0.07807346436361194,-0.033973881087620825,57.45,24.15,19.8
-980.46875,43.45703,-89.35547,-0.019718206290256335,0.01025887081029747,-0.15921137782787553,1.35,22.95,31.05,-83.49609,-39.55078,1027.34375,-0.04609798526952463,0.015454890526409788,-0.047830050019203804,73.35,3.15,86.7,-844.23828,137.69531,542.96875,0.05062781281015071,0.05662319332367644,0.009059655081252166,58.35,24.3,19.65
-1002.44141,31.73828,-92.77344,-0.08580090962681684,0.0030642745677264445,-0.17213484280719277,3.3,26.4,30.45,-83.98438,-95.70313,1001.95312,-0.1662726309155942,0.008793317837397832,0.013989337553510148,72.45,2.25,84.75,-834.96094,143.06641,539.55078,-0.05062781281015071,0.010392039432224637,-0.06421746996495417,56.4,23.4,20.1
-975.09766,30.27344,-104.98047,-0.12297240843701647,0.021716608283789844,-0.23395405584698148,3.15,24.0,30.3,-71.77734,-118.16406,965.33203,-0.15961105822658223,0.024781057384441488,0.012656953202537678,73.05,2.4,86.7,-821.77734,123.04688,551.26953,-0.05435827955336339,0.04023577337792608,-0.047430369620497105,56.4,23.4,20.1
-989.74609,27.83203,-94.23828,-0.05968764242432808,-0.03570594583729999,-0.1885222627529431,1.65,25.5,30.6,-74.21875,-125.0,973.14453,-0.05915461887076901,0.03983609297921937,0.0186523337160634,73.05,2.4,86.7,-825.19531,93.75,568.35937,-0.0652833425391471,0.031975479094087315,-0.022516143614128445,58.95,25.65,19.5
-1003.41797,47.85156,-103.51563,-0.09192963329519492,-0.04463243229662499,-0.14335680690275904,1.65,25.5,30.6,-100.58594,-107.42188,991.69922,-0.0006661921754862356,0.03597245761407953,-0.021050590641228807,72.6,0.9,85.95,-849.60937,70.3125,560.54687,-0.05542415212755633,0.07767378396490525,-0.07021285047847989,58.8,24.75,20.25
-995.60547,37.10938,-91.79688,-0.12430479278798894,-0.00039968039870670147,-0.20024651200321503,1.35,24.75,31.05,-94.72656,-88.37891,1018.06641,-0.0014655529728996386,0.057689065897869374,-0.04956194023595778,72.45,1.05,85.8,-852.53906,72.26563,540.52734,-0.077007591789419,0.04076879693148514,-0.06994633870170035,58.8,24.75,20.25
-1003.90625,34.17969,-94.23828,-0.12563700260603622,-0.04902909121532391,-0.1787964154962047,0.3,24.0,30.6,-104.49219,-80.56641,1012.69531,-0.012656953202537678,0.0275788201753884,-0.0369049870334201,72.45,0.75,85.05,-860.35156,61.03516,575.68359,-0.07327712504620633,-0.0069280844657914915,-0.06421746996495417,57.9,24.15,20.55
-975.09766,27.34375,-94.72656,-0.13149921449763477,-0.06634921511334003,-0.21143791223285305,3.3,25.35,31.2,-92.77344,-81.54297,1026.85547,-0.03490658503988659,0.04929560299210344,-0.05422511093143622,72.45,0.75,85.05,-843.26172,63.96484,582.03125,-0.03450690464117989,0.006794741310939124,-0.08833233517390941,57.3,24.75,19.95
-986.81641,17.08984,-88.37891,-0.17786371154393893,-0.031708967317307775,-0.23701833041470793,3.0,23.1,31.2,-89.35547,-90.33203,1029.29688,-0.05728938549916267,0.017453292519943295,-0.024514545607661954,72.45,1.8,86.1,-853.02734,66.89453,576.17187,0.0486294108166172,0.0009327039522657697,-0.04223434990438478,57.9,24.6,18.75
-979.49219,11.71875,-86.91406,-0.14655442462533785,-0.08127108208619076,-0.19145336869874238,3.0,23.1,31.2,-96.19141,-123.04688,1030.27344,-0.0940612039106556,-0.04356655972243205,-0.0025314255470925756,72.45,0.75,86.85,-868.65234,78.125,583.49609,0.018385996472209065,0.017852972918649995,-0.04423275189791829,56.7,24.15,20.55
-958.49609,3.90625,-84.47266,-0.17693100759167316,-0.06981317007977318,-0.1553475679298105,1.2,26.1,30.9,-111.32813,-124.02344,962.89062,-0.11457894553125055,-0.15548091108466286,0.00279793732387211,72.3,2.7,87.45,-853.02734,82.03125,591.79687,0.03210864771601448,0.013456313999951081,-0.05808874629657607,56.7,24.15,20.55
-958.98437,-18.06641,-73.24219,-0.23222199109730232,-0.02891120452636087,-0.21343648875931176,3.75,25.05,30.6,-89.35547,-125.0,1007.8125,-0.1115144964305989,-0.09073041756614963,0.0011990411961201044,72.3,1.65,85.95,-851.5625,41.01563,595.70312,0.03597245761407953,-0.02278248085798278,-0.13469683222021359,58.5,24.6,19.5
-936.52344,-14.16016,-79.58984,-0.13349761649116829,-0.03370754384376649,-0.1204409828899239,2.4,25.05,31.35,-70.80078,-133.30078,1010.25391,-0.021583439661862675,-0.0863337586474507,-0.06275191699205453,71.4,1.5,85.8,-841.30859,43.45703,591.79687,0.04423275189791829,0.018785676870915768,-0.09192963329519492,58.5,24.6,19.5
-931.15234,-37.59766,-91.30859,-0.15228329336208404,0.025047394628295826,-0.12803525953120162,2.4,25.05,31.35,-85.44922,-138.67187,995.11719,-0.09712565301130725,-0.025846929958634426,-0.07301078780235198,72.15,-0.75,86.55,-851.07422,71.28906,560.05859,0.1277687477544221,0.007993957039984428,-0.10538594729514601,56.25,24.75,18.6
-958.98437,-12.69531,-87.89063,-0.12963398112602842,0.011457912006417574,-0.16094326804462952,2.4,25.05,31.35,-68.84766,-126.95313,1025.87891,-0.017453292519943295,-0.08580090962681684,-0.05062781281015071,72.15,-0.75,86.55,-839.35547,85.44922,554.19922,0.17360022124716717,-0.06781476808623968,-0.10911641403835869,57.6,24.3,21.0
-973.14453,-9.27734,-98.63281,-0.07234459562686575,0.03370754384376649,-0.1434899755246862,2.4,25.05,31.35,-89.35547,-115.23438,1005.85937,-0.025447249559927724,-0.10418690609902591,-0.07434299762039927,71.4,2.25,86.55,-843.26172,97.65625,559.57031,0.15801233663175543,-0.06155287579593442,-0.15388201495691084,57.6,24.75,21.0
-993.65234,-15.13672,-112.79297,-0.08913169597132281,-0.012390441425758144,-0.15215012474015688,2.7,24.75,32.1,-88.86719,-111.32813,1012.20703,0.0035972981212855125,-0.11724353970027028,-0.05182702853919601,72.3,0.9,88.05,-844.72656,94.72656,562.01172,0.08540122922811014,-0.06514999938429474,-0.08460186843069674,57.15,23.4,18.75
-988.76953,-11.71875,-126.46484,-0.11577798672737065,0.0006661921754862356,-0.1366952342137471,2.4,24.3,31.05,-96.67969,-121.09375,1054.19922,0.030643269276040042,-0.150018379591771,-0.0863337586474507,72.0,1.2,87.0,-845.70312,60.05859,581.05469,0.11497862592995724,-0.020650910242522108,-0.12297240843701647,58.05,24.3,20.25
-1002.92969,-20.01953,-117.1875,-0.05022813241144401,-0.04729702646564473,-0.07567538197137175,3.15,24.75,32.4,-110.35156,-121.58203,1050.29297,0.04489894407340452,-0.14255744610534563,-0.05302606973531612,72.0,1.2,87.0,-845.21484,36.13281,562.5,0.09046408032229529,0.021849951438642212,-0.12696938695700868,58.8,23.25,21.3
-1012.20703,-10.25391,-132.32422,-0.056356856079822104,-0.0069280844657914915,-0.04476577545147736,3.15,24.75,32.4,-101.07422,-126.95313,1065.42969,-0.024514545607661954,-0.13083302232214852,-0.07607506237007844,73.2,2.55,86.85,-863.28125,56.64063,549.31641,0.11084847878803786,0.005462531492891852,-0.16160946022011574,58.8,23.25,21.3
-1040.03906,-15.13672,-126.95313,-0.09059724894422246,0.011324568851565207,-0.10125580015322662,2.4,23.25,31.65,-65.91797,-123.04688,1055.66406,-0.10685150026804564,-0.06954665830299364,-0.10831705324094529,71.7,0.0,86.85,-835.9375,39.55078,526.36719,0.1313660458757076,-0.017586461141870464,-0.13403064004472734,58.05,23.25,19.2
-1033.69141,-10.74219,-113.76953,-0.12297240843701647,-0.02518073778314819,-0.09099692934292915,2.55,25.35,30.9,-83.49609,-109.375,975.09766,-0.12617002615959527,-0.09832469420742734,-0.1033873707686873,71.4,2.25,87.9,-836.42578,65.91797,541.01562,0.1666723113143009,0.005462531492891852,-0.09033073716744291,56.55,24.75,20.25
-1034.66797,-11.23047,-104.49219,-0.043699902877284424,-0.11604432397122498,-0.007194421709645826,3.3,25.35,30.9,-81.05469,-145.99609,1002.92969,-0.08686678220100978,-0.09832469420742734,-0.09166312151841538,71.25,0.45,87.0,-834.47266,91.30859,535.15625,0.2071745964690065,0.05409194230950906,-0.1260366830047429,56.55,23.7,21.0
-1033.69141,-12.69531,-116.21094,-0.06541651116107426,-0.07754061534297808,-0.058488601228207975,3.0,24.6,30.15,-64.94141,-120.60547,979.49219,-0.04210100674953242,-0.03543943406052046,-0.1033873707686873,73.5,1.05,86.55,-818.35937,115.23438,517.57812,0.2067749160702998,0.08167076248489745,-0.07407648584361974,58.35,24.75,20.7
-1008.78906,-29.78516,-109.86328,-0.10272135312612628,-0.1276355791324949,-0.02944405354699474,3.0,24.6,30.15,-84.47266,-144.04297,995.11719,0.026912627999902163,-0.06315159739076123,-0.10365388254546684,71.7,0.3,86.55,-821.28906,138.67187,493.16406,0.1893216235503565,0.08913169597132281,-0.09699230985645488,59.25,23.85,19.5
-1027.34375,-32.71484,-119.14063,-0.05902145024884184,-0.15388201495691084,-0.005329188338039486,1.2,25.35,30.9,-89.84375,-118.16406,999.02344,0.05609034430304257,0.007061253087718659,-0.08913169597132281,71.7,0.3,86.55,-838.86719,152.83203,466.30859,0.1418912539298594,0.12643636340344963,-0.11737670832219745,59.7,22.65,19.05
-1023.4375,-41.99219,-117.1875,-0.0656830229378538,-0.10511943551836647,-0.08486838020747627,2.1,24.75,31.35,-116.69922,-86.42578,1010.74219,0.0291777163031404,0.016120908168970823,-0.04649766566823133,72.3,0.9,86.7,-856.93359,148.4375,487.30469,0.04982845201273731,0.12923430072732173,-0.09419454706550798,59.7,22.65,19.05
-1019.04297,-27.34375,-117.1875,-0.04689734606693803,-0.10685150026804564,-0.0579555776746489,3.45,24.0,31.35,-123.04688,-76.17188,1013.67187,-0.03317452029020742,0.03210864771601448,-0.0013323843509724712,72.9,1.5,85.8,-868.16406,132.8125,475.09766,-0.014389017952216851,0.08739963122164364,-0.06808110533009401,58.5,23.85,19.5
-1009.76562,-26.85547,-114.74609,-0.009192998236104533,-0.11711019654541792,0.0283781809728018,3.0,24.9,33.0,-139.64844,-110.83984,984.86328,-0.06994633870170035,0.06115319539722772,-0.00559570011481902,70.65,1.05,87.9,-876.95312,137.69531,478.02734,-0.03757117920890633,0.05382543053272952,-0.1244379614099161,58.5,23.85,19.5
-1003.41797,-14.16016,-105.95703,-0.008659974682545464,-0.07807346436361194,-0.03597245761407953,3.0,24.9,33.0,-140.13672,-112.79297,964.84375,-0.0033307863445059785,0.038903563559878805,0.008260294283838763,70.65,1.05,87.9,-880.85937,143.55469,485.83984,-0.0972588216332344,0.05782240905272174,-0.027845331952167932,58.5,23.85,19.5
-998.53516,-0.97656,-112.79297,-0.00746093348642536,-0.03570594583729999,0.00652840406708479,2.1,24.0,31.05,-129.88281,-132.8125,959.96094,-0.03823737138439257,0.06341810916754076,0.05089432458693025,71.55,1.05,87.9,-889.64844,115.23438,500.48828,-0.14215776570663893,0.024914226006368657,-0.021849951438642212,58.2,23.85,19.5
-995.60547,-20.01953,-114.74609,0.023448673033469015,-0.0936615235119489,0.04982845201273731,2.55,24.6,31.5,-129.88281,-135.74219,973.14453,-0.019851374912183504,0.09472739608614184,0.011990761027051442,71.55,-0.15,86.25,-897.46094,113.76953,534.66797,-0.15468155028724945,0.057689065897869374,-0.009859190411590769,57.6,24.3,18.9
-983.88672,-48.82813,-107.91016,0.01585457092511649,-0.05968764242432808,-0.02558041818185489,2.25,24.15,31.95,-146.97266,-153.80859,989.25781,0.0007993607974134029,0.05915461887076901,0.04303371070179819,71.25,0.9,86.7,-909.17969,84.47266,551.26953,-0.21543489075284528,0.06501683076236757,-0.0006661921754862356,57.9,23.4,18.75
-988.76953,-39.55078,-115.72266,0.005329188338039486,-0.016520588567677526,-0.07420982899847209,3.45,24.3,31.35,-141.11328,-135.25391,1026.36719,-0.00279793732387211,0.08926486459324998,0.06341810916754076,71.25,0.9,86.7,-905.76172,78.125,532.71484,-0.21396933777994562,-0.0033307863445059785,-0.005062851094185151,58.35,23.25,20.7
-982.91016,-45.41016,-109.86328,0.07327712504620633,-0.03317452029020742,-0.00652840406708479,3.45,24.3,31.35,-157.71484,-135.74219,1013.67187,0.0029311059457992773,0.021183759263155976,0.06981317007977318,71.55,0.9,85.95,-881.83594,90.82031,526.36719,-0.2534057503604583,0.028644692749581334,0.019984718067035872,57.9,24.6,19.5
-1004.88281,-41.50391,-116.21094,0.05742272865401504,0.017186780743163762,-0.05382543053272952,2.4,24.3,32.1,-137.20703,-115.72266,1006.34766,-0.022516143614128445,0.007061253087718659,0.04689734606693803,73.05,1.2,85.65,-889.64844,77.63672,506.83594,-0.1606769308007752,-0.04716385784371757,0.02851152412765417,57.0,24.0,19.95
-1003.41797,-41.01563,-107.42188,0.04809656179598333,0.06115319539722772,-0.09059724894422246,1.65,24.75,31.35,-150.87891,-108.39844,1019.53125,0.05555749528240869,-0.014122506175437317,0.08913169597132281,71.1,0.75,87.15,-875.97656,85.44922,522.46094,-0.20917299846254003,-0.021583439661862675,0.004529827540626083,57.0,24.0,19.95
-1005.85937,-26.85547,-119.14063,0.08873201557261612,0.013989337553510148,-0.06315159739076123,1.05,25.05,30.6,-119.62891,-99.12109,991.69922,0.08420218803199005,-0.025846929958634426,0.10392039432224637,71.1,0.75,87.15,-844.72656,63.96484,514.16016,-0.22236297521863677,-0.04383307149921159,-0.015721227770264124,58.8,22.95,19.2
-1005.37109,-23.92578,-116.69922,0.06794793670816685,0.03384071246569365,-0.032375159492794015,2.55,26.4,33.0,-90.82031,-111.32813,998.53516,0.04063545377663278,0.029710565323774273,0.12177336724089637,70.8,1.65,86.25,-828.125,51.26953,501.46484,-0.17133530747685413,0.00652840406708479,0.002398082392240209,57.45,21.9,19.8
-1017.57812,-5.85937,-104.98047,0.01119140022963804,0.0031976177225788113,-0.03317452029020742,2.55,26.4,33.0,-85.9375,-119.14063,979.49219,0.06208572481656829,0.0035972981212855125,0.12417144963313657,70.8,1.65,85.95,-804.19922,34.17969,519.04297,-0.2279586753334558,-0.05462479133014293,-0.07420982899847209,57.0,22.95,20.25
-1025.39063,-16.11328,-113.28125,-0.016920443499309427,-0.03264167126957355,0.0033307863445059785,3.15,25.5,31.35,-83.98438,-110.35156,996.09375,-0.0058622118915985545,0.03357420068891412,0.09739199025516157,72.3,0.45,87.75,-828.61328,35.64453,510.74219,-0.16027725040206847,0.0029311059457992773,-0.012257272803830977,57.3,24.0,19.2
-1022.94922,-21.97266,-101.07422,-0.007194421709645826,-0.0571562168772355,0.04529862447211123,1.2,23.4,31.2,-91.79688,-123.04688,1002.44141,-0.02931088492506757,0.0632847660126884,0.15068457176725725,72.6,2.4,87.0,-830.07812,34.66797,524.41406,-0.1978484296109748,0.015188378749630253,-0.04343339110050489,57.15,22.65,21.15
-1007.8125,-18.06641,-91.79688,-0.11084847878803786,-0.021050590641228807,-0.00279793732387211,2.7,24.75,31.05,-83.00781,-136.23047,993.16406,-0.06594953471463334,0.04383307149921159,0.16733850348978713,73.2,1.5,87.6,-854.49219,39.55078,516.60156,-0.20371064150257337,0.04756353824242427,-0.03863705178309927,58.05,23.7,19.95
-1010.25391,-20.01953,-87.89063,-0.07740727218812571,-0.045698304870817934,-0.0058622118915985545,3.3,25.35,31.5,-96.19141,-165.03906,968.75,-0.05049464418822355,0.0664823837352672,0.19811476685482912,72.0,1.2,87.0,-856.93359,32.22656,508.30078,-0.17479943697621247,-0.012390441425758144,-0.022915824012835147,58.05,23.7,19.95
-1015.625,-30.27344,-94.72656,-0.07434299762039927,-0.0835359958565038,-0.014389017952216851,3.3,25.35,31.5,-89.35547,-177.24609,984.375,-0.03916990080373314,0.0839356762552105,0.14002602055825306,72.0,1.2,87.0,-859.375,29.29688,524.90234,-0.19718223743548857,-0.02984373394570144,-0.00746093348642536,58.2,23.4,19.8
-1008.78906,-31.73828,-92.77344,-0.12656970655830196,0.00652840406708479,-0.025047394628295826,1.65,24.0,31.35,-86.42578,-183.59375,991.21094,0.015188378749630253,0.07767378396490525,0.114312433754471,71.4,0.3,86.85,-865.72266,19.04297,498.53516,-0.15441503851046992,0.027845331952167932,0.043699902877284424,58.2,23.4,19.8
-1019.04297,-34.17969,-93.75,-0.05409194230950906,-0.05475795995207009,0.013722825776730615,3.0,23.4,31.5,-95.70313,-176.26953,995.60547,0.043699902877284424,0.05049464418822355,0.13656206559181994,72.15,1.5,87.15,-864.25781,37.59766,520.50781,-0.12084066328863059,0.012923464979317213,0.017852972918649995,58.5,23.4,20.85
-1004.88281,-28.32031,-79.10156,-0.05742272865401504,-0.07634157414685798,0.06541651116107426,2.25,24.9,30.45,-117.1875,-163.57422,1006.83594,0.07394331722169258,0.07474267801910597,0.08380250763328333,70.65,0.3,87.15,-868.65234,45.41016,549.31641,-0.16094326804462952,0.031575798695380616,0.011591080628344743,58.05,24.0,20.7
-982.42187,-22.46094,-87.40234,-0.13283159884860724,-0.03024341434440814,-0.01252378458061051,2.7,26.25,32.1,-111.32813,-141.60156,1012.69531,0.06874729750558024,0.0644839817417337,0.12923430072732173,70.65,0.3,87.15,-861.81641,50.78125,520.50781,-0.185724325429071,0.0722112524720134,0.05489130310692246,57.15,23.4,19.8
-990.23437,-18.06641,-81.54297,-0.12150685546411683,0.024914226006368657,0.047696706864351436,2.7,26.25,32.1,-128.41797,-133.30078,1023.4375,0.10511943551836647,0.062219067971420655,0.1309663654770009,72.45,1.05,85.8,-864.25781,56.64063,542.48047,-0.20810712588834707,0.02198312006056938,0.08953137637002952,59.1,22.2,20.7
-1013.67187,-26.36719,-85.44922,-0.0855343978500373,0.015321547371557422,0.09192963329519492,2.1,24.75,31.35,-133.30078,-107.91016,1032.71484,0.09699230985645488,0.05076115596500308,0.09979024718032699,72.0,0.9,86.25,-856.44531,78.125,536.62109,-0.14269061472727282,0.0644839817417337,0.014655355196071187,58.05,23.7,19.65
-1022.94922,-27.34375,-94.23828,-0.05542415212755633,0.009859190411590769,0.039969436134071744,3.3,24.9,32.25,-123.53516,-99.12109,991.21094,0.0648836621404404,0.04942877161403061,0.12403828101120941,72.15,1.5,87.15,-854.00391,70.3125,551.75781,-0.1853246450303643,0.03623896939085906,0.029577396701847107,58.05,23.25,19.95
-1028.80859,-11.23047,-70.80078,-0.10112245699837426,0.03530626543859329,0.015055210127703087,2.7,24.3,31.35,-116.69922,-110.83984,1002.92969,-0.02931088492506757,0.11377941020091194,0.17213484280719277,72.45,2.25,87.6,-872.07031,46.38672,548.82812,-0.1991806394290221,-0.04396624012113876,0.057689065897869374,58.05,23.25,19.95
-1005.37109,-4.88281,-97.65625,-0.04276719892501865,0.023715184810248553,0.08033837813392498,2.25,24.15,31.5,-107.91016,-113.28125,987.30469,-0.0466310088230837,0.11950845347058334,0.14775346582145796,73.05,1.65,86.7,-865.23437,40.52734,499.51172,-0.10951609443706539,0.0022649137703130416,0.05649002470174927,57.3,22.5,19.95
-1024.90234,-5.85937,-103.51563,-0.11164783958545127,0.08420218803199005,-0.005329188338039486,2.25,24.15,31.5,-126.46484,-124.51172,967.77344,-0.1049862668964393,0.11830941227446322,0.12150685546411683,71.7,1.8,86.1,-880.37109,37.59766,521.97266,-0.14881933839565087,-0.008526806060618296,0.09126344111970869,57.3,22.95,20.7
-1019.04297,5.37109,-107.91016,-0.1386936362072806,0.10352071392353968,-0.02331550441154185,2.25,24.15,31.5,-97.65625,-196.77734,1013.67187,-0.09965690402547463,0.34080555611502716,0.15188361296337732,71.7,1.8,86.1,-901.85547,31.73828,536.62109,-0.1325650870718277,-0.0381042027624654,0.11324656118027807,57.3,22.95,20.7
-1022.46094,-6.83594,-102.05078,-0.10458658649773261,0.04716385784371757,-0.015721227770264124,2.4,25.05,31.65,-153.32031,-196.28906,933.59375,-0.08540122922811014,0.09592643728226194,0.12457113003184328,73.2,0.75,87.6,-906.73828,36.62109,549.80469,-0.09579326866033477,0.005062851094185151,0.07887282516102534,58.35,22.95,19.65
-1012.20703,-30.27344,-103.51563,-0.12990049290280797,0.07993869773521828,-0.06594953471463334,1.5,24.15,31.5,-115.72266,-243.16406,987.30469,-0.01119140022963804,0.15108425216596394,0.13576270479440652,72.15,0.3,86.85,-910.64453,32.71484,596.67969,-0.1103154552344788,-0.047430369620497105,0.16280850141623585,58.2,24.6,19.05
-1012.20703,-67.87109,-120.60547,-0.06248540521527499,0.11910877307187663,-0.04423275189791829,2.7,24.75,31.35,-134.76562,-235.83984,1024.41406,0.1851914764084371,0.1966493884148547,0.0664823837352672,72.3,1.65,86.25,-893.06641,7.32422,569.33594,-0.05009496378951684,-0.03384071246569365,0.1464210814704855,58.2,23.1,20.85
-1027.34375,-69.33594,-93.26172,-0.010924888452858507,0.07607506237007844,-0.034107224242473186,2.4,25.05,32.1,-115.23438,-173.33984,1023.4375,0.2198315496715442,0.21383616915801848,0.02984373394570144,72.3,1.65,86.25,-876.95312,-7.32422,586.42578,-0.07900616831587771,-0.11471211415317771,0.07021285047847989,56.7,23.85,20.85
-1005.37109,-41.50391,-82.03125,-0.018918845492842937,0.18292656263812407,-0.05302606973531612,2.4,25.05,32.1,-124.51172,-102.53906,1047.85156,0.2596676426507636,0.11990813386929003,0.010392039432224637,72.3,1.65,86.25,-877.44141,1.46484,568.84766,-0.05182702853919601,-0.0664823837352672,0.08979788814680904,56.7,23.85,20.85
-1020.50781,-24.41406,-76.66016,0.04809656179598333,0.12976714974795558,0.0069280844657914915,3.0,24.15,30.9,-117.67578,-90.33203,1056.15234,0.32335226359508384,0.10645181986933895,0.0007993607974134029,71.4,1.5,87.15,-861.81641,15.13672,568.84766,-0.055690663904335864,-0.1107151356331855,0.05982081104625525,57.3,24.3,21.75
-1003.41797,-29.78516,-66.89453,0.039569755735365045,0.1119141768293056,-0.002131745148385874,2.4,25.05,31.05,-124.51172,-51.75781,1025.87891,0.24208118150889307,0.057689065897869374,0.03344103206698695,71.4,1.5,87.15,-856.93359,24.41406,583.49609,-0.07873965653909817,-0.06634921511334003,0.009992359033517936,57.3,24.3,21.75
-988.76953,-27.34375,-58.59375,0.008793317837397832,0.1513507639427435,0.03916990080373314,2.7,24.75,31.35,-89.84375,-68.84766,1028.32031,0.12577034576088858,0.07487602117395832,0.04556513624889076,73.05,1.2,87.45,-855.46875,35.64453,539.55078,-0.04116847733019184,-0.10205516095064003,0.09113009796485633,58.5,23.85,19.8
-972.16797,-12.69531,-45.89844,0.02518073778314819,0.05862176985013514,0.08087140168748405,3.0,24.15,32.25,-81.05469,-82.51953,1022.94922,0.06435063858688132,0.03983609297921937,0.1252373222073295,72.45,2.55,86.85,-831.05469,50.78125,567.38281,-0.05875493847206231,-0.1273690673557154,0.04156815772889855,58.8,25.8,21.3
-933.59375,-17.57813,-67.38281,0.035173096816666125,0.07820680751846432,0.09219597053904927,3.0,24.15,32.25,-75.19531,-104.00391,990.72266,0.03916990080373314,0.06155287579593442,0.11750987694412462,72.45,2.25,87.15,-812.98828,56.64063,570.3125,-0.08420218803199005,-0.1418912539298594,0.04050228515470561,58.2,23.85,20.85
-957.51953,-16.11328,-69.33594,-0.026379778979268294,0.12950081250410125,0.02891120452636087,1.05,24.0,31.65,-6.83594,-73.24219,920.41016,0.03983609297921937,-0.27792029596812023,0.103787051167394,72.45,2.25,87.15,-796.38672,49.80469,542.96875,-0.06621587195848767,-0.04170132635082572,-0.024381376985734785,56.7,25.65,21.15
-951.17187,-4.88281,-80.56641,-0.009459335479958867,0.09352835489002174,0.09819135105257498,2.4,26.55,31.05,-52.24609,-118.65234,1026.36719,0.04236751852631195,-0.03357420068891412,0.09605978043711431,72.3,2.25,87.15,-789.0625,70.80078,578.125,-0.1508177403891844,-0.03743801058697916,-0.008793317837397832,56.7,25.65,21.15
-948.24219,20.01953,-78.61328,-0.006661572689011957,0.09832469420742734,0.13203223805119385,2.25,25.65,30.9,-72.75391,-105.95703,1004.88281,0.03530626543859329,0.035173096816666125,0.11870909267316991,72.3,0.9,88.5,-777.83203,90.82031,557.61719,-0.17040277805751358,-0.00013316862192716734,0.008260294283838763,58.35,24.0,21.75
-962.89062,21.97266,-83.00781,-0.04729702646564473,0.16480707794269456,0.07487602117395832,2.25,24.9,31.5,-100.58594,-107.42188,1016.60156,0.039969436134071744,-0.06475031898558803,0.1204409828899239,72.3,2.4,85.95,-795.89844,97.65625,558.59375,-0.1869233666251911,0.04996179516758968,0.0019984019935335075,58.35,24.0,21.75
-978.51562,35.64453,-89.35547,-0.04303371070179819,0.10938292581513821,0.0855343978500373,2.25,24.9,31.5,-77.63672,-90.33203,1020.99609,0.0754088701945922,-0.05009496378951684,0.08873201557261612,73.05,3.15,86.25,-796.38672,92.77344,579.58984,-0.20610872389481358,0.006261892290305255,-0.03797085960761303,57.9,24.15,21.15
-990.23437,46.38672,-106.44531,-0.043699902877284424,0.12310575159186884,0.07554203881651937,1.35,27.0,30.6,-89.84375,-97.16797,1019.04297,0.0684807857288007,0.013189976756096747,0.13389747142280017,73.8,1.95,87.45,-832.51953,117.1875,589.84375,-0.2019785767528942,0.0648836621404404,0.0275788201753884,57.6,24.0,22.05
-990.23437,34.66797,-99.12109,-0.09979024718032699,0.09099692934292915,0.01065855120900417,3.0,24.15,32.25,-83.98438,-79.10156,1030.27344,0.04889592259339674,0.0063950609122324234,0.10951609443706539,71.4,2.25,86.85,-839.35547,90.82031,587.89062,-0.15268297376079074,0.04103530870826468,0.026912627999902163,57.45,25.65,20.55
-967.28516,21.97266,-110.83984,-0.12750223597764257,0.0839356762552105,0.05209336578305035,3.45,23.7,30.3,-83.98438,-68.84766,1029.29688,0.047696706864351436,-0.040901965553412314,0.14295712650405235,72.6,2.4,87.45,-842.28516,91.79688,607.42187,-0.1958498530845161,0.04489894407340452,0.05235987755982989,57.3,24.3,21.75
-977.53906,17.08984,-97.16797,-0.04902909121532391,0.04689734606693803,0.07993869773521828,2.4,24.3,30.3,-76.17188,-72.26563,1009.27734,0.10272135312612628,-0.05382543053272952,0.14695410502404457,72.6,2.4,87.45,-838.86719,75.68359,581.05469,-0.14908567563950523,0.03424039286440035,0.06701523275590107,58.05,24.75,19.95
-968.75,21.97266,-104.49219,-0.12670287518022916,0.06101985224237535,-0.035039753661813756,2.4,24.3,30.3,-66.89453,-74.70703,1009.76562,0.047430369620497105,-0.025846929958634426,0.12563700260603622,72.45,3.0,86.85,-821.77734,62.01172,582.51953,-0.1963828766380752,0.05036147556629638,-0.021583439661862675,57.9,23.1,20.55
-979.98047,14.16016,-102.05078,-0.08913169597132281,0.06634921511334003,-0.014255674797364485,0.6,25.5,29.25,-85.9375,-114.25781,1013.67187,-0.02931088492506757,-0.05702304825530834,0.19145336869874238,73.35,3.15,86.7,-833.98437,39.55078,565.91797,-0.22276265561734346,0.08380250763328333,0.04556513624889076,57.9,23.1,20.55
-964.84375,-8.30078,-103.02734,-0.07940584871458442,0.016653931722529894,-0.05955429926947571,2.1,25.5,31.05,-79.10156,-149.90234,1001.95312,-0.016920443499309427,-0.06581619155978097,0.13935982838276684,72.6,2.4,85.95,-823.73047,36.62109,588.86719,-0.17839656056457281,0.037171498810199634,0.05662319332367644,58.5,24.15,20.85
-961.91406,-12.69531,-115.23438,-0.042634030303091486,0.06888046612750741,-0.10458658649773261,2.1,25.05,31.05,-91.79688,-156.25,1011.23047,0.029577396701847107,-0.0019984019935335075,0.19198621771937624,72.6,2.4,85.95,-834.96094,3.41797,576.17187,-0.10591879631577987,0.03877022040502644,0.026779459377974997,58.5,24.15,20.85
-993.65234,-6.34766,-111.81641,-0.07407648584361974,0.0579555776746489,-0.11124815918674456,2.1,25.05,31.05,-106.93359,-166.01562,1009.27734,0.11671051614671123,-0.008926486459324997,0.1386936362072806,73.8,2.7,86.25,-836.42578,-10.74219,587.40234,-0.1569464640575625,0.03224199087086685,0.07394331722169258,58.5,24.15,20.85
-997.07031,1.95312,-128.90625,0.0058622118915985545,-0.008793317837397832,-0.06035383459981431,2.1,25.05,31.05,-101.5625,-119.14063,999.51172,0.20104587280062844,-0.10125580015322662,0.08699995082293695,72.45,2.55,85.5,-820.3125,-18.55469,565.91797,-0.1111148160318922,0.07261110740364529,0.06501683076236757,57.6,25.5,20.25
-1006.83594,14.16016,-117.67578,-0.051960197161123184,0.07967236049136395,-0.04330022247857772,1.35,24.75,31.05,-105.95703,-94.23828,1018.55469,0.1569464640575625,-0.08140425070811792,0.07767378396490525,72.0,3.15,87.45,-814.45312,-20.99609,576.17187,-0.08779931162035035,0.09299533133646266,0.01492186697285072,58.35,25.05,21.0
-998.04687,17.57813,-123.53516,-0.0644839817417337,0.01811948469542953,-0.06022049144496195,1.35,24.75,31.05,-90.33203,-91.30859,1071.77734,0.1462879128485583,-0.10272135312612628,0.0575558972759422,71.55,2.7,86.25,-829.10156,-18.06641,559.57031,-0.052626389336609423,0.09432771568743514,0.07261110740364529,57.6,24.0,21.75
-992.1875,17.08984,-116.69922,0.011324568851565207,-0.03757117920890633,0.014389017952216851,2.1,26.55,31.05,-83.49609,-77.63672,1062.98828,0.05182702853919601,-0.13509651261892028,0.07967236049136395,72.3,3.15,85.95,-840.33203,-14.64844,556.64062,-0.015188378749630253,0.11377941020091194,0.023448673033469015,57.45,23.1,21.15
-989.25781,4.39453,-119.14063,-0.05649002470174927,-0.026779459377974997,-0.011058231607710873,2.1,26.55,31.05,-84.96094,-93.75,1039.55078,0.025447249559927724,-0.1557472483285172,0.07460950939717881,73.2,2.55,86.85,-851.07422,-30.76172,548.33984,0.0365053066347134,0.09099692934292915,-0.019851374912183504,57.45,23.1,21.15
-982.42187,19.53125,-114.25781,-0.05928796202562137,0.00559570011481902,0.019451694513476805,2.25,24.15,31.95,-105.46875,-90.33203,1002.44141,0.0190520141147701,-0.13109953409892808,0.07754061534297808,73.2,2.55,86.85,-843.75,-30.76172,533.20312,0.1021883295725672,0.02558041818185489,-0.03224199087086685,58.35,23.7,19.95
-995.60547,15.625,-120.11719,-0.05622351292496973,-0.053292581512095656,0.006661572689011957,1.8,23.4,30.45,-83.00781,-104.98047,1001.46484,-0.0035972981212855125,-0.12670287518022916,0.03330786344505979,73.05,1.65,88.05,-847.65625,-49.31641,541.99219,0.14162474215307985,0.08193727426167699,-0.04183466950567808,58.35,23.7,19.95
-999.51172,14.16016,-146.97266,-0.03330786344505979,-0.060087322823034785,0.10418690609902591,0.45,25.65,31.2,-102.53906,-101.07422,1027.83203,0.0022649137703130416,-0.10751769244353188,0.05142717360756412,73.05,2.7,87.0,-861.32812,-30.27344,525.39062,0.1779968801658661,0.08806582339712987,-0.03757117920890633,57.6,24.0,20.25
-1035.64453,17.08984,-150.87891,-0.08007204089007065,-0.03623896939085906,0.02011788668896304,2.55,27.15,31.2,-126.95313,-100.58594,1035.15625,-0.013456313999951081,-0.10085611975451993,0.022116463215421746,71.4,3.3,86.55,-882.32422,-16.60156,524.41406,0.18918828039550412,0.12190653586282353,-0.02198312006056938,58.2,23.4,19.8
-1033.69141,49.80469,-150.39062,0.0035972981212855125,-0.03117611829667391,0.039969436134071744,2.55,27.15,31.2,-154.78516,-95.21484,1021.48437,-0.10325420214676014,-0.06754825630946014,0.03623896939085906,71.4,3.3,86.55,-884.76562,-13.67187,516.11328,0.17093562707814744,0.08766614299842318,-0.0470306892217904,56.55,24.0,20.25
-1035.64453,65.91797,-144.04297,-0.034373736019252726,-0.09566010003840761,0.10085611975451993,1.35,24.3,29.55,-156.25,-119.62891,1017.08984,-0.13403064004472734,-0.06634921511334003,0.0,72.6,2.7,88.05,-889.64844,2.92969,538.08594,0.23115629305603458,0.0664823837352672,-0.047830050019203804,57.6,22.95,20.7
-1042.96875,50.78125,-149.90234,-0.0940612039106556,-0.027179139776681696,0.03424039286440035,2.4,25.8,30.0,-148.92578,-138.18359,1013.18359,-0.19265240989486246,-0.06661555235719438,-0.031309286918601076,71.7,2.55,87.15,-908.69141,1.95312,522.94922,0.20371064150257337,0.05275955795853659,-0.01119140022963804,58.95,23.4,20.85
-1039.55078,52.73438,-145.01953,-0.06235223659334782,-0.10232167272741956,0.052226708937902724,3.0,25.65,30.9,-131.83594,-147.46094,994.62891,-0.19531700406388222,-0.10671815711319327,-0.006794741310939124,71.7,2.55,87.15,-908.20312,14.16016,536.13281,0.2833828274610121,-0.007993957039984428,0.028644692749581334,58.35,24.0,22.5
-1029.78516,42.96875,-146.97266,-0.06621587195848767,-0.12577034576088858,-0.024514545607661954,1.8,26.1,30.9,-116.69922,-151.85547,992.1875,-0.11204751998415798,-0.05009496378951684,-0.006261892290305255,70.65,3.0,86.85,-904.78516,21.97266,540.52734,0.22849152435408965,0.034373736019252726,-0.0093261668580317,58.35,24.0,22.5
-1009.27734,18.06641,-143.06641,-0.08979788814680904,-0.07900616831587771,-0.06621587195848767,1.8,26.1,30.9,-178.22266,-161.13281,986.81641,-0.013456313999951081,0.11537830632866394,-0.08140425070811792,73.2,2.55,86.85,-895.50781,41.01563,539.55078,0.2490092659746846,0.014389017952216851,0.04969528339081014,57.3,25.05,19.65
-989.25781,10.74219,-135.25391,-0.0283781809728018,-0.0936615235119489,-0.003996978519992214,1.8,26.1,30.9,-122.07031,-138.18359,971.67969,-0.05782240905272174,-0.0385038831611721,-0.09965690402547463,73.05,2.7,87.75,-884.27734,64.45313,553.22266,0.21916535749605795,-0.017586461141870464,0.017320123898016127,57.3,25.05,19.65
-969.72656,27.34375,-113.76953,-0.022915824012835147,-0.03837054000631974,-0.060087322823034785,2.25,25.35,31.95,-109.375,-139.16016,1003.41797,0.014122506175437317,-0.09805818243064782,-0.1276355791324949,73.05,2.7,87.75,-878.41797,49.80469,520.99609,0.21343648875931176,-0.01212410418190381,-0.01119140022963804,58.2,24.9,19.05
-969.23828,20.99609,-114.25781,-0.06022049144496195,-0.012923464979317213,0.02038439846574257,1.65,25.8,31.65,-113.28125,-125.48828,1000.97656,-0.005995380513525721,-0.03464007326310706,-0.12137368684218967,72.15,3.0,86.55,-853.51562,81.05469,531.73828,0.1897213039490632,-0.023715184810248553,0.06781476808623968,58.2,24.9,20.55
-979.00391,31.25,-104.98047,0.013855994398657782,-0.03597245761407953,-0.017053612121236593,1.65,25.05,30.3,-93.75,-116.69922,996.09375,0.00186523337160634,-0.04996179516758968,-0.10058960797774039,70.8,3.15,86.25,-848.14453,78.125,540.52734,0.1458882324498516,-0.016520588567677526,0.09192963329519492,57.9,24.9,20.1
-970.21484,17.57813,-96.67969,0.05782240905272174,-0.007594102108352528,-0.04023577337792608,2.55,26.4,30.9,-78.61328,-95.21484,987.30469,0.07114555443074566,-0.08100457030941122,-0.10072277659966757,72.15,2.55,86.55,-838.37891,81.54297,523.92578,0.20943951023931956,-0.032375159492794015,0.021050590641228807,58.2,24.9,20.85
-982.42187,8.30078,-103.02734,-0.00559570011481902,0.031975479094087315,-0.06408430134302699,2.55,26.4,30.9,-85.9375,-82.51953,1001.95312,0.06954665830299364,-0.028644692749581334,-0.10964926305899256,71.55,3.45,86.7,-833.49609,92.28516,516.60156,0.1819938586858583,-0.02704597115475453,0.030909606519894377,58.2,24.9,20.85
-989.25781,8.78906,-92.77344,0.08420218803199005,-0.021849951438642212,-0.05502447172884963,2.1,24.3,31.35,-91.79688,-87.40234,997.07031,0.03877022040502644,-0.009192998236104533,-0.11377941020091194,71.7,2.55,87.15,-826.17187,87.89063,523.92578,0.18385909205746465,-0.015188378749630253,0.03224199087086685,57.0,24.75,21.0
-1005.37109,1.46484,-98.14453,0.07660791139071231,-0.027179139776681696,-0.04076879693148514,1.8,25.35,30.9,-99.12109,-102.53906,989.74609,-0.0031976177225788113,-0.0186523337160634,-0.06315159739076123,72.0,3.45,87.0,-833.98437,74.70703,496.09375,0.19531700406388222,-0.0041301471419193814,0.018385996472209065,57.0,24.75,21.0
-999.02344,11.71875,-116.21094,0.048496242194690044,0.009459335479958867,-0.08873201557261612,3.0,26.1,30.9,-100.58594,-112.79297,995.60547,0.025447249559927724,-0.013855994398657782,-0.10858339048479962,72.0,3.45,87.0,-846.67969,85.44922,537.10937,0.1649402465646217,0.007594102108352528,0.03783769098568587,57.0,24.75,21.0
-980.95703,2.92969,-108.39844,0.08739963122164364,0.04556513624889076,-0.0972588216332344,2.4,25.05,30.3,-99.60938,-107.42188,999.51172,0.03970292435729221,0.03983609297921937,-0.11164783958545127,72.0,3.45,87.0,-842.77344,69.82422,518.06641,0.17733086252330507,0.041301645952119014,0.030909606519894377,57.9,24.6,21.9
-1004.88281,19.04297,-115.23438,0.10312103352483297,0.04236751852631195,-0.05116083636370978,2.4,25.05,30.3,-115.23438,-114.74609,1007.32422,0.05382543053272952,-0.01958503766832917,-0.16001073862528895,72.15,1.5,86.85,-850.09766,54.19922,520.50781,0.19278557851678965,0.03570594583729999,0.07154523482945235,57.45,25.35,20.55
-1023.4375,31.73828,-116.21094,0.05582383252626303,0.03530626543859329,-0.02944405354699474,0.6,26.55,31.35,-99.12109,-106.93359,1014.64844,0.04250068714823912,-0.01678710034445706,-0.14202442255178657,71.7,2.25,86.85,-859.86328,68.35938,559.08203,0.2071745964690065,-0.011457912006417574,0.03970292435729221,57.6,24.0,20.25
-1028.32031,15.625,-123.04688,0.08366916447843097,0.06261874837012736,-0.03464007326310706,2.1,27.0,31.65,-101.07422,-88.37891,1004.39453,0.056356856079822104,0.01958503766832917,-0.1228392398150893,71.4,1.8,87.9,-865.72266,79.58984,517.57812,0.22169678304315052,-0.0006661921754862356,0.09885754322806121,57.0,25.5,20.7
-1013.18359,16.11328,-116.69922,0.08620059002552354,-0.048762579438544375,-0.03597245761407953,0.75,24.6,30.45,-91.79688,-77.14844,1020.99609,0.05076115596500308,-0.01119140022963804,-0.16600611913881466,71.4,1.8,87.9,-875.0,77.14844,526.36719,0.2274256517798967,0.02038439846574257,0.05622351292496973,57.45,24.6,20.55
-1004.39453,16.11328,-111.81641,0.02851152412765417,0.04729702646564473,-0.12750223597764257,3.0,26.4,31.5,-102.53906,-77.14844,1019.04297,0.03357420068891412,-0.04050228515470561,-0.11884226129509709,71.55,2.7,88.8,-881.34766,92.28516,544.92187,0.20530936309740017,-0.011990761027051442,-0.0041301471419193814,58.35,24.3,21.3
-1000.0,-0.48828,-116.69922,0.05022813241144401,0.06781476808623968,-0.04902909121532391,3.0,26.4,31.5,-103.02734,-88.37891,1013.67187,0.01638741994575036,-0.021316927885083145,-0.14269061472727282,71.4,2.55,86.85,-869.62891,94.72656,533.69141,0.18639051760455722,0.0676814249313873,0.023981696587028086,58.35,24.3,21.3
-998.04687,7.8125,-110.35156,0.08326948407972427,0.04489894407340452,-0.12510415358540233,2.55,26.4,31.2,-106.93359,-75.68359,1018.55469,0.02278248085798278,0.00013316862192716734,-0.0896645449919567,71.25,3.45,86.7,-870.60547,102.05078,542.96875,0.1621424837736748,0.021849951438642212,-0.023715184810248553,57.0,23.7,21.0
-1000.97656,1.46484,-114.25781,0.05302606973531612,0.06062017184366865,-0.15148393256467063,1.35,25.5,29.25,-111.81641,-77.63672,1001.95312,0.01492186697285072,0.0019984019935335075,-0.07740727218812571,71.4,1.5,85.8,-878.41797,90.33203,554.19922,0.14002602055825306,-0.00039968039870670147,0.015055210127703087,57.0,23.7,21.0
-1034.17969,-3.90625,-123.04688,0.05302606973531612,0.1119141768293056,-0.08087140168748405,1.8,24.6,30.45,-124.51172,-71.28906,1007.8125,0.025980098580561592,-0.017986141540577164,-0.08846550379583658,71.25,1.65,86.7,-853.51562,106.93359,553.71094,0.17906275274005903,-0.011857592405124276,0.0046631706954784495,56.7,24.6,20.55
-1028.32031,13.18359,-112.79297,0.07341046820105869,0.010924888452858507,-0.060487003221741484,1.2,23.85,31.5,-104.98047,-76.17188,1042.48047,0.07074587403203896,-0.025313906405075356,-0.09073041756614963,70.8,4.95,85.95,-865.23437,107.42188,541.01562,0.15681312090271013,0.014255674797364485,0.05022813241144401,55.65,24.9,20.1
-1000.48828,12.69531,-109.86328,0.028245012350874635,0.05875493847206231,-0.06954665830299364,1.2,23.85,31.5,-84.47266,-77.63672,1034.66797,0.05275955795853659,0.007061253087718659,-0.1353630243956998,70.8,4.95,85.95,-859.375,96.19141,496.09375,0.2226293124624911,0.0373046674321268,0.03943641258051267,57.15,23.4,20.85
-1007.8125,14.64844,-111.32813,-0.03290818304635308,0.05422511093143622,-0.04556513624889076,0.45,25.35,31.2,-70.80078,-74.21875,1011.71875,0.017453292519943295,0.01678710034445706,-0.11471211415317771,72.15,2.55,87.15,-859.375,105.95703,525.87891,0.16573960736203514,-0.02424803383088242,0.016520588567677526,58.5,25.65,19.05
-1034.66797,27.34375,-104.98047,0.00839363743869113,0.0002665117767795341,0.0009327039522657697,1.5,24.6,30.45,-98.14453,-70.80078,987.30469,0.05928796202562137,-0.004929507939332785,-0.14215776570663893,72.6,1.95,87.0,-854.00391,105.95703,539.55078,0.11551147495059111,0.012257272803830977,0.005062851094185151,58.5,25.65,19.05
-1024.90234,28.32031,-119.62891,-0.08540122922811014,0.04756353824242427,0.021849951438642212,0.75,24.6,30.9,-102.05078,-55.17578,970.21484,0.018918845492842937,0.002131745148385874,-0.18146100966522447,71.7,1.05,87.6,-842.28516,102.53906,533.69141,0.10951609443706539,0.014655355196071187,0.0063950609122324234,57.9,24.9,19.05
-1013.67187,33.20313,-112.30469,-0.08007204089007065,0.06355127778946792,0.0011990411961201044,2.25,24.6,30.9,-104.98047,-36.62109,995.60547,0.04276719892501865,0.06421746996495417,-0.10951609443706539,71.7,1.05,87.6,-848.14453,105.95703,551.26953,0.1103154552344788,-0.0029311059457992773,-0.005062851094185151,57.9,24.9,19.05
-1000.97656,26.36719,-107.42188,-0.0291777163031404,0.05129400498563695,0.04449926367469782,2.25,24.6,30.9,-99.12109,-59.57031,1032.22656,-0.011990761027051442,0.05315923835724329,-0.10511943551836647,72.0,3.15,86.7,-856.93359,127.92969,538.57422,0.10591879631577987,-0.0063950609122324234,-0.03903673218180597,56.4,23.85,20.55
-996.09375,9.76562,-108.88672,-0.07847314476231865,0.10232167272741956,-0.02011788668896304,2.4,24.3,30.3,-94.23828,-42.48047,993.16406,-0.047696706864351436,0.011058231607710873,-0.05928796202562137,72.0,1.65,87.45,-867.67578,121.09375,535.15625,0.09113009796485633,0.0011990411961201044,0.055290983505629165,57.15,24.6,20.1
-997.07031,9.27734,-98.14453,-0.0571562168772355,0.08286980368101757,-0.003996978519992214,2.25,25.65,30.9,-102.53906,-71.77734,1009.76562,-0.07514235841781267,0.04023577337792608,-0.04316687932372535,72.0,1.65,87.45,-838.37891,131.34766,546.38672,0.06968000145784602,-0.0025314255470925756,-0.015588059148336955,57.6,24.75,19.95
-1007.32422,-2.92969,-111.32813,0.006661572689011957,0.07181157207330668,-0.025047394628295826,2.4,24.3,31.05,-103.51563,-87.40234,1012.69531,-0.10032309620096086,0.022516143614128445,-0.03557277721537283,70.65,2.25,86.85,-845.70312,127.92969,547.85156,0.04836289903983767,-0.014255674797364485,-0.014788698350923554,57.15,24.9,20.1
-1018.06641,-4.39453,-103.02734,-0.01065855120900417,0.07767378396490525,-0.05422511093143622,2.4,25.8,30.0,-75.68359,-90.82031,999.02344,-0.024781057384441488,0.023448673033469015,-0.01638741994575036,71.4,1.8,88.35,-839.84375,119.62891,547.36328,-0.0041301471419193814,0.03464007326310706,0.012257272803830977,58.05,24.0,21.0
-1003.41797,9.76562,-100.09766,-0.04529862447211123,0.09566010003840761,-0.08913169597132281,2.4,25.8,30.0,-81.54297,-116.69922,1003.90625,0.005995380513525721,0.03210864771601448,-0.05369226191080236,72.3,1.95,86.25,-825.19531,117.67578,567.87109,-0.008127125661911596,-0.006261892290305255,-0.008793317837397832,57.9,24.6,19.8
-1002.44141,3.90625,-95.21484,0.022915824012835147,0.0750091897958855,-0.0932618431132422,2.7,24.75,30.3,-74.21875,-106.44531,980.95703,0.035039753661813756,0.026646290756047828,-0.08606742140359638,72.3,1.95,86.25,-829.58984,103.02734,557.12891,0.010791719830931338,-0.016520588567677526,0.011990761027051442,57.9,24.6,19.8
-979.49219,40.52734,-92.28516,-0.002664594169019743,0.09033073716744291,0.010392039432224637,1.65,24.75,31.65,-68.35938,-92.77344,1001.46484,0.09432771568743514,0.0005328490206338688,-0.1305666850782942,73.05,1.95,87.0,-848.63281,92.77344,562.5,0.02038439846574257,-0.015055210127703087,0.03424039286440035,57.3,24.6,19.8
-963.37891,7.8125,-83.00781,-0.08020520951199782,0.16587295051688747,-0.06395095818817463,3.0,24.15,30.45,-73.24219,-89.84375,1010.25391,0.05915461887076901,-0.017852972918649995,-0.06594953471463334,72.15,3.0,86.85,-848.14453,86.91406,579.58984,0.024781057384441488,-0.0664823837352672,0.02038439846574257,57.3,24.75,19.65
-956.05469,4.88281,-87.40234,-0.05902145024884184,0.15508123068595617,0.019984718067035872,3.3,24.9,30.9,-81.54297,-85.9375,1004.39453,0.03970292435729221,0.00013316862192716734,-0.08300314683586993,71.7,3.0,86.55,-850.09766,98.14453,574.21875,0.07047936225525941,-0.026646290756047828,0.014389017952216851,57.3,24.75,19.65
-938.96484,-17.57813,-88.37891,-0.052626389336609423,0.14229093432856613,0.04956194023595778,3.3,24.9,30.9,-80.07813,-84.47266,1023.92578,-0.00746093348642536,0.017320123898016127,-0.07580855059329891,72.45,1.8,87.6,-836.42578,86.42578,569.82422,0.10205516095064003,-0.05062781281015071,-0.001065872574192937,58.05,24.75,20.25
-943.84766,-21.97266,-91.30859,-0.0835359958565038,0.17826339194264562,-0.08660027042423024,1.35,24.75,29.25,-72.26563,-77.63672,1018.55469,-0.028644692749581334,-0.020650910242522108,-0.06874729750558024,73.35,2.7,85.2,-833.49609,103.02734,583.98437,0.0920628019171221,0.022915824012835147,-0.08500154882940344,58.5,26.1,20.55
-947.26562,-23.92578,-109.86328,-0.010924888452858507,0.23861722654245995,-0.03677181841149293,0.45,24.9,30.15,-78.125,-81.54297,1020.99609,-0.02931088492506757,-0.05062781281015071,-0.048762579438544375,72.9,0.3,86.55,-832.51953,103.02734,558.10547,0.14109189313244602,0.026246610357341126,-0.08673361357908262,58.05,24.75,20.25
-974.12109,-20.99609,-98.14453,0.022516143614128445,0.18892194315164978,0.04529862447211123,1.5,23.1,30.15,-91.30859,-85.9375,1031.25,-0.03743801058697916,-0.023582016188321384,-0.0664823837352672,72.9,0.3,86.55,-819.33594,121.09375,559.57031,0.14535520889629253,-0.0013323843509724712,-0.035039753661813756,57.6,24.75,19.65
-967.77344,-17.08984,-127.44141,-0.017053612121236593,0.2671285761371889,-0.05409194230950906,0.45,24.9,30.15,-91.79688,-75.68359,1009.76562,0.02238280045927608,-0.02051756708766974,-0.025447249559927724,71.55,0.9,87.75,-840.82031,116.21094,576.66016,0.1103154552344788,-0.025047394628295826,-0.114312433754471,58.05,24.75,18.6
-1001.46484,6.34766,-134.76562,-0.004396658918698916,0.19971366298258114,0.03264167126957355,0.45,24.9,30.15,-84.47266,-96.19141,1028.80859,0.04303371070179819,-0.02851152412765417,-0.04396624012113876,71.55,-0.15,86.7,-846.19141,126.46484,556.64062,0.16973658588202734,0.02091724748637644,-0.10685150026804564,57.45,24.6,19.8
-990.23437,-3.41797,-134.27734,0.0005328490206338688,0.21769980452315832,-0.002664594169019743,0.45,24.9,30.15,-82.03125,-89.84375,1017.08984,0.04050228515470561,-0.035173096816666125,-0.06168604441786158,70.5,0.9,86.25,-854.98047,120.11719,581.54297,0.09699230985645488,-0.03570594583729999,0.00013316862192716734,57.45,24.6,19.8
-991.69922,13.18359,-154.78516,-0.020650910242522108,0.19651604526000233,0.005728868736746187,0.6,24.3,29.55,-75.68359,-95.21484,1026.36719,0.027845331952167932,-0.031442630073453444,0.0,70.5,0.9,86.25,-851.5625,108.88672,565.91797,0.1013889687751538,-0.03637213801278623,0.009992359033517936,57.3,24.75,19.65
-996.09375,14.64844,-150.87891,-0.07047936225525941,0.20610872389481358,0.03304135166828025,1.8,24.6,29.4,-70.3125,-120.11719,1020.01953,0.03530626543859329,-0.11178100820737844,-0.031575798695380616,70.5,1.65,86.25,-847.65625,89.35547,559.57031,0.11737670832219745,-0.010924888452858507,-0.09632611768096865,57.6,24.75,19.65
-998.53516,6.34766,-147.94922,-0.010924888452858507,0.20211174537482135,0.08406884487713767,2.1,24.0,30.0,-69.82422,-86.91406,1024.41406,0.0279785005740951,-0.08180393110682463,-0.04956194023595778,70.5,1.95,88.05,-833.98437,73.24219,561.03516,0.09579326866033477,-0.05275955795853659,-0.052626389336609423,58.05,24.75,19.65
-989.25781,3.41797,-156.73828,-0.06062017184366865,0.18066147433488583,0.03797085960761303,-0.3,24.3,30.6,-74.70703,-96.67969,1013.18359,0.015188378749630253,-0.10458658649773261,-0.07594189374815126,70.65,2.25,86.55,-825.68359,69.33594,567.87109,0.19558351584066178,-0.022649312236055614,-0.09459422746421467,57.0,24.75,19.65
-1008.78906,-0.97656,-160.15625,-0.08100457030941122,0.15681312090271013,-0.03250850264764638,-0.3,24.3,30.6,-72.26563,-61.03516,1022.94922,0.014255674797364485,-0.07047936225525941,-0.07207808385008622,70.65,2.25,86.55,-838.86719,76.66016,574.21875,0.16533992696332844,0.002131745148385874,-0.09885754322806121,55.8,24.3,19.2
-1010.25391,7.32422,-139.64844,-0.028777861371508503,0.09139660974163587,0.016920443499309427,1.2,24.9,29.85,-68.84766,-53.71094,1046.875,-0.07794029574168478,-0.20211174537482135,-0.08167076248489745,71.4,3.0,87.15,-822.75391,83.00781,546.875,0.17400007617879906,-0.02518073778314819,-0.04023577337792608,57.45,24.15,20.1
-1002.44141,38.08594,-163.08594,-0.07047936225525941,0.08793265477520272,-0.04489894407340452,-0.3,24.75,29.25,-88.86719,-61.03516,1054.6875,-0.09712565301130725,-0.09139660974163587,-0.09166312151841538,73.2,2.25,87.15,-849.12109,105.46875,532.71484,0.18918828039550412,-0.011857592405124276,-0.0632847660126884,57.45,24.15,20.1
-982.91016,33.69141,-150.39062,-0.13243191844990054,0.10911641403835869,-0.06035383459981431,0.45,24.9,28.8,-100.09766,-60.05859,1023.4375,-0.21463552995543186,-0.09033073716744291,-0.05182702853919601,70.5,0.9,87.45,-834.96094,124.51172,533.20312,0.18146100966522447,0.004396658918698916,-0.04596481664759746,55.8,24.75,21.0
-965.82031,39.55078,-176.26953,-0.12323892021379601,0.06115319539722772,0.030909606519894377,2.25,24.15,30.15,-97.16797,-125.0,993.65234,-0.3333446226286018,-0.07407648584361974,0.04236751852631195,70.5,0.9,87.45,-821.77734,130.85937,526.85547,0.1025880099712739,0.01851916509413623,-0.05209336578305035,55.8,24.75,21.0
-947.75391,22.94922,-168.94531,-0.18465845285487806,0.13549619301762697,-0.08620059002552354,2.25,24.15,30.15,-101.07422,-160.15625,994.14062,-0.3019019925551483,-0.03557277721537283,0.007194421709645826,69.45,1.65,87.0,-840.82031,138.67187,502.92969,0.09699230985645488,0.07154523482945235,-0.1103154552344788,57.3,23.7,21.0
-936.03516,2.92969,-171.38672,-0.18945479217228367,0.07807346436361194,-0.05555749528240869,0.6,27.0,30.0,-90.82031,-157.71484,957.03125,-0.18585766858392339,-0.05728938549916267,-0.04649766566823133,72.6,1.2,88.8,-850.09766,157.22656,505.37109,0.038903563559878805,0.027712163330240767,-0.05995397966818241,57.9,23.4,19.8
-945.3125,-15.13672,-170.41016,-0.20011334338128786,0.18172734690907877,-0.021849951438642212,1.65,24.75,29.25,-74.21875,-182.61719,958.49609,-0.08207044288360416,0.015588059148336955,-0.007194421709645826,72.15,1.8,86.85,-842.28516,152.34375,503.41797,0.005728868736746187,0.03370754384376649,-0.07634157414685798,58.05,23.25,18.9
-971.67969,2.92969,-193.35937,-0.19318525891549634,0.24208118150889307,0.010791719830931338,0.75,25.35,29.1,-78.61328,-126.95313,975.58594,-0.0559571756811154,-0.04929560299210344,-0.02744565155346123,72.15,1.8,86.85,-847.16797,142.08984,503.41797,-0.033973881087620825,0.0069280844657914915,-0.07860648791717102,56.55,24.3,19.65
-994.14062,-7.8125,-186.52344,-0.1593445464498027,0.23501992842117445,-0.0009327039522657697,0.75,25.35,29.1,-88.86719,-132.32422,979.00391,0.016920443499309427,-0.009192998236104533,-0.009459335479958867,71.25,1.65,88.5,-852.53906,127.44141,504.39453,-0.06794793670816685,0.008793317837397832,-0.05489130310692246,58.05,24.3,19.95
-1012.69531,-25.39063,-198.24219,-0.1548147189091766,0.22969074008313498,0.045698304870817934,0.15,24.9,30.15,-81.05469,-119.62891,992.67578,0.06315159739076123,-0.027712163330240767,-0.021183759263155976,71.7,1.8,86.85,-865.72266,120.60547,510.74219,-0.053292581512095656,-0.011724423783197109,-0.019984718067035872,58.35,24.0,20.25
-990.72266,-41.50391,-205.56641,-0.1536156777130565,0.2519401973875587,0.06954665830299364,1.35,25.8,30.3,-123.04688,-123.53516,985.35156,0.03623896939085906,-0.012656953202537678,-0.015188378749630253,71.7,1.8,86.85,-864.74609,108.88672,500.0,-0.04023577337792608,0.00559570011481902,-0.05142717360756412,58.35,24.0,20.25
-998.04687,-45.41016,-197.26562,-0.12057432604477626,0.1930520902935692,0.004263315763846549,1.05,24.3,28.95,-124.02344,-145.99609,1003.41797,0.05129400498563695,0.03277483989150072,-0.006794741310939124,71.7,0.75,87.9,-875.0,100.09766,496.09375,-0.06794793670816685,0.030643269276040042,-0.06408430134302699,58.35,24.0,20.25
-985.35156,-43.45703,-210.44922,-0.06541651116107426,0.1686707133078344,0.07061253087718658,1.65,25.5,28.5,-125.0,-130.37109,994.62891,0.002131745148385874,0.06195255619464112,0.05382543053272952,72.45,0.0,87.15,-867.67578,89.35547,515.625,-0.12803525953120162,0.0009327039522657697,-0.014255674797364485,57.6,25.05,19.65
-994.62891,-34.66797,-206.54297,-0.04170132635082572,0.15308265415949743,0.07487602117395832,1.65,25.5,28.5,-132.32422,-151.36719,971.19141,-0.0186523337160634,0.04676417744501087,-0.01305663360124438,71.7,1.5,87.15,-858.88672,74.70703,501.95312,-0.10685150026804564,0.015588059148336955,-0.04556513624889076,56.7,23.1,20.55
-993.16406,-22.46094,-200.19531,-0.031575798695380616,0.2242282085902431,0.032375159492794015,0.75,25.65,29.1,-125.0,-157.71484,976.5625,0.04996179516758968,0.04170132635082572,-0.05116083636370978,71.7,1.5,87.15,-867.1875,65.42969,526.36719,-0.06275191699205453,-0.026379778979268294,-0.0019984019935335075,58.5,23.85,20.85
-985.83984,-10.25391,-203.61328,0.02518073778314819,0.17506577422006683,0.06674889551204674,0.0,27.75,29.55,-94.72656,-138.18359,993.16406,0.1119141768293056,0.04143498910697138,-0.03837054000631974,71.7,0.75,87.6,-855.95703,58.59375,518.55469,-0.0896645449919567,-0.0571562168772355,-0.05395859915465669,58.2,24.15,20.85
-980.95703,-12.69531,-204.10156,0.03597245761407953,0.16933690548332064,0.06514999938429474,-0.75,25.65,29.85,-109.375,-141.11328,977.53906,0.13509651261892028,0.00652840406708479,-0.05342575013402282,71.1,1.5,86.55,-862.30469,77.14844,513.67187,-0.05409194230950906,-0.05915461887076901,-0.021849951438642212,58.2,24.15,19.05
