IMU1_AccX,IMU1_AccY,IMU1_AccZ,IMU1_GyrX,IMU1_GyrY,IMU1_GyrZ,IMU1_MagX,IMU1_MagY,IMU1_MagZ,IMU2_AccX,IMU2_AccY,IMU2_AccZ,IMU2_GyrX,IMU2_GyrY,IMU2_GyrZ,IMU2_MagX,IMU2_MagY,IMU2_MagZ,IMU3_AccX,IMU3_AccY,IMU3_AccZ,IMU3_GyrX,IMU3_GyrY,IMU3_GyrZ,IMU3_MagX,IMU3_MagY,IMU3_MagZ
-1004.88281,-50.29297,-159.66797,0.006128723668378088,-0.03877022040502644,-0.015721227770264124,2.4,24.75,31.05,-79.10156,108.88672,1005.85937,-0.06035383459981431,0.06901380928235978,0.1192419416938038,72.0,9.15,85.2,-811.03516,10.74219,617.67578,-0.2570030484817438,-0.0058622118915985545,0.004529827540626083,58.95,19.8,22.95
-1021.97266,-56.15234,-141.60156,-0.01065855120900417,0.011990761027051442,-0.10924958266028587,1.65,24.3,31.35,-66.89453,108.39844,1013.18359,-0.031708967317307775,0.08766614299842318,0.11004894345769926,71.25,10.35,87.0,-828.61328,21.97266,611.32812,-0.26992651346106106,-0.03557277721537283,-0.0361056262360067,57.9,19.8,23.25
-1010.74219,-43.94531,-139.64844,-0.02558041818185489,0.028111843728947466,-0.10964926305899256,1.65,24.3,31.35,-74.70703,106.93359,1011.23047,-0.04516545585018406,0.10805054146416575,0.12110717506541013,71.25,10.35,87.0,-808.59375,9.27734,585.9375,-0.26060034660302933,0.03317452029020742,-0.004529827540626083,57.9,19.8,23.25
-987.30469,-29.78516,-132.32422,-0.0486294108166172,-0.017053612121236593,-0.0482297304179105,1.65,24.75,30.6,-49.80469,108.88672,1017.57812,-0.03490658503988659,0.1293674693492489,0.12803525953120162,72.0,11.4,87.0,-798.82812,-12.69531,595.21484,-0.19211938634130343,0.02944405354699474,-0.015588059148336955,57.0,20.7,22.8
-1009.27734,-41.01563,-146.48437,-0.02984373394570144,-0.0022649137703130416,-0.062219067971420655,1.65,24.75,30.6,67.38281,79.58984,1158.69141,0.15108425216596394,0.6853414044403418,0.03663864978956576,72.0,11.4,87.0,-826.17187,0.0,583.49609,-0.21263712796189838,0.07554203881651937,0.010924888452858507,57.0,20.7,22.8
-997.55859,-12.69531,-156.73828,-0.07194491522815906,-0.04449926367469782,-0.019718206290256335,1.05,25.05,29.25,-233.88672,129.39453,947.75391,0.10072277659966757,0.4960199554229105,0.05169368538434365,69.75,11.4,86.25,-815.42969,-13.18359,604.98047,-0.17786371154393893,0.03330786344505979,-0.04729702646564473,57.9,20.85,23.7
-999.51172,-16.11328,-138.18359,-0.0046631706954784495,-0.06754825630946014,0.0031976177225788113,1.05,25.05,29.25,-97.16797,101.5625,902.34375,-0.00839363743869113,0.18092798611166538,0.05449162270821576,69.75,11.4,86.25,-811.52344,-6.34766,617.1875,-0.22449472036702264,0.06514999938429474,-0.028777861371508503,57.9,20.85,23.7
-992.67578,-9.76562,-135.74219,0.007727445263204894,-0.060087322823034785,0.007327764864498192,1.05,25.05,29.25,-76.66016,105.46875,958.49609,0.06741508768753297,0.1553475679298105,0.08180393110682463,69.75,11.4,86.25,-810.54687,-14.16016,609.86328,-0.17026943490266122,0.023715184810248553,0.0041301471419193814,57.9,20.85,23.7
-1007.32422,-10.25391,-126.46484,0.00746093348642536,-0.05742272865401504,0.07754061534297808,1.05,25.05,29.25,-59.57031,138.67187,1041.99219,0.007061253087718659,0.11737670832219745,0.0652833425391471,69.75,11.4,86.25,-801.26953,-19.04297,595.21484,-0.1617428033749681,0.0466310088230837,-0.030909606519894377,57.9,20.85,23.7
-1006.34766,-5.85937,-120.60547,0.014255674797364485,-0.05062781281015071,0.08247012328231085,1.05,25.05,29.25,-40.52734,115.72266,1069.33594,-0.0559571756811154,0.10085611975451993,0.10791737284223858,71.4,10.05,85.05,-817.38281,-14.16016,587.89062,-0.2129034652057527,0.0385038831611721,-0.030110245722480975,57.45,19.8,21.9
-992.67578,-11.71875,-125.48828,-0.05609034430304257,-0.01305663360124438,-0.019318525891549636,2.4,25.05,31.05,-46.875,117.67578,1041.99219,-0.0365053066347134,0.17346705262524,0.01585457092511649,71.4,10.05,85.05,-806.15234,-18.06641,605.46875,-0.17013626628073403,0.04982845201273731,0.008793317837397832,57.45,19.8,21.9
-995.60547,-15.625,-125.0,-0.06235223659334782,-0.023182161256689485,0.01305663360124438,2.4,25.05,31.05,-63.47656,120.11719,1006.83594,-0.011058231607710873,0.15628027188207627,0.08566774100488968,72.3,9.15,85.95,-812.01172,-11.71875,602.53906,-0.19198621771937624,0.03250850264764638,0.005995380513525721,57.6,21.0,24.15
-991.21094,-10.74219,-118.65234,-0.025047394628295826,-0.03117611829667391,-0.021316927885083145,1.05,24.0,31.65,-76.17188,102.53906,985.35156,-0.04969528339081014,0.15334916593627698,0.10911641403835869,72.3,9.15,85.95,-818.35937,-12.20703,602.53906,-0.21743346727930396,0.038903563559878805,-0.00746093348642536,57.6,21.0,24.15
-981.93359,-16.60156,-115.72266,-0.0063950609122324234,-0.04956194023595778,0.05902145024884184,1.05,24.0,31.65,-85.44922,94.72656,980.95703,-0.07887282516102534,0.15787899347690307,0.08580090962681684,71.1,10.5,85.05,-830.56641,-1.95312,578.125,-0.17706435074652552,0.07101221127589329,0.03877022040502644,57.45,19.8,22.2
-998.04687,-26.85547,-123.53516,-0.0069280844657914915,-0.01811948469542953,-0.009192998236104533,1.8,24.6,30.45,-78.125,109.375,969.72656,-0.06128636401915488,0.1553475679298105,0.10911641403835869,71.1,10.5,85.05,-811.52344,-9.76562,584.96094,-0.212503784807046,0.05022813241144401,-0.0035972981212855125,57.45,19.8,22.2
-988.76953,-37.10938,-118.16406,-0.04076879693148514,-0.0029311059457992773,0.034773416417959425,1.8,24.6,30.45,-100.58594,94.23828,990.72266,-0.06581619155978097,0.15348233455820415,0.09979024718032699,72.15,10.5,86.1,-818.84766,-14.16016,602.53906,-0.24594481687403294,0.07873965653909817,-0.014655355196071187,57.15,21.6,23.7
-983.88672,-26.36719,-130.37109,0.0014655529728996386,-0.03597245761407953,0.02238280045927608,1.5,24.9,30.15,-87.89063,91.30859,1010.74219,-0.09819135105257498,0.14908567563950523,0.08220361150553133,72.15,10.5,86.1,-819.33594,-17.08984,624.02344,-0.24407958350242662,0.038903563559878805,0.05369226191080236,57.15,21.6,23.7
-986.81641,-26.36719,-135.25391,0.00559570011481902,0.015721227770264124,0.0069280844657914915,1.5,24.9,30.15,-92.28516,84.47266,1032.22656,-0.04836289903983767,0.17573196639555305,0.05209336578305035,71.4,10.05,86.1,-832.51953,-7.8125,620.60547,-0.23755135396826701,0.06155287579593442,0.04529862447211123,56.25,21.45,23.1
-984.86328,-18.55469,-127.92969,-0.03104294967474674,0.009859190411590769,-0.022915824012835147,1.5,24.9,30.15,-97.16797,81.54297,1036.62109,-0.05022813241144401,0.14162474215307985,0.04956194023595778,71.4,10.05,86.1,-837.89062,-29.78516,579.58984,-0.20131238457740794,0.04050228515470561,-0.003996978519992214,56.25,21.45,23.1
-989.25781,-34.17969,-139.16016,0.011591080628344743,0.04236751852631195,-0.05555749528240869,1.5,24.9,30.15,-88.37891,94.23828,1048.82813,-0.0019984019935335075,0.1119141768293056,0.08220361150553133,72.45,9.0,86.55,-821.28906,-36.13281,590.33203,-0.1718683310304132,0.0972588216332344,0.030376757499260505,55.8,21.0,22.8
-998.04687,-32.71484,-130.37109,-0.007194421709645826,0.06035383459981431,-0.07127872305267281,3.0,23.85,31.2,-88.86719,103.51563,1029.78516,-0.00839363743869113,0.1406922127337393,0.08859884695068895,72.45,9.0,86.55,-821.28906,-27.34375,580.07812,-0.17053594667944072,0.08406884487713767,0.0014655529728996386,55.8,21.0,22.8
-993.16406,-33.20313,-130.85937,0.022915824012835147,0.03384071246569365,0.01065855120900417,3.0,23.85,31.2,-108.39844,124.51172,1022.46094,-0.0025314255470925756,0.17506577422006683,0.0847350370526239,72.45,9.0,86.55,-826.17187,-26.85547,593.26172,-0.23009042048184167,0.08873201557261612,-0.016920443499309427,55.8,21.0,22.8
-1003.41797,-9.27734,-148.92578,0.0279785005740951,0.05142717360756412,0.006661572689011957,1.65,24.75,31.35,-93.75,118.65234,1000.48828,-0.06248540521527499,0.16693882309108043,0.06541651116107426,72.45,9.0,86.55,-833.00781,-26.85547,614.25781,-0.2522067091643382,0.0632847660126884,0.02145027103993551,55.8,21.0,22.8
-1020.99609,-20.01953,-144.04297,-0.00373046674321268,0.06594953471463334,-0.02944405354699474,1.65,24.75,31.35,-97.65625,101.5625,1007.32422,-0.0896645449919567,0.17506577422006683,0.1099157748357721,73.35,11.1,85.95,-832.03125,-14.64844,619.14062,-0.27299078802878746,0.07061253087718658,-0.014522186574144018,55.8,21.0,22.8
-1013.18359,-16.60156,-164.0625,0.020650910242522108,0.07101221127589329,0.0007993607974134029,2.4,25.05,31.35,-90.82031,98.63281,1022.94922,-0.11084847878803786,0.20584221211803402,0.16001073862528895,73.35,11.1,85.95,-847.65625,-23.4375,610.35156,-0.25114083659014524,0.04609798526952463,0.019851374912183504,57.3,19.95,23.1
-1023.92578,-15.625,-144.53125,0.008260294283838763,0.12297240843701647,0.011857592405124276,2.4,25.05,31.35,-76.17188,103.51563,1030.27344,-0.13509651261892028,0.20810712588834707,0.07074587403203896,73.05,11.1,85.95,-833.00781,-16.60156,622.07031,-0.2792526803190927,0.08020520951199782,0.0644839817417337,57.3,19.95,23.1
-1023.92578,-16.11328,-152.34375,0.05169368538434365,0.01119140022963804,0.0186523337160634,1.5,24.9,30.45,-87.89063,104.00391,1042.48047,-0.10365388254546684,0.1698697545039545,0.09059724894422246,73.05,11.1,85.95,-832.03125,-19.04297,632.32422,-0.28125108231262624,0.060487003221741484,0.004529827540626083,58.2,20.55,24.75
-1030.27344,-19.04297,-152.83203,0.03317452029020742,-0.023582016188321384,-0.01851916509413623,1.5,24.9,30.45,-73.24219,86.42578,1052.73438,-0.15268297376079074,0.1637412053685016,0.1119141768293056,71.7,10.8,86.55,-841.30859,-9.27734,641.11328,-0.3633215251962304,0.04050228515470561,0.017453292519943295,58.2,20.55,24.75
-1023.92578,-24.90234,-146.97266,0.015188378749630253,0.008926486459324997,-0.08047172128877735,1.5,24.9,30.45,-63.47656,98.14453,1034.66797,-0.12963398112602842,0.1253706653621819,0.06981317007977318,71.7,10.8,86.55,-825.19531,-29.29688,631.34766,-0.3304135166828025,0.011591080628344743,0.024381376985734785,57.0,19.95,23.55
-1007.8125,-43.94531,-145.99609,-0.03250850264764638,0.07740727218812571,-0.08273663505909039,1.5,24.9,30.45,-68.35938,98.14453,1045.41016,-0.14109189313244602,0.16800452113234815,0.08300314683586993,71.7,10.8,86.55,-823.73047,-26.85547,616.69922,-0.32201987924411135,0.03570594583729999,0.0279785005740951,57.0,19.95,23.55
-1013.18359,-22.94922,-134.76562,0.002664594169019743,0.021183759263155976,-0.06808110533009401,1.05,24.0,30.3,-71.77734,109.375,1037.10938,-0.1366952342137471,0.17360022124716717,0.11324656118027807,71.7,10.8,86.55,-821.28906,-41.50391,626.46484,-0.2945742276906501,0.04476577545147736,0.02558041818185489,56.7,20.1,24.0
-999.02344,-16.60156,-134.27734,-0.008793317837397832,0.03184231047216015,-0.08286980368101757,1.05,24.0,30.3,-71.77734,100.58594,1015.625,-0.14668759324726502,0.1771975193684527,0.12110717506541013,71.7,11.25,85.8,-812.98828,-38.08594,649.41406,-0.274989190022321,0.0006661921754862356,0.05688970510045597,56.7,20.1,24.0
-990.23437,-28.80859,-124.51172,0.01638741994575036,-0.003463954966433146,-0.09885754322806121,1.5,24.6,30.15,-88.37891,120.11719,1001.95312,-0.11098164740996504,0.1646737347878422,0.1163108357480045,71.7,11.25,85.8,-824.21875,-39.0625,629.88281,-0.28218378626489204,0.03677181841149293,0.07141189167459998,57.0,19.95,21.75
-979.00391,-16.11328,-120.60547,0.007194421709645826,0.02704597115475453,-0.08739963122164364,1.5,24.6,30.15,-84.47266,112.30469,993.65234,-0.13816078718664673,0.1633415249697949,0.12617002615959527,71.4,10.5,86.1,-815.91797,-32.71484,626.95312,-0.28658044518359094,0.04330022247857772,0.05955429926947571,57.0,19.95,21.75
-979.98047,-21.48438,-126.46484,0.05076115596500308,0.007194421709645826,-0.011724423783197109,1.35,24.0,30.3,-84.96094,127.92969,993.65234,-0.1641408857672083,0.09752533341001395,0.13896014798406012,71.4,10.5,86.1,-811.03516,-51.26953,614.25781,-0.2941745472919434,0.05555749528240869,0.027712163330240767,57.6,21.0,22.05
-973.63281,-27.34375,-123.04688,0.0579555776746489,-0.03184231047216015,-0.04290054207987102,1.35,24.0,30.3,-101.07422,120.11719,997.55859,-0.18918828039550412,0.10685150026804564,0.17213484280719277,73.05,10.35,85.65,-814.94141,-46.38672,622.07031,-0.2848483804339117,0.05275955795853659,0.05875493847206231,57.6,21.0,22.05
-979.49219,-26.36719,-127.92969,0.0644839817417337,-0.008659974682545464,-0.07913933693780488,2.1,24.75,30.0,-97.16797,124.02344,988.28125,-0.185724325429071,0.06954665830299364,0.20917299846254003,73.05,10.35,85.65,-812.5,-40.52734,633.30078,-0.2760550625965139,0.07407648584361974,0.0190520141147701,57.6,21.0,22.05
-974.60937,-19.53125,-128.90625,0.05688970510045597,0.0005328490206338688,-0.08846550379583658,2.1,24.75,30.0,-80.07813,114.25781,1003.41797,-0.22036439869217805,0.07567538197137175,0.12430479278798894,73.05,10.35,85.65,-809.57031,-40.03906,650.87891,-0.3003032709603215,0.07061253087718658,0.052626389336609423,57.6,21.0,22.05
-983.88672,-13.18359,-125.0,0.009192998236104533,0.05129400498563695,-0.14455584809887914,2.1,24.75,30.0,-72.26563,135.74219,993.16406,-0.2238285281915364,0.07447634077525163,0.14868599524079854,72.45,9.75,86.85,-816.40625,-39.55078,644.53125,-0.2796523607177994,0.0470306892217904,0.07061253087718658,57.3,18.75,23.55
-960.44922,-2.92969,-125.48828,-0.01625425132382319,0.04516545585018406,-0.1370949146124538,2.1,24.75,30.0,-87.89063,110.83984,993.65234,-0.24381324625857226,0.09339518626809457,0.16600611913881466,72.45,9.75,86.85,-805.17578,-26.85547,616.21094,-0.30576562792028816,0.09219597053904927,0.027845331952167932,57.3,18.75,23.55
-978.51562,-4.88281,-138.18359,-0.011457912006417574,0.06288508561398169,-0.13243191844990054,2.1,23.7,30.3,-71.77734,92.77344,1015.625,-0.22516073800958367,0.11377941020091194,0.18892194315164978,72.6,9.15,86.7,-810.05859,-24.41406,596.19141,-0.2550046464882103,0.058488601228207975,0.023048992634762316,57.3,18.75,23.55
-966.30859,-15.13672,-128.41797,0.005728868736746187,-0.007061253087718659,-0.09952373540354745,2.1,23.7,30.3,-70.3125,78.61328,1018.06641,-0.2224961438405639,0.10818371008609293,0.171202138854927,72.6,9.15,86.7,-801.75781,-25.87891,595.70312,-0.2384838833876076,0.0835359958565038,0.0361056262360067,57.3,18.75,23.55
-964.35547,-28.80859,-122.55859,-0.008659974682545464,0.031708967317307775,-0.13975950878147356,1.35,23.7,31.05,-71.77734,21.97266,1022.94922,-0.19598319623936847,0.09499390786292138,0.17466609382136014,73.2,9.75,85.8,-812.98828,-28.32031,618.65234,-0.2809847450687719,0.07234459562686575,-0.007860613885132062,57.9,19.35,24.0
-1000.0,-39.0625,-152.83203,-0.014788698350923554,0.03530626543859329,-0.11711019654541792,1.35,23.7,31.05,-70.3125,-24.90234,1034.17969,-0.24474577567791284,0.0722112524720134,0.16573960736203514,73.2,9.75,85.8,-813.96484,-47.36328,641.11328,-0.3422711090879268,0.0722112524720134,0.04396624012113876,57.9,19.35,24.0
-1001.95312,-60.05859,-148.4375,-0.07034601910040704,0.10272135312612628,-0.2115712553877054,0.75,24.15,31.5,-54.6875,-56.64063,1053.71094,-0.17866307234135234,0.09805818243064782,0.15588059148336955,73.2,9.75,85.8,-812.98828,-63.47656,653.32031,-0.3300138362840958,0.05542415212755633,0.05742272865401504,56.7,20.85,23.7
-1012.20703,-74.70703,-153.32031,-0.04223434990438478,0.07127872305267281,-0.16747167211171432,0.75,24.15,31.5,-59.08203,-86.42578,1053.22266,-0.14815314622016465,0.13509651261892028,0.09752533341001395,73.2,9.75,85.8,-807.12891,-94.72656,633.78906,-0.3706492900607286,0.07873965653909817,0.02984373394570144,56.7,20.85,23.7
-1034.66797,-80.07813,-140.625,-0.03384071246569365,0.015055210127703087,-0.09699230985645488,2.4,24.0,30.6,-60.54688,-100.09766,1058.10547,-0.07141189167459998,0.12470447318669564,0.10272135312612628,72.0,9.6,85.2,-798.82812,-97.65625,629.39453,-0.2925758256971166,0.047696706864351436,0.12550383398410905,57.9,20.85,23.7
-1043.45703,-97.16797,-141.60156,-0.03264167126957355,0.0470306892217904,-0.1374945950111605,2.4,24.0,30.6,-57.12891,-89.35547,1041.01563,-0.023048992634762316,0.1131133925583509,0.07141189167459998,72.0,9.6,85.2,-815.42969,-109.86328,648.4375,-0.3084302220893079,0.07980552911329111,0.18479179600973042,57.9,19.05,23.25
-1049.31641,-66.40625,-148.92578,0.05182702853919601,-0.05742272865401504,-0.12297240843701647,2.4,24.0,30.6,-68.84766,-71.28906,1042.48047,0.03623896939085906,0.13922665976083967,-0.004929507939332785,72.0,8.4,85.65,-843.26172,-127.44141,637.69531,-0.2864471020287386,0.04183466950567808,0.10511943551836647,57.9,19.05,23.25
-1041.99219,-73.73047,-137.20703,0.031442630073453444,-0.04809656179598333,-0.0656830229378538,2.4,24.0,30.6,-87.40234,-10.74219,1013.18359,0.05742272865401504,0.13962634015954636,-0.02704597115475453,72.0,8.4,85.65,-829.10156,-133.78906,616.69922,-0.24181466973211357,0.07660791139071231,0.13656206559181994,56.4,20.85,24.75
-1021.48437,-44.43359,-141.60156,0.04889592259339674,-0.05275955795853659,-0.10818371008609293,2.4,24.0,30.6,-95.70313,31.25,1002.92969,0.11271371215964421,0.14975186781499147,-0.01252378458061051,72.45,9.75,85.05,-820.3125,-151.36719,599.12109,-0.15588059148336955,0.04676417744501087,0.11204751998415798,56.4,20.85,24.75
-1000.0,-62.98828,-123.53516,-0.03863705178309927,-0.0855343978500373,-0.07913933693780488,0.75,23.85,31.2,-109.86328,64.45313,1010.25391,0.08686678220100978,0.10432007472095307,-0.06435063858688132,72.45,9.75,85.05,-815.42969,-162.10937,602.05078,-0.14801997759823748,0.05022813241144401,0.11058196701125833,56.4,20.85,24.75
-966.30859,-49.31641,-126.95313,-0.04902909121532391,-0.10018992757903368,-0.07274427602557246,0.75,23.85,31.2,-118.65234,117.1875,1003.41797,0.07687442316749184,0.017852972918649995,-0.07127872305267281,72.45,9.75,85.05,-833.49609,-152.83203,645.50781,-0.1252373222073295,0.04836289903983767,0.10911641403835869,56.4,20.85,24.75
-963.37891,-72.26563,-119.14063,-0.035039753661813756,-0.03877022040502644,-0.05382543053272952,2.1,23.7,30.6,-92.28516,155.27344,1008.78906,0.04223434990438478,-0.0031976177225788113,-0.03903673218180597,72.45,9.75,85.05,-827.14844,-150.39062,695.3125,-0.1528161423827179,0.012656953202537678,0.096459460835821,57.0,20.7,22.8
-962.89062,-67.38281,-109.86328,0.06288508561398169,-0.0762082309920056,0.00039968039870670147,2.1,23.7,30.6,-105.46875,167.96875,1004.39453,-0.005196019716112318,-0.03597245761407953,-0.010125527655445103,73.35,9.6,85.95,-835.44922,-147.46094,713.37891,-0.11457894553125055,0.021583439661862675,0.07274427602557246,57.0,20.7,22.8
-950.68359,-73.73047,-117.1875,0.019185357269622467,-0.10405356294417353,0.012390441425758144,1.5,24.6,31.95,-88.37891,160.64453,1005.37109,-0.1224395594163826,0.015588059148336955,0.0038636353651398474,73.35,9.6,85.95,-821.77734,-123.04688,676.75781,-0.10765086106545904,-0.005995380513525721,0.09712565301130725,57.0,20.7,22.8
-970.21484,-77.14844,-132.32422,0.06062017184366865,-0.0936615235119489,0.035039753661813756,1.5,24.6,31.95,-87.40234,159.17969,1003.41797,-0.1033873707686873,0.035173096816666125,0.03357420068891412,72.9,9.75,86.1,-800.78125,-109.86328,658.20312,-0.02091724748637644,-0.02011788668896304,0.12457113003184328,57.0,20.7,22.8
-971.67969,-56.64063,-122.55859,0.026912627999902163,-0.05555749528240869,0.0030642745677264445,2.4,22.95,31.35,-93.75,127.44141,995.60547,-0.14682076186919218,-0.0031976177225788113,0.015454890526409788,72.9,9.75,86.1,-784.66797,-57.12891,646.48437,0.05116083636370978,-0.02704597115475453,0.08486838020747627,57.0,20.25,23.85
-955.56641,-63.96484,-126.46484,0.03290818304635308,-0.019318525891549636,-0.009459335479958867,2.4,22.95,31.35,-67.87109,113.76953,999.02344,-0.1496186991930643,-0.017186780743163762,0.0182526533173567,71.7,10.05,85.8,-797.85156,-30.76172,658.69141,0.0462311538914518,0.026246610357341126,0.07980552911329111,57.0,20.25,23.85
-956.05469,-57.12891,-109.375,0.005462531492891852,-0.011591080628344743,0.03370754384376649,2.4,22.95,31.35,-66.40625,84.96094,1014.16016,-0.1763981585710393,0.018918845492842937,0.04236751852631195,71.7,10.05,85.8,-790.03906,-19.04297,646.48437,0.04316687932372535,0.04383307149921159,0.10765086106545904,58.05,20.25,22.5
-973.14453,-54.19922,-127.44141,0.06168604441786158,-0.02931088492506757,0.04316687932372535,2.4,22.95,31.35,-67.38281,69.33594,1012.20703,-0.12403828101120941,-0.02091724748637644,0.05036147556629638,71.7,10.05,85.8,-791.99219,-15.625,631.83594,0.02411486520895525,-0.002398082392240209,0.05609034430304257,58.05,20.25,22.5
-968.75,-63.47656,-126.95313,0.07860648791717102,-0.03370754384376649,0.07407648584361974,3.0,24.15,30.15,-58.59375,51.75781,1000.97656,-0.10005658442418133,-0.01492186697285072,0.024914226006368657,71.7,10.05,85.8,-804.19922,-5.37109,608.39844,0.04063545377663278,-0.005995380513525721,0.04116847733019184,58.05,21.0,24.15
-968.26172,-61.52344,-125.48828,0.08979788814680904,-0.03024341434440814,0.003463954966433146,3.0,24.15,30.15,-59.08203,41.99219,989.74609,-0.1029876903699806,-0.04476577545147736,0.01958503766832917,73.8,9.6,85.95,-786.62109,-3.90625,611.81641,0.038903563559878805,-0.01492186697285072,0.0644839817417337,58.05,21.0,24.15
-961.91406,-61.03516,-129.88281,0.03543943406052046,0.03863705178309927,-0.03424039286440035,1.5,24.6,31.5,-54.6875,41.01563,996.58203,-0.0575558972759422,-0.016520588567677526,0.001065872574192937,73.8,9.6,85.95,-809.08203,-14.16016,645.50781,0.01065855120900417,0.007194421709645826,0.00652840406708479,57.15,21.6,22.95
-977.05078,-71.28906,-125.97656,0.05249304618175705,0.0458314734927451,-0.03357420068891412,1.5,24.6,31.5,-62.01172,56.15234,997.55859,-0.03357420068891412,-0.025846929958634426,-0.0011990411961201044,72.6,9.6,85.2,-812.98828,-30.27344,649.90234,-0.021849951438642212,-0.005196019716112318,0.04476577545147736,57.15,21.6,22.95
-981.44531,-68.84766,-117.1875,0.09352835489002174,0.043699902877284424,-0.018385996472209065,1.35,25.05,31.35,-73.73047,41.99219,1028.80859,-0.0006661921754862356,-0.0275788201753884,-0.0063950609122324234,72.6,9.6,85.2,-831.54297,-20.50781,656.73828,-0.055290983505629165,0.05129400498563695,0.021583439661862675,57.15,21.6,22.95
-996.58203,-45.41016,-126.95313,0.09539358826162808,-0.007594102108352528,-0.0182526533173567,1.35,25.05,31.35,-82.03125,69.33594,1036.13281,-0.006128723668378088,-0.02984373394570144,-0.004263315763846549,72.6,9.6,85.2,-824.21875,-46.38672,636.71875,-0.02731248293153406,0.018785676870915768,0.06821444848494637,57.15,21.6,22.95
-1006.83594,-51.26953,-126.95313,0.08300314683586993,-0.05129400498563695,-0.0029311059457992773,1.35,24.0,30.3,-89.35547,77.14844,1032.22656,-0.0190520141147701,-0.044099583275991124,-0.0291777163031404,72.6,9.6,85.2,-821.28906,-63.96484,621.09375,0.0454317930940384,0.04330022247857772,0.06621587195848767,57.0,19.95,23.85
-1006.34766,-43.94531,-127.92969,0.08713329397778931,-0.06928032105913931,0.009192998236104533,1.35,24.0,30.3,-93.75,86.42578,1021.97266,-0.02051756708766974,-0.045698304870817934,-0.007194421709645826,71.55,9.9,85.65,-824.70703,-40.52734,583.00781,0.04889592259339674,0.021716608283789844,0.06461715036366086,57.0,19.95,23.85
-982.91016,-28.80859,-125.97656,0.08420218803199005,-0.04636449704630416,-0.02011788668896304,1.35,24.0,30.3,-102.53906,91.79688,1008.30078,-0.048496242194690044,-0.017186780743163762,-0.010924888452858507,71.55,9.9,85.65,-824.70703,-38.57422,604.49219,0.047830050019203804,-0.0011990411961201044,0.05289272658046376,57.0,19.95,23.85
-988.28125,-30.27344,-120.60547,0.09113009796485633,-0.058888281626914674,-0.03543943406052046,1.35,24.0,30.3,-108.39844,85.9375,1013.18359,-0.04330022247857772,-0.05955429926947571,0.02238280045927608,73.5,10.05,85.05,-822.26562,-38.08594,620.60547,0.04023577337792608,-0.04942877161403061,0.07074587403203896,57.0,19.95,23.85
-977.53906,-24.41406,-130.85937,0.06275191699205453,-0.019984718067035872,-0.04756353824242427,2.25,23.1,30.45,-109.86328,90.82031,1016.60156,-0.05275955795853659,-0.0668820641339739,0.009725847256738402,73.5,10.05,85.05,-826.17187,-34.66797,618.16406,-0.02424803383088242,0.017852972918649995,-0.05169368538434365,56.7,19.8,23.7
-986.81641,-13.18359,-133.30078,0.03783769098568587,-0.04103530870826468,-0.05462479133014293,2.25,23.1,30.45,-99.12109,107.42188,1016.11328,-0.06381778956624745,-0.10432007472095307,0.018385996472209065,72.45,10.5,85.8,-806.15234,5.85937,611.32812,0.023582016188321384,0.004263315763846549,0.012790121824464847,56.7,19.8,23.7
-975.58594,-1.46484,-124.51172,0.056356856079822104,-0.04609798526952463,0.008526806060618296,1.65,23.7,30.3,-111.81641,98.14453,1011.23047,-0.06381778956624745,-0.09432771568743514,0.03663864978956576,72.45,10.5,85.8,-813.96484,3.90625,593.75,0.0006661921754862356,-0.00652840406708479,0.025447249559927724,58.05,21.0,23.7
-975.09766,-1.95312,-126.95313,0.04050228515470561,-0.04010260475599891,0.020251229843815406,1.65,23.7,30.3,-90.33203,98.63281,1012.69531,-0.021050590641228807,-0.0940612039106556,-0.007327764864498192,72.45,10.5,85.8,-804.6875,-1.95312,603.51562,-0.06128636401915488,-0.009725847256738402,0.010791719830931338,58.05,21.0,22.5
-961.91406,-4.88281,-127.44141,0.06275191699205453,-0.06341810916754076,-0.03250850264764638,2.25,23.4,30.15,-85.44922,98.14453,987.79297,0.017320123898016127,-0.103787051167394,-0.019318525891549636,72.45,10.5,85.8,-803.22266,22.46094,601.07422,-0.11977496524736285,-0.008260294283838763,0.047430369620497105,58.05,21.0,22.5
-956.05469,-13.67187,-132.8125,0.011457912006417574,-0.04050228515470561,-0.045698304870817934,2.25,23.4,30.15,-73.24219,80.07813,988.28125,-0.030509926121187674,-0.0754088701945922,-0.0035972981212855125,72.45,10.5,85.8,-810.54687,2.44141,615.72266,-0.13163238311956194,-0.011724423783197109,0.024781057384441488,56.4,21.9,24.3
-955.56641,-7.32422,-125.48828,-0.00279793732387211,0.02704597115475453,-0.07487602117395832,1.65,23.7,30.3,-64.45313,82.51953,1000.97656,-0.005728868736746187,-0.08127108208619076,-0.010525208054151804,73.8,8.1,87.0,-793.45703,17.08984,623.04687,-0.14855282661887137,-0.01119140022963804,0.017852972918649995,56.4,21.9,24.3
-969.72656,-9.76562,-123.53516,-0.003996978519992214,0.022116463215421746,-0.06288508561398169,1.65,23.7,30.3,-64.94141,87.40234,1021.48437,0.011990761027051442,-0.07953901733651159,0.03117611829667391,73.8,8.1,87.0,-802.24609,7.32422,623.04687,-0.12630319478152247,-0.06128636401915488,0.06634921511334003,58.35,22.5,23.85
-974.60937,-24.41406,-136.23047,0.005728868736746187,0.04729702646564473,-0.10671815711319327,1.65,23.7,30.3,-58.59375,85.9375,1017.57812,0.002664594169019743,-0.08207044288360416,0.011724423783197109,73.05,9.6,85.2,-791.50391,-2.92969,626.46484,-0.14828631484209184,-0.09979024718032699,0.04809656179598333,58.35,22.5,23.85
-992.1875,-29.29688,-136.23047,0.0279785005740951,-0.003463954966433146,-0.04356655972243205,1.65,23.7,30.3,-80.56641,96.19141,985.83984,0.023715184810248553,-0.10272135312612628,-0.004396658918698916,73.05,9.6,85.2,-802.73437,-8.30078,638.67187,-0.14775346582145796,-0.07394331722169258,0.05302606973531612,58.35,22.5,23.85
-989.74609,-55.17578,-146.97266,0.023048992634762316,-0.004796339317405617,-0.04330022247857772,1.65,24.0,30.3,-68.84766,94.72656,979.98047,0.014255674797364485,-0.0684807857288007,0.024781057384441488,72.15,8.55,86.1,-805.66406,-14.64844,633.30078,-0.13243191844990054,-0.06022049144496195,0.05209336578305035,58.35,22.5,23.85
-988.28125,-57.61719,-130.85937,0.03277483989150072,-0.024781057384441488,-0.023981696587028086,1.65,24.0,30.3,-83.49609,95.70313,991.69922,0.0005328490206338688,-0.06475031898558803,0.05649002470174927,72.15,8.55,86.1,-816.40625,-13.18359,625.97656,-0.11271371215964421,-0.05968764242432808,0.05968764242432808,56.55,21.0,23.55
-994.62891,-67.38281,-127.92969,0.026246610357341126,0.03224199087086685,-0.07394331722169258,1.05,25.05,28.95,-83.00781,98.14453,989.74609,0.0019984019935335075,-0.06421746996495417,0.014655355196071187,72.15,8.55,86.1,-821.77734,1.46484,621.58203,-0.08207044288360416,-0.0385038831611721,0.10205516095064003,56.55,21.0,23.55
-1001.46484,-72.75391,-130.85937,0.02944405354699474,0.017186780743163762,-0.09792501380872065,1.05,25.05,28.95,-74.21875,104.98047,1001.95312,-0.02411486520895525,-0.025047394628295826,0.04343339110050489,72.15,8.55,86.1,-804.6875,-11.23047,618.65234,-0.044099583275991124,-0.008659974682545464,0.1293674693492489,56.55,21.0,23.55
-989.25781,-75.19531,-125.0,0.07274427602557246,0.0009327039522657697,-0.10312103352483297,2.1,24.0,31.05,-81.05469,114.74609,1011.71875,-0.013456313999951081,-0.05902145024884184,0.05289272658046376,72.9,9.75,87.9,-812.01172,-11.71875,606.44531,-0.051960197161123184,-0.047430369620497105,0.12976714974795558,56.55,21.0,23.55
-982.42187,-72.75391,-135.74219,0.10671815711319327,0.023448673033469015,-0.08207044288360416,2.1,24.0,31.05,-92.28516,115.23438,1012.20703,-0.004396658918698916,-0.05662319332367644,0.05116083636370978,72.9,9.75,87.9,-814.94141,-11.71875,606.44531,-0.04689734606693803,-0.02931088492506757,0.05009496378951684,57.6,20.7,23.55
-987.79297,-65.91797,-127.92969,0.0896645449919567,-0.03903673218180597,-0.05542415212755633,2.1,24.3,31.35,-90.33203,118.16406,1021.48437,-0.010525208054151804,-0.05022813241144401,0.05742272865401504,71.4,10.5,85.5,-809.08203,-13.18359,602.53906,-0.021849951438642212,0.011457912006417574,0.04916225983725108,57.6,20.7,23.55
-988.28125,-70.80078,-135.74219,0.11937511031573096,-0.012790121824464847,-0.09499390786292138,2.1,24.3,31.35,-88.37891,138.18359,1008.30078,-0.034773416417959425,-0.08100457030941122,0.06368444641139509,71.4,10.5,85.5,-805.17578,4.39453,605.46875,-0.062219067971420655,-0.029977077100553806,0.0855343978500373,56.55,22.2,24.15
-991.69922,-62.98828,-136.71875,0.11457894553125055,0.02931088492506757,-0.038903563559878805,2.1,24.3,31.35,-96.67969,136.23047,1021.97266,-0.031708967317307775,-0.04836289903983767,0.06501683076236757,72.3,8.1,87.45,-800.29297,-6.83594,577.14844,-0.04449926367469782,0.03597245761407953,0.012790121824464847,56.55,22.2,24.15
-989.74609,-47.36328,-140.625,0.060087322823034785,-0.00279793732387211,-0.08806582339712987,2.1,24.3,31.35,-97.65625,138.67187,1009.76562,-0.032375159492794015,-0.05022813241144401,0.05462479133014293,72.3,8.1,87.45,-807.12891,7.8125,569.82422,-0.04250068714823912,0.04303371070179819,0.04942877161403061,58.2,20.85,24.3
-995.60547,-43.94531,-151.85547,0.13736142638923332,0.053558918755949994,-0.09179629014034256,2.1,24.3,31.35,-77.63672,126.46484,1014.64844,0.009725847256738402,-0.05968764242432808,0.030110245722480975,71.55,8.85,86.25,-786.62109,-7.32422,564.94141,-0.039969436134071744,0.04383307149921159,0.022516143614128445,58.2,20.85,24.3
-990.72266,-34.17969,-149.41406,0.10898307088350632,-0.004796339317405617,-0.03677181841149293,1.5,23.4,30.9,-94.23828,132.8125,992.1875,-0.029977077100553806,-0.06501683076236757,0.06075351499852101,71.55,8.85,86.25,-788.57422,-16.60156,547.36328,-0.025980098580561592,0.06874729750558024,-0.0361056262360067,57.15,22.35,23.25
-1009.27734,-40.52734,-141.11328,0.13243191844990054,-0.03623896939085906,-0.017186780743163762,1.5,23.4,30.9,-99.60938,135.74219,988.76953,-0.028777861371508503,-0.033973881087620825,0.10591879631577987,73.05,9.9,86.25,-771.97266,-21.97266,549.31641,-0.0186523337160634,0.07314395642427915,0.09086376072100198,57.15,22.35,23.25
-1002.44141,-37.59766,-155.27344,0.10685150026804564,-0.029710565323774273,0.012656953202537678,2.55,23.1,31.2,-2.44141,118.16406,1021.48437,-0.035839288992152364,0.025447249559927724,0.09685914123452771,73.05,9.9,86.25,-788.08594,-8.30078,560.05859,-0.05555749528240869,0.05249304618175705,0.026646290756047828,57.15,22.35,23.25
-998.53516,-54.19922,-153.32031,0.06035383459981431,-0.021316927885083145,-0.056356856079822104,2.55,23.1,31.2,-176.26953,151.36719,992.67578,-0.020251229843815406,0.004263315763846549,0.14042570095695978,72.0,9.15,86.25,-784.66797,-15.13672,545.89844,-0.037171498810199634,0.04449926367469782,0.008260294283838763,57.15,22.35,23.25
-1011.71875,-41.01563,-149.41406,0.04076879693148514,-0.0030642745677264445,-0.039969436134071744,1.2,24.15,29.4,-78.125,94.72656,995.11719,-0.05275955795853659,0.03570594583729999,0.10845022186287244,72.0,9.15,86.25,-794.43359,-32.71484,566.89453,-0.019451694513476805,0.06954665830299364,0.0002665117767795341,56.25,21.75,23.1
-1006.83594,-47.85156,-145.50781,0.03210864771601448,0.042634030303091486,-0.02145027103993551,1.2,24.15,29.4,-113.76953,92.77344,990.72266,0.02411486520895525,0.024381376985734785,0.07127872305267281,72.0,9.15,86.25,-793.45703,-41.50391,561.03516,0.00279793732387211,0.05435827955336339,-0.07714093494427138,56.25,21.75,23.1
-996.58203,-41.01563,-161.13281,0.10591879631577987,-0.04223434990438478,0.007327764864498192,1.8,23.4,30.45,-73.24219,114.74609,1019.04297,-0.03370754384376649,0.031575798695380616,0.11497862592995724,72.0,9.15,86.25,-805.17578,-33.20313,569.82422,-0.023981696587028086,0.0738101485997654,-0.0559571756811154,56.25,21.75,23.1
-1002.44141,-43.94531,-156.25,0.0738101485997654,-0.02611326720248876,0.009725847256738402,1.8,23.4,30.45,-107.91016,84.96094,1006.83594,-0.03317452029020742,0.04396624012113876,0.05275955795853659,71.55,7.65,85.95,-803.22266,-53.71094,567.87109,-0.030909606519894377,0.04303371070179819,-0.05315923835724329,56.25,21.75,23.1
-1016.60156,-29.29688,-174.31641,0.05555749528240869,-0.017453292519943295,0.060487003221741484,1.8,23.4,30.45,-110.83984,78.125,1004.39453,-0.019718206290256335,0.05009496378951684,0.06155287579593442,71.55,7.65,85.95,-803.22266,-51.26953,570.3125,-0.10725118066675235,0.07833997614039148,-0.03077643789796721,56.25,21.75,23.1
-1021.48437,-28.80859,-158.20312,0.05462479133014293,-0.00559570011481902,-0.03623896939085906,1.8,23.4,30.45,-58.59375,85.9375,1033.20313,0.034107224242473186,0.1637412053685016,0.09832469420742734,72.15,10.05,86.55,-822.75391,-52.24609,579.58984,-0.057689065897869374,0.07194491522815906,-0.06808110533009401,57.0,22.2,24.15
-1022.46094,-39.55078,-158.20312,0.0361056262360067,0.04556513624889076,-0.026246610357341126,1.5,21.9,30.9,-125.0,102.05078,1026.36719,-0.017586461141870464,0.20037985515806736,0.055690663904335864,72.15,10.05,86.55,-815.42969,-42.48047,584.96094,-0.03490658503988659,0.07141189167459998,-0.02011788668896304,57.0,22.2,24.15
-1010.25391,-29.78516,-166.99219,0.017320123898016127,0.02224963183734891,-0.009192998236104533,1.5,21.9,30.9,-119.62891,86.42578,1012.20703,0.012390441425758144,0.1994471512058016,0.022649312236055614,72.45,9.75,88.35,-814.94141,-56.64063,600.58594,0.002664594169019743,0.0190520141147701,-0.03450690464117989,56.55,22.2,23.55
-1003.90625,-50.78125,-144.53125,0.017586461141870464,0.02744565155346123,0.008659974682545464,2.7,23.7,31.05,-125.97656,104.98047,977.05078,0.07194491522815906,0.22662629098248332,0.060487003221741484,72.45,9.75,88.35,-821.28906,-50.29297,590.33203,-0.03224199087086685,0.03210864771601448,-0.04716385784371757,56.55,22.2,23.55
-1009.76562,-45.41016,-147.46094,0.07287744464749962,-0.03264167126957355,0.04303371070179819,2.7,23.7,31.05,-129.39453,125.97656,980.46875,0.05395859915465669,0.1845252842329509,0.08926486459324998,72.45,9.75,88.35,-825.68359,-41.99219,580.07812,-0.02224963183734891,0.01252378458061051,-0.0664823837352672,57.45,22.35,22.95
-1020.99609,-31.73828,-146.48437,0.0676814249313873,-0.02011788668896304,-0.011457912006417574,2.25,22.65,30.45,-111.81641,121.58203,972.65625,0.04103530870826468,0.14002602055825306,0.10805054146416575,72.45,9.75,88.35,-822.75391,-53.22266,558.10547,0.022516143614128445,0.012923464979317213,-0.08260329190423803,57.45,22.35,22.95
-1020.01953,-32.22656,-144.04297,0.055290983505629165,-0.06435063858688132,0.03290818304635308,2.25,22.65,30.45,-123.53516,121.09375,964.84375,0.033973881087620825,0.09819135105257498,0.07274427602557246,72.3,10.35,86.25,-822.26562,-49.80469,537.59766,0.0486294108166172,0.09259565093775597,-0.03370754384376649,57.15,19.35,24.75
-1007.32422,-9.76562,-147.94922,0.04343339110050489,0.02038439846574257,-0.02558041818185489,1.5,23.1,31.2,-125.97656,118.65234,985.83984,0.039969436134071744,0.05662319332367644,0.09605978043711431,72.3,10.35,86.25,-813.96484,-53.22266,562.5,0.04516545585018406,0.07407648584361974,-0.09499390786292138,57.15,19.35,24.75
-1016.11328,-5.37109,-145.99609,0.020650910242522108,-0.009459335479958867,-0.05742272865401504,1.5,23.1,31.2,-97.16797,128.41797,1001.95312,0.022649312236055614,0.04982845201273731,0.11058196701125833,72.9,9.75,86.85,-835.9375,-73.24219,568.35937,0.053558918755949994,0.07847314476231865,-0.09792501380872065,57.6,19.95,24.15
-982.42187,-9.27734,-141.11328,0.02051756708766974,-0.00039968039870670147,-0.021316927885083145,1.5,23.1,31.2,-93.26172,119.62891,1015.13672,0.04076879693148514,0.0567565364785288,0.04343339110050489,72.9,9.75,86.85,-814.45312,-61.52344,566.89453,0.013189976756096747,0.017320123898016127,-0.08580090962681684,57.6,19.95,24.15
-994.14062,-17.08984,-145.01953,0.030909606519894377,-0.03104294967474674,0.008260294283838763,1.5,23.1,31.2,-124.02344,110.35156,1017.57812,0.06941348968106648,0.045032112695331694,0.04063545377663278,72.6,9.9,86.25,-825.68359,-88.37891,558.10547,-0.02145027103993551,0.03264167126957355,-0.1474869540446784,57.6,21.75,23.85
-990.72266,-15.625,-155.76172,-0.005062851094185151,-0.025047394628295826,0.06981317007977318,2.55,23.4,30.9,-132.32422,92.77344,1008.30078,0.03783769098568587,-0.0011990411961201044,0.05116083636370978,72.6,9.9,86.25,-826.66016,-108.88672,570.80078,-0.013989337553510148,0.07114555443074566,-0.10685150026804564,57.6,21.75,23.85
-1004.39453,-2.44141,-154.78516,0.025846929958634426,-0.008127125661911596,0.03903673218180597,2.55,23.4,30.9,-145.01953,90.33203,990.72266,0.009592678634811233,0.04609798526952463,0.05089432458693025,72.6,9.9,86.25,-833.98437,-109.86328,562.98828,0.017320123898016127,0.05808874629657607,-0.1540153581117632,57.6,21.75,23.85
-1008.30078,6.83594,-167.96875,-0.018385996472209065,0.04290054207987102,-0.004263315763846549,0.45,22.65,30.45,-147.94922,88.86719,998.53516,-0.0029311059457992773,0.0029311059457992773,0.0377045223637587,73.95,9.0,86.85,-835.9375,-102.05078,559.57031,-0.05089432458693025,0.08380250763328333,-0.16094326804462952,57.6,21.75,23.85
-1018.06641,-21.97266,-157.22656,-0.010392039432224637,0.05622351292496973,0.009059655081252166,0.45,22.65,30.45,-135.74219,100.58594,987.30469,0.0014655529728996386,0.10485292374158693,0.028777861371508503,73.95,9.0,86.85,-835.44922,-91.79688,547.85156,-0.08127108208619076,0.06035383459981431,-0.17173498787556082,57.6,20.7,22.8
-1028.80859,0.0,-159.66797,-0.06994633870170035,0.018785676870915768,-0.00186523337160634,2.55,23.4,30.9,-137.20703,93.75,983.88672,0.01305663360124438,0.026779459377974997,0.04183466950567808,72.15,10.05,86.55,-821.28906,-106.44531,534.17969,-0.07567538197137175,0.04476577545147736,-0.24487894429984003,57.6,20.7,22.8
-1016.11328,-16.11328,-152.34375,-0.02931088492506757,0.00039968039870670147,-0.015321547371557422,2.55,23.4,30.9,-129.88281,90.33203,974.60937,0.05835525807335561,0.04396624012113876,0.014522186574144018,72.15,10.05,86.55,-820.80078,-94.23828,549.31641,-0.06421746996495417,0.028777861371508503,-0.2384838833876076,57.3,20.25,24.6
-1009.76562,-22.46094,-156.25,-0.03903673218180597,0.05662319332367644,0.016120908168970823,1.65,21.75,30.0,-127.92969,88.37891,980.46875,0.08100457030941122,0.05968764242432808,-0.020251229843815406,71.25,9.9,86.7,-825.19531,-102.05078,540.03906,-0.032375159492794015,0.015987739547043658,-0.1849249646316576,57.3,20.25,24.6
-1023.4375,-34.66797,-152.83203,-0.02558041818185489,0.011324568851565207,0.05782240905272174,1.65,21.75,30.0,-110.83984,84.47266,980.95703,0.04649766566823133,0.08220361150553133,0.0041301471419193814,71.25,9.9,86.7,-836.42578,-98.14453,567.87109,-0.06115319539722772,0.05515781488370199,-0.28991123152809695,57.45,20.85,22.95
-1027.34375,-36.13281,-150.39062,-0.12470447318669564,0.057689065897869374,-0.003463954966433146,1.65,21.75,30.0,-104.98047,84.47266,1005.85937,0.04942877161403061,0.096459460835821,-0.03677181841149293,71.25,9.9,86.7,-827.63672,-83.98438,574.70703,-0.013855994398657782,0.05702304825530834,-0.2988377179874219,57.45,20.85,22.95
-1015.13672,-38.57422,-143.06641,-0.07754061534297808,0.05982081104625525,-0.06315159739076123,1.65,21.75,30.0,-112.30469,91.30859,997.07031,0.031309286918601076,0.07527570157266503,-0.034773416417959425,71.25,9.9,86.7,-838.37891,-89.35547,566.89453,0.010791719830931338,0.05902145024884184,-0.28018520973843325,56.25,20.7,23.85
-1025.87891,-31.25,-132.8125,-0.07580855059329891,0.04290054207987102,-0.05382543053272952,2.4,23.25,30.3,-111.32813,88.86719,996.09375,0.08340282723457662,0.04649766566823133,-0.06075351499852101,72.6,9.9,86.7,-850.09766,-65.42969,552.24609,0.0275788201753884,0.019185357269622467,-0.2713920664339607,56.25,20.7,23.85
-1002.44141,-29.78516,-135.74219,-0.0579555776746489,0.019451694513476805,0.03623896939085906,2.4,23.25,30.3,-100.58594,97.16797,1026.85547,0.0454317930940384,0.009459335479958867,-0.0046631706954784495,72.6,9.9,86.7,-847.16797,-76.17188,572.26562,0.04929560299210344,0.04756353824242427,-0.27259110763008076,56.25,20.7,23.85
-1002.92969,-32.22656,-146.97266,-0.0722112524720134,0.03024341434440814,0.009859190411590769,1.05,23.7,31.35,-93.75,88.37891,1033.20313,0.061819213039788753,0.051960197161123184,0.004396658918698916,72.45,9.3,85.05,-846.19141,-77.14844,566.89453,0.0291777163031404,0.09073041756614963,-0.2736569802042737,57.45,20.85,23.25
-993.16406,-58.10547,-131.34766,-0.0381042027624654,0.045032112695331694,0.052226708937902724,1.05,23.7,31.35,-91.30859,73.24219,1046.875,0.042634030303091486,0.011990761027051442,-0.002664594169019743,72.45,9.3,85.05,-841.30859,-55.66406,595.70312,-0.012257272803830977,0.04996179516758968,-0.25433845431272406,57.45,20.85,23.25
-985.35156,-53.71094,-127.44141,-0.07580855059329891,0.057689065897869374,-0.05022813241144401,2.25,24.15,30.15,-86.42578,64.94141,1045.41016,0.04210100674953242,0.035039753661813756,0.01065855120900417,72.3,9.9,87.75,-839.84375,-62.01172,594.23828,-0.05062781281015071,0.045698304870817934,-0.26219906819785616,57.3,20.25,23.1
-996.58203,-51.26953,-127.92969,-0.05822208945142844,0.09912405500484074,-0.04449926367469782,2.25,24.15,30.15,-88.37891,50.78125,1018.55469,0.014389017952216851,0.005728868736746187,0.06355127778946792,72.3,9.9,87.75,-831.54297,-41.99219,591.79687,-0.07820680751846432,0.0652833425391471,-0.2368851617927808,57.3,20.25,23.1
-1000.0,-48.82813,-137.69531,-0.09712565301130725,0.08819916655198225,-0.029577396701847107,1.5,23.85,30.45,-78.125,52.73438,1014.16016,-0.00279793732387211,-0.0069280844657914915,-0.01678710034445706,72.3,9.9,87.75,-826.66016,-49.80469,582.51953,-0.011591080628344743,0.05862176985013514,-0.2391500755630938,57.3,20.25,23.1
-998.53516,-51.26953,-126.46484,-0.012656953202537678,0.04183466950567808,-0.032375159492794015,1.5,23.85,30.45,-88.37891,68.84766,1017.57812,-0.06128636401915488,0.012790121824464847,-0.005196019716112318,72.3,9.9,87.75,-828.125,-18.55469,567.38281,-0.02891120452636087,0.04076879693148514,-0.203577298347721,57.3,20.25,23.1
-1004.39453,-30.27344,-127.92969,-0.06621587195848767,0.07754061534297808,0.013456313999951081,1.5,23.85,30.45,-89.35547,50.78125,1001.95312,-0.14082538135566647,-0.022649312236055614,-0.013189976756096747,70.65,9.75,85.8,-825.68359,-11.23047,582.51953,-0.06475031898558803,0.06301842876883405,-0.1991806394290221,57.6,20.7,23.55
-989.74609,-33.20313,-131.34766,-0.06421746996495417,0.06834761710687355,0.0632847660126884,1.5,23.85,30.45,-172.85156,53.71094,979.00391,-0.14828631484209184,-0.07301078780235198,0.02558041818185489,70.65,9.75,85.8,-819.82422,-23.92578,574.21875,0.0002665117767795341,-0.005062851094185151,-0.17693100759167316,57.6,20.7,23.55
-995.11719,-27.34375,-134.27734,-0.13149921449763477,0.07061253087718658,0.017586461141870464,1.5,23.85,30.45,-129.39453,32.71484,972.65625,-0.09339518626809457,-0.20331096110386668,-0.002131745148385874,71.7,10.8,85.05,-811.03516,-20.50781,582.51953,-0.024514545607661954,0.02038439846574257,-0.18186069006393116,57.0,20.25,24.15
-996.58203,-39.55078,-140.625,-0.05315923835724329,0.06315159739076123,0.04796321864113097,1.65,22.5,30.6,-60.54688,25.87891,1000.48828,-0.07194491522815906,-0.08686678220100978,-0.025047394628295826,71.7,10.8,85.05,-816.89453,-25.87891,587.89062,0.0182526533173567,0.06554985431592662,-0.20757427686771318,57.0,20.25,24.15
-996.58203,-32.71484,-148.92578,-0.0656830229378538,0.0831363154577971,0.1406922127337393,1.65,22.5,30.6,-111.32813,49.31641,1002.92969,-0.03663864978956576,-0.017320123898016127,0.00013316862192716734,72.0,11.1,85.95,-843.26172,-2.92969,594.72656,-0.0009327039522657697,0.0454317930940384,-0.162275652395602,57.0,20.25,23.1
-1003.41797,-37.59766,-151.36719,-0.04942877161403061,0.04649766566823133,0.09512707648484854,2.25,22.35,29.4,-124.02344,25.39063,997.07031,-0.011324568851565207,-0.0454317930940384,-0.03490658503988659,72.0,11.1,85.95,-841.79687,-15.625,604.49219,0.021583439661862675,0.05342575013402282,-0.1728008604497538,57.0,20.25,23.1
-991.21094,-21.97266,-160.64453,-0.06195255619464112,0.030110245722480975,0.10538594729514601,2.25,22.35,29.4,-113.76953,22.94922,996.09375,0.009725847256738402,-0.025980098580561592,-0.07074587403203896,72.6,9.9,85.95,-853.51562,-19.53125,616.69922,-0.04036911653277844,0.056356856079822104,-0.11231385722801229,58.2,18.6,22.95
-971.19141,-35.64453,-145.50781,-0.09472739608614184,0.13696174599052663,0.05728938549916267,2.7,22.5,30.0,-127.44141,39.55078,977.05078,0.07967236049136395,-0.02558041818185489,-0.11870909267316991,72.6,9.9,85.95,-861.81641,-22.94922,607.42187,-0.01958503766832917,0.02424803383088242,-0.09432771568743514,58.2,18.6,22.95
-977.53906,-44.43359,-150.39062,-0.1017886491738605,0.11910877307187663,0.04609798526952463,2.7,22.5,30.0,-139.64844,64.45313,994.62891,0.1099157748357721,-0.0291777163031404,-0.0932618431132422,73.05,9.6,85.2,-861.32812,-18.06641,615.23437,-0.03210864771601448,0.008526806060618296,-0.11870909267316991,57.3,20.25,22.5
-964.35547,-52.73438,-152.34375,-0.09672579807967534,0.1204409828899239,0.04969528339081014,2.1,24.0,29.55,-125.97656,68.84766,1009.27734,0.12230621626153024,-0.029577396701847107,-0.10511943551836647,73.05,9.6,85.2,-852.05078,-28.80859,618.65234,0.013456313999951081,0.06275191699205453,-0.16360803674657445,57.3,20.25,22.5
-968.75,-44.92188,-156.25,-0.028777861371508503,0.08806582339712987,0.05542415212755633,2.1,24.0,29.55,-110.35156,83.98438,1042.48047,0.11790973187575651,-0.04836289903983767,-0.10911641403835869,73.2,9.75,86.1,-873.04687,-38.57422,646.97266,0.008526806060618296,0.05542415212755633,-0.07900616831587771,56.7,17.85,22.2
-974.12109,-30.76172,-167.96875,0.013855994398657782,0.1273690673557154,0.03903673218180597,2.1,24.0,29.55,-130.37109,104.00391,1048.33984,0.10765086106545904,-0.09712565301130725,-0.08513471745133061,73.2,9.75,86.1,-863.76953,-28.80859,646.97266,0.04982845201273731,0.0038636353651398474,-0.1277687477544221,56.7,17.85,22.2
-963.37891,-34.66797,-159.66797,0.0022649137703130416,0.12750223597764257,0.07101221127589329,2.1,24.0,29.55,-120.60547,104.98047,1060.54688,0.07434299762039927,-0.11617766712607734,-0.13403064004472734,73.2,9.75,86.1,-868.16406,-29.78516,662.10937,0.02238280045927608,0.020251229843815406,-0.094860564708069,56.7,17.85,22.2
-979.00391,-41.01563,-143.06641,-0.0369049870334201,0.1934517706922759,0.009459335479958867,0.15,23.4,29.85,-132.32422,88.37891,1053.71094,0.031975479094087315,-0.13696174599052663,-0.07194491522815906,73.2,9.75,86.1,-868.16406,-32.22656,664.55078,0.04250068714823912,-0.026646290756047828,-0.08699995082293695,56.7,17.85,22.2
-976.07422,-20.99609,-163.57422,-0.03317452029020742,0.20997235925995342,-0.017586461141870464,0.15,23.4,29.85,-93.26172,96.19141,1044.43359,0.03943641258051267,-0.18305973126005126,-0.0831363154577971,73.35,9.9,84.6,-852.05078,-33.20313,648.4375,0.06062017184366865,-0.034107224242473186,-0.10845022186287244,57.15,20.55,23.25
-962.89062,-20.01953,-162.10937,-0.06195255619464112,0.19718223743548857,0.0186523337160634,2.4,24.75,30.0,-93.26172,79.10156,1027.83203,0.006661572689011957,-0.17586530955040544,-0.0928621627145355,73.35,9.9,84.6,-840.33203,-51.26953,638.67187,0.05102749320885741,0.00746093348642536,-0.05089432458693025,57.15,20.55,23.25
-958.98437,-37.10938,-155.27344,0.003996978519992214,0.15041805999047772,0.03450690464117989,2.4,24.75,30.0,-81.05469,72.75391,1027.34375,-0.02571358680378206,-0.24860958557597787,-0.0738101485997654,71.4,11.25,85.05,-820.3125,-39.55078,635.74219,0.12510415358540233,-0.03743801058697916,-0.07767378396490525,57.15,20.55,24.0
-971.67969,-35.15625,-156.25,-0.0007993607974134029,0.11564464357251827,0.03304135166828025,3.0,24.6,30.15,-69.33594,67.87109,1048.33984,-0.00559570011481902,-0.20903982984061284,-0.08060488991070451,71.4,11.25,85.05,-820.3125,-38.08594,641.11328,0.1103154552344788,-0.06355127778946792,-0.004929507939332785,57.15,20.55,24.0
-970.70312,-26.36719,-149.90234,0.017053612121236593,0.1305666850782942,0.031708967317307775,3.0,24.6,30.15,-78.125,66.40625,1054.19922,-0.04330022247857772,-0.15774582485497587,-0.10631847671448658,71.4,9.3,85.5,-803.22266,-32.71484,640.13672,0.12310575159186884,-0.04636449704630416,-0.0466310088230837,57.15,20.55,24.0
-980.95703,-17.57813,-160.15625,-0.020251229843815406,0.1670719917130076,-0.061819213039788753,0.45,24.9,29.4,-71.28906,33.69141,1022.94922,-0.06301842876883405,-0.15774582485497587,-0.08193727426167699,71.4,9.3,85.5,-800.29297,-17.08984,653.32031,0.12070749466670343,-0.05902145024884184,0.04316687932372535,57.3,19.5,23.55
-986.32812,-29.29688,-163.08594,-0.01252378458061051,0.1934517706922759,-0.04942877161403061,0.45,24.9,29.4,-62.98828,41.01563,1006.83594,-0.05395859915465669,-0.2109050632122192,-0.08566774100488968,71.4,9.3,85.5,-795.41016,-36.13281,636.71875,0.11271371215964421,-0.0644839817417337,0.0275788201753884,57.3,19.5,23.55
-1005.37109,-20.01953,-160.15625,-0.010924888452858507,0.15374884633498367,-0.0025314255470925756,0.45,24.9,29.4,-62.98828,26.85547,1005.37109,-0.017852972918649995,-0.11884226129509709,-0.10032309620096086,71.4,9.3,85.5,-799.80469,-41.01563,614.25781,0.1545482071323971,-0.012390441425758144,0.017986141540577164,57.6,19.95,23.85
-1014.64844,-25.87891,-152.83203,-0.0041301471419193814,0.12750223597764257,-0.07194491522815906,0.45,24.9,29.4,-55.17578,54.19922,994.14062,-0.05062781281015071,-0.07634157414685798,-0.09179629014034256,71.4,9.3,85.5,-786.62109,-29.29688,630.37109,0.13602904203826086,-0.05515781488370199,-0.02731248293153406,57.6,19.95,23.85
-1007.32422,-33.69141,-169.43359,0.04183466950567808,0.06248540521527499,-0.010392039432224637,2.1,23.25,28.95,-51.75781,52.73438,990.23437,0.0031976177225788113,-0.05489130310692246,-0.0486294108166172,70.8,10.35,85.65,-790.52734,-9.27734,622.07031,0.15734614445626918,-0.002398082392240209,0.05382543053272952,57.9,20.1,21.9
-1005.37109,-28.32031,-165.52734,0.018385996472209065,0.05342575013402282,-0.04330022247857772,2.1,23.25,28.95,-54.6875,60.54688,987.79297,0.039969436134071744,-0.05169368538434365,-0.12323892021379601,70.8,10.35,85.65,-793.94531,-15.13672,616.69922,0.10432007472095307,-0.03623896939085906,0.039969436134071744,57.9,20.1,21.9
-1007.32422,-47.36328,-157.22656,0.017986141540577164,0.07580855059329891,0.0031976177225788113,1.35,22.5,29.25,-51.26953,83.00781,993.16406,0.06475031898558803,-0.03797085960761303,-0.11604432397122498,72.45,8.55,84.75,-794.92187,-25.39063,626.95312,0.09845786282935451,-0.01811948469542953,0.026379778979268294,57.0,18.45,23.55
-998.53516,-54.19922,-162.59766,0.004796339317405617,0.06155287579593442,-0.0190520141147701,1.35,22.5,29.25,-54.6875,101.07422,1013.67187,0.08806582339712987,-0.014655355196071187,-0.0632847660126884,72.45,8.55,84.75,-778.32031,-9.27734,633.78906,0.07114555443074566,-0.03117611829667391,-0.05169368538434365,57.0,18.45,23.55
-998.04687,-43.94531,-160.64453,-0.004529827540626083,0.06195255619464112,-0.02704597115475453,0.0,23.25,30.0,-50.78125,121.58203,992.1875,0.11324656118027807,-0.04649766566823133,-0.09006439992358858,72.45,10.05,84.0,-793.94531,-21.48438,614.25781,0.09006439992358858,0.004796339317405617,-0.010525208054151804,57.0,18.45,23.55
-1003.90625,-38.57422,-166.50391,0.009059655081252166,0.053292581512095656,-0.05249304618175705,0.0,23.25,30.0,-49.31641,126.95313,1039.55078,0.05662319332367644,-0.039569755735365045,-0.07780712711975761,72.45,10.05,84.0,-787.59766,-33.69141,600.58594,0.0754088701945922,0.019851374912183504,-0.04889592259339674,57.0,18.45,23.55
-1015.13672,-33.20313,-170.89844,0.035839288992152364,0.0454317930940384,0.04596481664759746,1.8,23.4,30.15,-36.62109,147.94922,1041.99219,0.04596481664759746,-0.002398082392240209,-0.10365388254546684,72.45,10.05,84.0,-793.94531,-29.78516,596.67969,0.07301078780235198,0.0007993607974134029,-0.017186780743163762,57.15,18.3,22.65
-1012.20703,-40.52734,-147.94922,0.07953901733651159,-0.007727445263204894,0.016120908168970823,1.8,23.4,30.15,-33.69141,154.29687,1015.13672,0.04463243229662499,0.019451694513476805,-0.00279793732387211,72.45,10.05,84.0,-792.96875,-12.69531,607.91016,0.07647474276878514,0.0009327039522657697,-0.04210100674953242,57.15,18.3,22.65
-1012.69531,-30.27344,-153.80859,0.034107224242473186,-0.016920443499309427,-0.002664594169019743,1.8,23.4,30.15,-55.66406,136.71875,994.62891,0.017852972918649995,-0.015055210127703087,-0.02198312006056938,72.0,10.35,87.0,-792.48047,-18.55469,617.67578,0.056356856079822104,0.02704597115475453,-0.04276719892501865,57.15,18.3,22.65
-995.11719,-46.38672,-146.97266,0.017453292519943295,-0.007860613885132062,-0.023182161256689485,1.8,23.4,30.15,-60.05859,137.20703,998.53516,-0.04889592259339674,-0.03623896939085906,-0.058488601228207975,72.0,10.35,87.0,-795.89844,-17.08984,615.23437,0.0571562168772355,0.01358965715480345,-0.07127872305267281,57.15,18.3,22.65
-989.25781,-39.0625,-150.87891,0.04303371070179819,-0.025047394628295826,-0.020650910242522108,0.75,23.4,29.4,-66.40625,123.04688,994.14062,-0.038903563559878805,-0.0361056262360067,-0.004263315763846549,71.4,10.5,86.85,-796.38672,-43.45703,604.00391,0.05609034430304257,-0.014255674797364485,-0.0275788201753884,57.3,19.5,22.8
-975.58594,-30.27344,-149.90234,0.02851152412765417,-0.01358965715480345,-0.05076115596500308,0.75,23.4,29.4,-45.89844,108.88672,1011.23047,-0.015454890526409788,-0.06075351499852101,-0.025047394628295826,71.4,10.5,86.85,-796.875,-28.32031,621.09375,0.04969528339081014,-0.030376757499260505,-0.008926486459324997,57.3,19.5,22.8
-974.60937,-35.64453,-145.01953,0.060087322823034785,-0.06901380928235978,0.01358965715480345,1.05,22.95,29.25,-33.69141,102.05078,1015.625,-0.01119140022963804,-0.06461715036366086,-0.0377045223637587,71.4,10.5,86.85,-797.36328,-22.94922,627.92969,0.007993957039984428,0.02198312006056938,0.01065855120900417,56.7,19.35,23.25
-979.49219,-48.82813,-154.29687,0.06621587195848767,-0.06968000145784602,-0.02011788668896304,1.05,22.95,29.25,-86.91406,90.82031,1048.33984,-0.07594189374815126,-0.11404592197769146,0.0365053066347134,71.4,10.5,86.85,-815.42969,-36.13281,624.02344,0.03557277721537283,-0.01358965715480345,-0.005329188338039486,56.7,19.35,23.25
-962.40234,-36.62109,-132.8125,0.03450690464117989,-0.04889592259339674,-0.013722825776730615,0.15,23.1,29.1,-66.89453,88.86719,1034.17969,-0.026912627999902163,-0.11950845347058334,0.012390441425758144,71.4,9.75,86.85,-803.71094,-51.75781,633.78906,0.027845331952167932,0.009459335479958867,-0.04596481664759746,57.9,20.85,23.25
-972.65625,-36.13281,-123.04688,0.006661572689011957,-0.04396624012113876,-0.08167076248489745,0.15,23.1,29.1,-67.87109,66.89453,1022.46094,-0.017852972918649995,-0.114312433754471,-0.013855994398657782,71.4,9.75,86.85,-805.66406,-40.52734,636.71875,0.0466310088230837,0.006128723668378088,-0.026779459377974997,57.9,20.85,23.25
-953.61328,-36.62109,-144.04297,0.01119140022963804,-0.013722825776730615,-0.06341810916754076,1.2,22.65,30.45,-54.19922,63.96484,1013.18359,0.025447249559927724,-0.07154523482945235,0.01958503766832917,72.45,9.3,85.05,-810.54687,-43.94531,629.39453,0.077007591789419,0.04330022247857772,-0.02464771422958912,57.15,19.35,22.95
-950.19531,-29.78516,-130.85937,-0.0006661921754862356,0.024914226006368657,-0.037171498810199634,1.2,22.65,30.45,-69.82422,69.33594,1015.625,-0.01771980429672283,-0.0575558972759422,-0.029710565323774273,72.45,9.3,85.05,-802.24609,-45.89844,604.49219,0.1192419416938038,0.09872437460613405,-0.04716385784371757,57.15,19.35,22.95
-975.09766,-15.625,-131.34766,0.0275788201753884,-0.06155287579593442,-0.005995380513525721,1.2,22.65,30.45,-67.38281,61.52344,1020.01953,-0.001065872574192937,-0.055290983505629165,-0.05395859915465669,72.3,9.6,84.9,-799.80469,-39.0625,608.88672,0.10365388254546684,0.056356856079822104,-0.01119140022963804,57.15,19.35,22.95
-978.51562,-37.59766,-142.08984,0.022649312236055614,-0.016520588567677526,0.02851152412765417,1.2,22.65,30.45,-70.80078,73.73047,1024.90234,0.04250068714823912,-0.0652833425391471,-0.01065855120900417,72.3,9.6,84.9,-815.91797,-41.50391,629.39453,0.10245484134934674,0.06968000145784602,-0.011324568851565207,57.15,19.35,22.95
-988.28125,-33.69141,-137.69531,0.05275955795853659,-0.056356856079822104,0.029977077100553806,1.2,22.65,30.45,-81.54297,72.26563,1001.95312,0.021716608283789844,-0.057689065897869374,-0.025447249559927724,72.3,9.6,84.9,-812.5,-51.75781,630.37109,0.1021883295725672,0.051560516762416485,-0.013189976756096747,57.15,19.35,22.95
-986.81641,-24.90234,-144.53125,-0.02145027103993551,0.01811948469542953,-0.01585457092511649,0.0,24.3,28.5,-83.98438,78.61328,1009.76562,0.03663864978956576,-0.0385038831611721,-0.04076879693148514,72.3,9.6,84.9,-808.59375,-66.40625,635.74219,0.0750091897958855,0.0291777163031404,-0.015987739547043658,57.45,19.8,22.95
-976.07422,-31.73828,-138.67187,-0.031442630073453444,-0.005062851094185151,-0.027845331952167932,0.0,24.3,28.5,-67.38281,97.65625,1005.37109,0.03703833018827246,-0.07207808385008622,-0.08127108208619076,72.15,9.0,86.1,-811.52344,-48.33984,610.35156,0.08127108208619076,0.07993869773521828,0.015321547371557422,57.45,19.8,22.95
-976.5625,-35.64453,-143.06641,-0.025980098580561592,0.004396658918698916,-0.006794741310939124,0.3,24.0,28.95,-79.58984,89.84375,1022.46094,0.058488601228207975,-0.05782240905272174,-0.012257272803830977,72.15,9.0,86.1,-819.33594,-48.82813,609.375,0.13576270479440652,0.031309286918601076,-0.016520588567677526,57.45,19.8,22.95
-978.51562,-48.82813,-147.46094,0.005728868736746187,-0.004929507939332785,0.013855994398657782,0.3,24.0,28.95,-69.33594,84.47266,996.58203,0.0385038831611721,-0.09152977836356303,-0.07007968185655272,71.25,9.15,85.2,-825.19531,-35.15625,622.55859,0.132165406673121,0.005062851094185151,-0.03344103206698695,57.45,19.8,22.95
-993.65234,-47.36328,-150.87891,0.015721227770264124,-0.020251229843815406,-0.03344103206698695,0.75,22.65,29.85,-66.89453,104.98047,1010.74219,0.05449162270821576,-0.10418690609902591,-0.05982081104625525,71.25,9.15,85.2,-827.14844,-43.45703,610.35156,0.11950845347058334,0.031575798695380616,-0.02278248085798278,56.4,20.1,24.0
-979.00391,-31.25,-145.99609,0.019984718067035872,0.01771980429672283,-0.021183759263155976,0.75,22.65,29.85,-64.45313,117.1875,1011.23047,0.012790121824464847,-0.12230621626153024,-0.02011788668896304,72.3,9.9,87.0,-840.33203,-44.43359,607.91016,0.16427405438913548,0.04423275189791829,0.019851374912183504,56.4,20.1,24.0
-1008.78906,-41.50391,-160.15625,-0.001065872574192937,-0.0058622118915985545,0.026379778979268294,2.1,23.7,28.95,-69.82422,119.14063,1011.23047,-0.006794741310939124,-0.1135130729570576,-0.01585457092511649,72.3,9.9,87.0,-832.51953,-42.48047,604.98047,0.10591879631577987,-0.008526806060618296,0.021183759263155976,58.2,18.6,23.7
-1007.8125,-41.01563,-158.20312,-0.0186523337160634,-0.012923464979317213,-0.035173096816666125,2.1,23.7,28.95,-72.26563,91.30859,1013.67187,-0.01958503766832917,-0.11044862385640596,0.01025887081029747,72.3,9.9,87.0,-827.14844,-38.57422,632.32422,0.13189889489634146,-0.002131745148385874,0.009059655081252166,58.2,18.6,23.7
-1001.46484,-39.55078,-164.55078,-0.014255674797364485,-0.02198312006056938,-0.005462531492891852,2.1,23.7,28.95,-87.40234,120.60547,1009.27734,-0.0007993607974134029,-0.11404592197769146,-0.03663864978956576,72.3,9.9,87.0,-833.98437,-36.62109,625.97656,0.12856810855183548,-0.028111843728947466,-0.04489894407340452,57.0,19.2,21.75
-995.60547,-34.17969,-151.36719,-0.04223434990438478,-0.004929507939332785,-0.007860613885132062,2.1,23.7,28.95,-80.56641,118.65234,1022.46094,-0.019185357269622467,-0.09179629014034256,0.016920443499309427,70.5,9.9,87.0,-854.98047,-33.20313,662.10937,0.07154523482945235,0.002664594169019743,-0.02944405354699474,57.0,19.2,21.75
-1009.27734,-26.85547,-150.39062,-0.03877022040502644,-0.025447249559927724,0.09712565301130725,0.0,22.95,30.0,-79.10156,97.65625,1025.87891,-0.0373046674321268,-0.09739199025516157,-0.020784078864449274,70.5,10.35,87.0,-838.86719,-48.82813,671.38672,0.08673361357908262,-0.021583439661862675,0.04223434990438478,57.15,20.55,24.0
-984.375,-28.32031,-151.85547,-0.0069280844657914915,-0.05249304618175705,0.0664823837352672,0.0,22.95,30.0,-68.84766,87.40234,1030.27344,0.019984718067035872,-0.11711019654541792,0.005995380513525721,70.5,10.35,87.0,-854.49219,-44.92188,660.64453,0.05515781488370199,-0.07674125454556469,-0.04449926367469782,57.15,20.55,24.0
-995.11719,-20.50781,-146.97266,0.016120908168970823,-0.05062781281015071,0.0486294108166172,1.5,23.85,29.85,-70.3125,75.68359,1026.36719,-0.026912627999902163,-0.1374945950111605,0.019984718067035872,73.2,9.0,86.85,-847.16797,-56.64063,664.55078,0.11164783958545127,-0.03637213801278623,-0.04250068714823912,57.15,20.55,24.0
-990.23437,-17.08984,-139.64844,-0.03863705178309927,0.019718206290256335,-0.0011990411961201044,1.5,23.85,29.85,-68.35938,80.07813,1041.01563,-0.015454890526409788,-0.14202442255178657,-0.023981696587028086,73.2,9.0,86.85,-833.00781,-65.91797,627.44141,0.14029253233503258,-0.045698304870817934,0.0007993607974134029,57.15,20.55,24.0
-974.12109,-20.99609,-137.20703,-0.028111843728947466,0.012257272803830977,0.012257272803830977,1.35,23.7,30.0,-61.52344,112.79297,1019.04297,-0.03344103206698695,-0.16773818388849382,0.008260294283838763,73.2,9.0,86.85,-832.51953,-65.91797,645.50781,0.18998781572584275,-0.06421746996495417,-0.0002665117767795341,56.55,18.75,23.1
-987.79297,-0.97656,-147.94922,-0.047430369620497105,-0.02145027103993551,-0.007194421709645826,1.35,23.7,30.0,-42.48047,103.02734,1010.25391,-0.06901380928235978,-0.19251906674001013,0.002664594169019743,73.2,9.0,86.85,-836.42578,-69.33594,669.92187,0.23488675979924725,-0.07940584871458442,0.008926486459324997,56.55,18.75,23.1
-989.74609,-5.85937,-146.48437,-0.07087904265396612,-0.02411486520895525,-0.0069280844657914915,0.45,22.65,29.4,-61.52344,93.26172,987.30469,-0.027845331952167932,-0.2478100502456393,-0.03024341434440814,71.7,9.75,85.8,-833.98437,-76.66016,672.36328,0.25273973271789724,-0.06581619155978097,-0.003996978519992214,56.55,18.75,23.1
-991.21094,6.83594,-138.18359,-0.04210100674953242,-0.02851152412765417,0.10831705324094529,0.45,22.65,29.4,-48.82813,97.16797,1009.27734,0.004396658918698916,-0.2700596820829882,-0.06421746996495417,71.7,9.75,85.8,-839.35547,-87.40234,653.32031,0.25207354054241105,-0.07367680544491303,0.01492186697285072,56.55,18.75,23.1
-974.12109,-11.23047,-139.16016,-0.05662319332367644,-0.05782240905272174,0.10458658649773261,0.45,22.65,29.4,-39.0625,112.79297,1007.32422,0.01119140022963804,-0.29750533363644943,-0.06941348968106648,71.4,9.0,85.5,-801.26953,-77.14844,639.64844,0.2380842029889009,-0.13043334192344183,-0.005329188338039486,57.0,19.2,22.05
-984.86328,-28.32031,-139.16016,-0.053292581512095656,-0.0486294108166172,0.03264167126957355,0.45,22.65,29.4,-30.27344,115.72266,1028.32031,-0.04063545377663278,-0.2999035905616148,-0.040901965553412314,71.4,9.0,85.5,-785.15625,-69.33594,598.14453,0.221430271266371,-0.11830941227446322,0.023981696587028086,57.0,19.2,22.05
-983.39844,-13.67187,-133.78906,-0.1434899755246862,-0.032375159492794015,0.008926486459324997,1.5,24.15,30.15,-9.76562,130.85937,1036.62109,-0.06301842876883405,-0.32615002638603074,-0.03424039286440035,72.0,9.15,86.7,-773.92578,-63.96484,565.91797,0.1496186991930643,-0.11577798672737065,0.002664594169019743,57.45,19.05,23.25
-974.60937,-32.71484,-137.69531,-0.16001073862528895,-0.04383307149921159,-0.020784078864449274,1.5,24.15,30.15,-28.32031,126.95313,1042.48047,-0.04489894407340452,-0.28178410586618535,-0.06248540521527499,72.0,9.15,86.7,-755.85937,-78.125,553.71094,0.10911641403835869,-0.10671815711319327,-0.018918845492842937,57.45,19.05,23.25
-997.07031,-36.62109,-141.11328,-0.1442895108550248,-0.0015987215948268059,-0.023848353432175718,1.05,24.0,28.5,-35.15625,146.48437,1022.46094,-0.08286980368101757,-0.2530060699617516,0.02224963183734891,72.0,9.15,86.7,-769.04297,-83.49609,565.91797,0.057689065897869374,-0.06581619155978097,-0.038903563559878805,57.45,19.05,23.25
-991.21094,-37.10938,-129.39453,-0.04449926367469782,-0.06195255619464112,0.003463954966433146,1.05,24.0,28.5,-12.69531,139.16016,997.07031,-0.15854518565238931,-0.2647304937449487,-0.004529827540626083,72.0,9.15,86.7,-769.04297,-112.79297,563.96484,0.06728174453268061,-0.0063950609122324234,-0.019984718067035872,58.5,20.55,22.95
-994.14062,-26.36719,-120.11719,-0.08833233517390941,-0.06794793670816685,0.04063545377663278,0.75,24.15,30.45,-29.29688,108.39844,1004.88281,-0.11817606911961086,-0.2715252350558878,0.00746093348642536,71.1,8.55,87.15,-778.32031,-119.14063,575.68359,0.03344103206698695,-0.017852972918649995,-0.08127108208619076,58.5,20.55,22.95
-975.09766,-20.50781,-128.41797,-0.030110245722480975,-0.06075351499852101,0.030643269276040042,0.75,24.15,30.45,-42.48047,102.05078,985.35156,-0.16254216417238151,-0.34307046988534023,0.007993957039984428,71.1,8.55,87.15,-773.4375,-105.95703,600.09766,0.021316927885083145,-0.00039968039870670147,-0.077007591789419,56.25,19.2,22.8
-965.82031,-9.27734,-136.23047,-0.09872437460613405,-0.04170132635082572,-0.094860564708069,1.5,23.85,30.45,-45.41016,80.56641,989.74609,-0.19824811000968148,-0.3850383080129455,0.019718206290256335,68.25,8.85,85.95,-795.89844,-120.60547,616.21094,0.010392039432224637,0.012257272803830977,-0.07820680751846432,56.25,19.2,22.8
-957.51953,-3.41797,-138.67187,-0.14948553057113714,-0.0369049870334201,-0.08273663505909039,1.5,23.85,30.45,-2.92969,66.89453,994.14062,-0.19678255703678188,-0.31549164970995175,0.019984718067035872,68.25,8.85,85.95,-785.15625,-119.62891,616.21094,-0.007327764864498192,-0.015588059148336955,-0.10791737284223858,56.25,19.2,22.8
-959.96094,0.48828,-138.18359,-0.15787899347690307,-0.013189976756096747,-0.05009496378951684,1.5,23.85,30.45,-40.52734,37.59766,1015.625,-0.23128946167796177,-0.2508744993462909,0.005462531492891852,70.65,8.25,87.6,-783.69141,-97.16797,594.23828,0.01212410418190381,0.008127125661911596,-0.12696938695700868,56.25,19.2,22.8
-946.77734,12.69531,-133.78906,-0.13509651261892028,-0.05968764242432808,-0.023182161256689485,1.5,23.85,30.45,-37.59766,15.13672,1039.0625,-0.2628652603733424,-0.25833543283271626,-0.006128723668378088,70.65,8.25,87.6,-764.64844,-91.79688,601.5625,0.047830050019203804,-0.009592678634811233,-0.10818371008609293,57.3,19.5,22.05
-947.75391,-1.46484,-146.48437,-0.14775346582145796,-0.0381042027624654,-0.023715184810248553,1.2,23.1,30.15,-29.78516,20.50781,1021.48437,-0.2848483804339117,-0.22329550463797732,0.04969528339081014,70.65,8.25,87.6,-765.625,-86.91406,599.60937,0.09086376072100198,0.047830050019203804,-0.1131133925583509,57.3,19.5,22.05
-966.30859,-19.04297,-143.06641,-0.15614692872722388,-0.035173096816666125,0.01958503766832917,1.2,23.1,30.15,-35.15625,3.90625,1027.83203,-0.3133599045615659,-0.1851914764084371,-0.005995380513525721,70.65,8.25,87.6,-782.22656,-91.79688,608.88672,0.11258036900479183,0.03943641258051267,-0.14002602055825306,57.3,19.5,22.05
-965.33203,-27.34375,-146.97266,-0.18132766651037208,-0.004796339317405617,0.009992359033517936,1.2,23.85,28.8,-47.85156,-19.53125,1015.625,-0.3490658503988659,-0.2031776179490143,0.002664594169019743,69.45,8.85,87.0,-788.57422,-67.38281,627.92969,0.09765850203194111,-0.011324568851565207,-0.10951609443706539,57.3,19.5,22.05
-972.65625,-37.59766,-163.08594,-0.21703361234767207,0.00039968039870670147,-0.031708967317307775,1.2,23.85,28.8,-39.0625,-17.08984,998.53516,-0.34027253256146806,-0.19331860207034873,-0.003463954966433146,69.45,8.85,87.0,-796.875,-74.21875,612.30469,0.0847350370526239,0.01678710034445706,-0.11364624157898477,57.15,18.6,23.25
-985.83984,-48.82813,-160.15625,-0.21023887103673294,0.034373736019252726,-0.021183759263155976,1.2,23.85,30.15,-47.36328,-19.53125,1000.48828,-0.2532725817385311,-0.20131238457740794,-0.014788698350923554,70.2,9.15,86.25,-799.31641,-54.6875,598.14453,0.1637412053685016,0.014122506175437317,-0.11937511031573096,57.15,18.6,23.25
-997.55859,-56.64063,-155.27344,-0.13403064004472734,-0.053292581512095656,0.032375159492794015,1.2,23.85,30.15,-46.875,-4.88281,992.67578,-0.18226037046263785,-0.11417909059961863,-0.09073041756614963,70.2,9.15,86.25,-814.45312,-35.64453,585.44922,0.13069985370022136,-0.016920443499309427,-0.07394331722169258,56.7,18.6,22.95
-987.79297,-67.38281,-166.01562,-0.14655442462533785,-0.04809656179598333,0.0652833425391471,1.8,24.9,30.15,-71.28906,20.01953,1013.18359,-0.15228329336208404,-0.1204409828899239,-0.05182702853919601,68.7,9.15,87.0,-823.24219,-45.89844,597.65625,0.15707963267948966,-0.007860613885132062,-0.0385038831611721,56.7,18.6,22.95
-985.35156,-80.56641,-158.20312,-0.13789427540986718,-0.05902145024884184,-0.028644692749581334,1.8,24.9,30.15,-56.15234,19.04297,997.55859,-0.10698466888997281,-0.1333644478692411,-0.04489894407340452,68.7,9.15,87.0,-821.77734,-25.87891,616.69922,0.14149157353115271,0.05622351292496973,-0.07274427602557246,57.45,19.8,23.25
-989.25781,-73.73047,-167.48047,-0.14175808530793224,0.0462311538914518,-0.02238280045927608,1.8,24.9,30.15,-54.6875,23.92578,1000.48828,-0.07434299762039927,-0.10352071392353968,-0.10738434928867951,69.6,8.25,86.85,-841.30859,-40.52734,627.44141,0.13149921449763477,-0.04383307149921159,-0.10685150026804564,57.45,19.8,23.25
-987.79297,-74.21875,-159.17969,-0.13003366152473514,0.03930324395858551,-0.07647474276878514,1.8,24.9,30.15,-48.82813,28.32031,1016.60156,0.08273663505909039,-0.15508123068595617,-0.15148393256467063,69.6,8.25,86.85,-836.91406,-30.76172,626.46484,0.18718987840197063,-0.01119140022963804,-0.08180393110682463,57.3,18.0,22.8
-996.09375,-76.66016,-165.03906,-0.094860564708069,0.014522186574144018,-0.04942877161403061,1.8,24.9,30.15,-43.45703,61.03516,993.65234,-0.0015987215948268059,-0.09113009796485633,-0.12803525953120162,71.4,10.05,87.15,-838.37891,-36.13281,604.00391,0.19691572565870902,0.025447249559927724,-0.07101221127589329,57.3,18.0,22.8
-987.30469,-78.125,-161.62109,-0.0466310088230837,-0.0033307863445059785,-0.07407648584361974,2.1,24.0,29.25,-28.80859,38.08594,1011.71875,-0.024781057384441488,-0.10312103352483297,-0.10205516095064003,71.4,10.05,87.15,-840.82031,-30.76172,607.91016,0.16240882101752913,0.030909606519894377,-0.04383307149921159,57.45,19.05,24.3
-983.88672,-65.42969,-164.0625,0.007194421709645826,-0.002131745148385874,-0.023182161256689485,2.1,24.0,29.25,-42.48047,29.29688,1036.13281,-0.05968764242432808,-0.11617766712607734,-0.16147629159818858,69.3,7.5,86.55,-832.51953,-32.22656,622.07031,0.17320054084846048,-0.013722825776730615,-0.06022049144496195,57.45,19.05,24.3
-994.14062,-57.61719,-158.69141,-0.01638741994575036,-0.02145027103993551,0.019451694513476805,2.25,24.15,29.4,-30.76172,29.78516,1040.03906,-0.0668820641339739,-0.11804290049768368,-0.1341638086666545,69.3,7.5,86.55,-821.28906,-17.08984,607.42187,0.18186069006393116,0.03663864978956576,-0.04250068714823912,56.1,19.8,22.2
-997.55859,-61.03516,-156.73828,-0.004529827540626083,-0.0033307863445059785,0.03250850264764638,2.25,24.15,29.4,-44.43359,32.22656,1034.66797,-0.06421746996495417,-0.10432007472095307,-0.15161710118659782,69.3,7.5,86.55,-825.68359,-5.37109,601.07422,0.12310575159186884,0.0283781809728018,0.011990761027051442,56.1,19.8,22.2
-1013.18359,-56.15234,-161.13281,-0.03490658503988659,0.038903563559878805,0.02411486520895525,1.8,22.65,29.4,-37.10938,26.85547,1051.75781,-0.10645181986933895,-0.08180393110682463,-0.13816078718664673,69.3,7.5,86.55,-811.03516,-9.27734,612.30469,0.1540153581117632,0.041301645952119014,-0.018385996472209065,56.1,19.8,22.2
-994.14062,-63.47656,-151.85547,-0.0030642745677264445,0.008127125661911596,-0.0025314255470925756,1.8,22.65,29.4,-42.48047,18.06641,1024.90234,-0.09952373540354745,-0.12337208883572316,-0.1309663654770009,69.3,7.5,86.55,-794.92187,0.0,615.72266,0.17053594667944072,0.0038636353651398474,-0.06728174453268061,56.1,19.8,22.2
-989.74609,-60.05859,-154.29687,0.005062851094185151,-0.005462531492891852,0.07141189167459998,1.5,24.15,30.45,-26.36719,37.59766,1012.69531,-0.06435063858688132,-0.09566010003840761,-0.13922665976083967,71.1,7.8,88.35,-805.66406,5.85937,607.91016,0.11804290049768368,-0.00039968039870670147,-0.0377045223637587,56.1,19.8,22.2
-991.21094,-42.48047,-152.83203,0.08047172128877735,-0.03863705178309927,0.02051756708766974,1.5,24.15,30.45,-36.62109,39.55078,1009.76562,-0.04396624012113876,-0.1216401986189692,-0.162275652395602,71.1,7.8,88.35,-797.36328,21.97266,596.19141,0.14002602055825306,0.03837054000631974,-0.023182161256689485,56.4,18.3,23.25
-986.81641,-58.10547,-141.11328,0.08167076248489745,-0.09952373540354745,0.030110245722480975,1.5,24.15,30.45,-43.45703,59.08203,1016.60156,-0.03317452029020742,-0.07047936225525941,-0.11178100820737844,69.3,9.0,86.55,-793.45703,22.94922,604.49219,0.14908567563950523,0.018385996472209065,-0.00559570011481902,56.4,18.3,23.25
-983.88672,-38.57422,-165.52734,0.04982845201273731,-0.07087904265396612,0.030909606519894377,1.5,24.15,30.45,-34.17969,44.43359,1004.39453,-0.060087322823034785,-0.10458658649773261,-0.05702304825530834,69.3,9.0,86.55,-789.55078,33.69141,616.69922,0.18825575097616357,0.04356655972243205,0.009992359033517936,57.6,18.45,22.5
-1013.18359,-39.0625,-160.15625,0.0676814249313873,-0.031575798695380616,0.02331550441154185,2.25,24.15,29.1,-54.19922,42.96875,1019.53125,-0.025047394628295826,-0.1212403436873373,-0.16507358971947408,69.6,9.0,86.85,-789.55078,41.50391,601.07422,0.18359258028068512,0.0017320647496791726,0.027845331952167932,57.6,18.45,22.5
-997.55859,-51.75781,-148.4375,0.025447249559927724,-0.010125527655445103,0.007194421709645826,2.25,24.15,29.1,-50.78125,48.82813,1014.64844,-0.0058622118915985545,-0.07207808385008622,-0.13243191844990054,69.6,9.0,86.85,-797.36328,42.48047,584.96094,0.16001073862528895,0.009459335479958867,0.0660827033365605,58.05,18.0,22.5
-1005.37109,-47.36328,-168.45703,0.07527570157266503,-0.0007993607974134029,-0.0093261668580317,1.8,24.15,29.85,-32.71484,58.10547,1020.99609,-0.0186523337160634,-0.05542415212755633,-0.09672579807967534,69.6,9.0,86.85,-794.92187,35.64453,589.35547,0.1434899755246862,0.05475795995207009,0.051560516762416485,58.05,18.0,22.5
-1005.37109,-62.01172,-165.03906,0.09685914123452771,-0.04196783812760525,-0.02051756708766974,1.8,24.15,29.85,-56.64063,51.26953,1008.78906,-0.021849951438642212,-0.04023577337792608,-0.10818371008609293,69.6,9.0,86.85,-791.01562,27.83203,590.33203,0.14122506175437316,0.04356655972243205,0.025047394628295826,57.0,19.2,23.1
-1006.34766,-68.84766,-154.78516,0.14255744610534563,-0.052626389336609423,-0.0466310088230837,1.2,24.15,30.45,-34.17969,58.59375,1003.41797,-0.03943641258051267,-0.013323145378023914,-0.08446852527584436,70.65,8.25,87.6,-798.33984,57.61719,564.45312,0.07394331722169258,0.07887282516102534,0.06022049144496195,57.0,19.2,23.1
-1020.99609,-64.94141,-177.24609,0.17093562707814744,-0.013722825776730615,-0.0275788201753884,1.2,24.15,30.45,-48.33984,54.19922,997.55859,-0.06168604441786158,-0.0381042027624654,-0.0571562168772355,70.65,8.25,87.6,-815.91797,52.24609,565.42969,0.060087322823034785,0.02744565155346123,0.077007591789419,57.45,19.05,22.95
-1017.08984,-65.42969,-160.15625,0.13163238311956194,0.026779459377974997,-0.08380250763328333,1.8,24.15,29.1,-46.875,59.57031,989.74609,-0.05022813241144401,-0.011457912006417574,-0.04356655972243205,68.85,8.25,88.35,-800.29297,44.43359,565.42969,0.06195255619464112,0.10085611975451993,0.07354363682298586,57.45,19.05,22.95
-1029.29688,-70.3125,-158.69141,0.15654678365885577,0.045032112695331694,-0.07940584871458442,1.8,24.15,29.1,-38.08594,59.08203,995.60547,-0.014255674797364485,0.015987739547043658,-0.00559570011481902,68.85,8.25,88.35,-815.91797,55.66406,569.82422,-0.012257272803830977,0.07833997614039148,0.07247776424879292,57.45,20.1,22.2
-1002.44141,-77.63672,-163.57422,0.11870909267316991,0.04916225983725108,-0.09672579807967534,1.8,24.15,29.1,-47.85156,43.94531,1001.95312,-0.06581619155978097,0.011857592405124276,-0.06195255619464112,69.75,7.65,87.0,-821.77734,58.59375,576.17187,-0.00746093348642536,0.06901380928235978,0.06022049144496195,57.45,20.1,22.2
-1014.16016,-62.01172,-176.26953,0.19211938634130343,-0.025980098580561592,-0.08167076248489745,1.8,24.15,29.1,-51.26953,56.64063,989.74609,0.008659974682545464,0.026246610357341126,0.0007993607974134029,69.75,7.65,87.0,-825.68359,46.875,575.68359,-0.05928796202562137,0.07660791139071231,0.07847314476231865,57.45,20.1,22.2
-1024.90234,-60.05859,-166.50391,0.21023887103673294,-0.005995380513525721,-0.051560516762416485,0.75,23.85,30.45,-50.78125,45.41016,998.53516,0.031442630073453444,0.0559571756811154,-0.02011788668896304,69.9,7.8,87.9,-822.75391,41.01563,565.42969,-0.04050228515470561,0.04449926367469782,0.04383307149921159,57.45,20.1,22.2
-1023.92578,-65.42969,-169.92187,0.25260638956304493,-0.04729702646564473,-0.08286980368101757,0.75,23.85,30.45,-60.05859,60.54688,986.32812,0.06501683076236757,0.018785676870915768,-0.04303371070179819,69.9,7.8,87.9,-840.82031,32.71484,561.03516,-0.019318525891549636,0.07820680751846432,0.12190653586282353,58.2,20.55,22.95
-1021.97266,-56.64063,-161.13281,0.16973658588202734,0.03384071246569365,-0.0847350370526239,1.65,23.7,29.55,-72.75391,72.75391,1002.44141,0.060087322823034785,0.05062781281015071,-0.03663864978956576,68.7,8.1,87.0,-844.23828,41.50391,560.54687,-0.0454317930940384,0.06901380928235978,0.08140425070811792,58.2,20.55,22.95
-1029.29688,-52.73438,-162.10937,0.15734614445626918,0.03543943406052046,-0.09859103145128169,1.65,23.7,29.55,-70.80078,80.56641,997.55859,0.053292581512095656,0.04942877161403061,-0.0283781809728018,68.7,8.1,87.0,-837.40234,33.69141,575.68359,-0.1107151356331855,0.03464007326310706,0.0058622118915985545,57.3,19.95,22.05
-1018.55469,-55.17578,-164.55078,0.18279321948327173,0.01492186697285072,-0.13403064004472734,2.1,23.7,29.25,-55.66406,71.77734,1002.44141,0.04383307149921159,0.08207044288360416,-0.029577396701847107,70.2,8.85,86.25,-836.91406,40.52734,573.73047,-0.11537830632866394,0.031442630073453444,0.06901380928235978,57.3,19.95,22.05
-1012.20703,-48.33984,-161.62109,0.1870567097800435,-0.04063545377663278,-0.0811377389313384,2.1,23.7,29.25,-74.21875,81.05469,991.69922,0.03450690464117989,0.11711019654541792,-0.014655355196071187,70.2,8.85,86.25,-838.86719,28.80859,566.89453,-0.13149921449763477,0.05782240905272174,0.04330022247857772,57.3,18.45,22.8
-1008.78906,-43.94531,-157.22656,0.1807948174897382,-0.045698304870817934,-0.07487602117395832,0.75,24.6,30.15,-74.21875,93.26172,999.02344,0.04036911653277844,0.08859884695068895,0.027712163330240767,70.2,8.85,86.25,-841.79687,18.55469,558.10547,-0.1496186991930643,0.05742272865401504,0.03823737138439257,57.3,18.45,22.8
-996.58203,-42.96875,-149.90234,0.2290245479076487,-0.0369049870334201,-0.06861412888365308,0.75,24.6,30.15,-28.32031,81.05469,1009.76562,0.0458314734927451,0.14801997759823748,0.024914226006368657,70.2,8.85,86.25,-845.21484,17.08984,576.17187,-0.1512174207878911,0.019718206290256335,0.08646710180230308,57.0,18.75,23.55
-988.76953,-64.94141,-143.06641,0.1111148160318922,0.011857592405124276,-0.10432007472095307,0.75,24.6,30.15,-43.94531,103.02734,1057.61719,0.09552675688355523,0.39996017498579617,0.0385038831611721,69.0,8.1,87.45,-839.84375,10.25391,602.05078,-0.15814550525368262,0.0652833425391471,0.08526806060618297,57.0,18.75,23.55
-977.05078,-54.6875,-158.69141,0.12057432604477626,0.04023577337792608,-0.14695410502404457,0.75,24.6,30.15,-116.69922,104.49219,1021.48437,0.07474267801910597,0.3003032709603215,0.004529827540626083,69.0,8.1,87.45,-842.28516,8.30078,598.63281,-0.21197093578641213,0.06395095818817463,0.028111843728947466,57.0,18.75,23.55
-965.82031,-44.92188,-156.25,0.09312867449131504,0.06968000145784602,-0.09299533133646266,1.65,24.75,29.25,-113.76953,86.42578,986.81641,0.07367680544491303,0.1958498530845161,0.034773416417959425,70.35,9.75,86.85,-846.19141,-0.97656,594.72656,-0.18639051760455722,0.0855343978500373,0.06514999938429474,57.45,19.8,23.7
-973.63281,-53.71094,-157.71484,0.11178100820737844,0.06355127778946792,-0.07474267801910597,1.65,24.75,29.25,-74.70703,98.14453,1013.18359,0.06301842876883405,0.12084066328863059,0.06594953471463334,70.35,9.75,86.85,-835.9375,-18.06641,584.96094,-0.13842729896342626,0.010791719830931338,0.08047172128877735,57.45,19.8,23.7
-981.44531,-50.78125,-151.85547,0.1276355791324949,0.021183759263155976,-0.03184231047216015,1.2,22.65,31.2,-69.33594,106.93359,1017.57812,0.04383307149921159,0.18066147433488583,0.03970292435729221,70.8,7.65,87.0,-825.19531,-6.34766,585.44922,-0.15841201703046212,0.03877022040502644,0.08580090962681684,58.95,19.05,23.25
-968.26172,-61.52344,-160.15625,0.10165548055193334,0.04290054207987102,-0.03970292435729221,1.2,22.65,31.2,-72.75391,98.63281,1034.66797,0.03570594583729999,0.19105351376711047,0.04756353824242427,70.8,7.65,87.0,-856.44531,-5.85937,577.63672,-0.13922665976083967,0.0571562168772355,0.058488601228207975,58.95,19.05,23.25
-972.65625,-62.01172,-168.45703,0.07167840345137952,0.1281684281531288,-0.10485292374158693,1.05,23.7,30.3,-75.19531,91.30859,1037.10938,0.06954665830299364,0.23581928921858783,0.05875493847206231,70.8,7.65,87.0,-860.83984,-16.60156,611.32812,-0.1963828766380752,0.0831363154577971,0.10818371008609293,58.95,19.05,23.25
-975.58594,-61.52344,-166.50391,0.06062017184366865,0.12710255557893585,-0.04183466950567808,1.05,23.7,30.3,-79.10156,89.84375,1034.17969,0.042634030303091486,0.13323127924731393,0.10738434928867951,70.8,7.65,87.0,-850.09766,-22.94922,598.14453,-0.1991806394290221,0.05302606973531612,0.13576270479440652,58.95,19.05,23.25
-986.81641,-57.12891,-182.12891,0.04929560299210344,0.15095108354403677,-0.02571358680378206,2.55,23.1,29.4,-67.87109,89.84375,1035.64453,0.08286980368101757,0.08713329397778931,0.08033837813392498,71.1,8.25,87.15,-851.07422,-40.52734,590.82031,-0.21583457115155197,0.07141189167459998,0.03450690464117989,57.3,19.2,22.8
-977.05078,-58.59375,-170.89844,0.010924888452858507,0.12177336724089637,-0.07074587403203896,2.55,23.1,29.4,-70.80078,94.23828,1032.71484,0.0283781809728018,0.08859884695068895,0.08686678220100978,71.1,8.25,87.15,-835.9375,-48.33984,582.51953,-0.16307501319301537,0.034773416417959425,0.11018228661255162,57.3,19.2,22.8
-993.65234,-64.94141,-161.62109,0.05622351292496973,0.13656206559181994,-0.03783769098568587,2.55,23.1,29.4,-70.3125,80.07813,1029.78516,-0.004396658918698916,0.10471975511965978,0.07900616831587771,70.5,7.65,86.25,-843.75,-39.55078,576.17187,-0.15721280130141685,0.023582016188321384,0.07354363682298586,57.15,20.55,23.25
-983.88672,-51.26953,-168.45703,0.03637213801278623,0.10432007472095307,0.0013323843509724712,2.55,23.1,29.4,-71.28906,78.61328,1023.4375,-0.03304135166828025,0.10698466888997281,0.13349761649116829,70.5,7.65,86.25,-847.16797,-39.0625,579.58984,-0.10898307088350632,0.02091724748637644,0.14895250701757806,57.15,20.55,23.25
-977.53906,-36.13281,-163.57422,0.03464007326310706,0.09739199025516157,-0.0007993607974134029,2.55,23.1,29.4,-88.86719,46.875,1010.74219,-0.03490658503988659,0.10458658649773261,0.06981317007977318,71.4,7.5,87.6,-852.53906,-30.76172,570.80078,-0.10045643935581322,-0.005196019716112318,0.13003366152473514,56.4,19.05,22.65
-985.83984,-39.0625,-178.71094,0.023848353432175718,0.06261874837012736,-0.06541651116107426,1.2,24.15,29.85,-81.05469,33.69141,977.53906,-0.00373046674321268,0.0847350370526239,0.03597245761407953,71.4,7.5,87.6,-831.54297,-33.69141,571.28906,-0.18292656263812407,0.05022813241144401,0.11084847878803786,56.4,19.05,22.65
-991.69922,-37.59766,-182.61719,-0.04063545377663278,0.11337972980220523,0.0022649137703130416,1.2,24.15,29.85,-80.07813,17.08984,972.16797,-0.009459335479958867,0.09539358826162808,0.07873965653909817,71.4,7.5,87.6,-833.00781,-47.36328,550.78125,-0.1382939558085739,-0.029977077100553806,0.11058196701125833,56.55,18.75,23.1
-985.83984,-45.41016,-188.96484,-0.026646290756047828,0.08167076248489745,0.05435827955336339,1.05,23.25,30.6,-78.125,36.13281,968.75,0.04383307149921159,0.10432007472095307,0.006794741310939124,69.75,8.85,88.5,-844.23828,-51.75781,563.47656,-0.12656970655830196,0.05235987755982989,0.08286980368101757,56.55,18.75,23.1
-1000.48828,-51.26953,-193.84766,-0.02611326720248876,0.08766614299842318,0.015055210127703087,1.05,23.25,30.6,-72.75391,14.64844,983.88672,0.030110245722480975,0.1333644478692411,0.02145027103993551,69.75,8.85,88.5,-835.44922,-50.78125,571.28906,-0.10538594729514601,-0.004263315763846549,0.03943641258051267,58.35,18.75,22.5
-1001.95312,-44.43359,-184.08203,-0.06821444848494637,0.07607506237007844,0.028644692749581334,2.25,23.1,29.1,-71.28906,40.52734,985.83984,0.06514999938429474,0.07301078780235198,0.07287744464749962,70.5,9.6,87.0,-854.49219,-50.78125,571.28906,-0.11258036900479183,0.0006661921754862356,0.09432771568743514,58.35,18.75,22.5
-998.04687,-61.52344,-184.08203,-0.08606742140359638,0.08899852734939565,-0.06834761710687355,2.25,23.1,29.1,-72.26563,26.85547,1003.90625,0.0567565364785288,0.051560516762416485,0.03464007326310706,70.5,9.6,87.0,-829.10156,-39.0625,585.9375,-0.12257272803830976,0.023582016188321384,0.09352835489002174,56.25,20.7,22.8
-982.91016,-59.08203,-185.54687,-0.07674125454556469,0.08739963122164364,-0.0369049870334201,0.75,22.65,29.85,-68.84766,48.33984,992.67578,0.03703833018827246,0.05435827955336339,0.06728174453268061,71.1,8.55,87.15,-840.33203,-45.89844,575.19531,-0.1009892883764471,0.0025314255470925756,0.09033073716744291,56.25,20.7,22.8
-975.58594,-52.24609,-183.59375,-0.06994633870170035,0.04902909121532391,0.015321547371557422,0.75,22.65,29.85,-66.40625,41.01563,993.65234,0.061419532641082054,0.048762579438544375,0.026779459377974997,71.1,8.55,87.15,-834.47266,-41.50391,581.05469,-0.09299533133646266,-0.026379778979268294,0.10565245907192554,56.25,20.7,22.8
-985.35156,-57.12891,-184.57031,-0.06754825630946014,0.06874729750558024,0.04330022247857772,0.75,22.65,29.85,-76.17188,70.3125,980.95703,0.08127108208619076,0.07953901733651159,0.06594953471463334,71.1,8.55,87.15,-830.56641,-23.92578,568.84766,-0.028111843728947466,-0.035039753661813756,0.08486838020747627,56.25,20.7,22.8
-972.16797,-51.26953,-188.47656,-0.023048992634762316,0.08766614299842318,0.07767378396490525,0.75,22.65,29.85,-78.61328,72.75391,979.98047,0.07873965653909817,0.08753297437649601,0.019851374912183504,71.1,8.55,87.15,-821.77734,-30.27344,581.54297,-0.012257272803830977,-0.011457912006417574,0.1337641282679478,58.5,20.85,20.85
-983.88672,-58.10547,-193.35937,-0.05102749320885741,0.05369226191080236,0.08406884487713767,1.5,22.35,29.1,-64.94141,84.47266,989.25781,0.07980552911329111,0.05928796202562137,0.04103530870826468,71.7,8.25,87.9,-816.89453,-5.37109,596.67969,-0.011058231607710873,-0.023981696587028086,0.08167076248489745,58.5,20.85,20.85
-965.82031,-69.33594,-189.94141,-0.03930324395858551,0.08500154882940344,0.05209336578305035,1.5,22.35,29.1,-85.9375,94.23828,1000.97656,0.04183466950567808,0.10192181779578767,0.05702304825530834,71.7,8.25,87.9,-831.05469,-5.85937,605.46875,-0.022516143614128445,0.0029311059457992773,0.06928032105913931,57.15,19.35,22.65
-985.83984,-65.42969,-170.41016,-0.10312103352483297,0.09912405500484074,-0.005462531492891852,1.05,22.5,29.55,-64.45313,103.02734,1005.37109,0.03357420068891412,0.09779167065386828,0.09539358826162808,70.65,7.8,86.85,-812.5,-2.44141,628.41797,-0.04103530870826468,-0.03530626543859329,0.08047172128877735,57.15,19.35,22.65
-966.79687,-56.64063,-182.61719,-0.09139660974163587,0.11711019654541792,0.03424039286440035,1.05,22.5,29.55,-79.58984,97.65625,1013.18359,-0.00746093348642536,0.09392803528872844,0.13629555381504038,70.65,7.8,86.85,-827.63672,-10.25391,621.58203,-0.0058622118915985545,0.0033307863445059785,0.07687442316749184,57.15,20.85,23.7
-970.70312,-48.33984,-180.17578,-0.04330022247857772,0.14562172067307208,-0.007993957039984428,1.5,22.35,28.35,-57.12891,106.44531,1024.90234,0.04343339110050489,0.06754825630946014,0.10511943551836647,70.35,8.25,86.1,-816.40625,13.18359,615.72266,0.01585457092511649,0.02051756708766974,0.10405356294417353,57.15,20.85,23.7
-964.35547,-53.71094,-177.24609,-0.06022049144496195,0.07420982899847209,0.015454890526409788,1.5,22.35,28.35,-1.46484,111.81641,1008.78906,0.019984718067035872,0.13469683222021359,0.05462479133014293,70.35,8.25,86.1,-816.89453,-2.92969,626.95312,-0.0031976177225788113,0.017986141540577164,0.007860613885132062,56.55,19.95,23.85
-974.60937,-49.31641,-179.6875,-0.060087322823034785,0.05728938549916267,0.04050228515470561,0.0,24.0,29.55,-55.17578,91.30859,1066.89453,0.08660027042423024,0.0381042027624654,0.05489130310692246,70.35,8.25,86.1,-815.42969,13.67187,626.95312,-0.05462479133014293,0.013323145378023914,0.13363095964602065,56.55,19.95,23.85
-983.39844,-44.43359,-182.61719,-0.02931088492506757,0.08540122922811014,0.00186523337160634,0.0,24.0,29.55,-29.29688,89.35547,1063.96484,0.13469683222021359,0.06062017184366865,0.058888281626914674,70.35,8.25,86.1,-809.08203,7.8125,640.625,-0.09179629014034256,-0.023715184810248553,0.08833233517390941,56.55,19.95,23.85
-999.02344,-37.10938,-177.73437,-0.07247776424879292,0.12217304763960307,-0.0279785005740951,0.0,24.0,29.55,-39.0625,132.8125,1062.01172,0.10645181986933895,0.02091724748637644,0.10045643935581322,69.9,8.25,87.9,-808.10547,34.17969,633.30078,-0.15721280130141685,0.011591080628344743,0.06022049144496195,58.95,20.1,23.25
-999.02344,-30.27344,-168.94531,-0.09512707648484854,0.10152213739708096,0.04103530870826468,0.0,24.0,29.55,-33.20313,100.58594,1041.01563,0.016520588567677526,0.03797085960761303,0.1228392398150893,69.9,8.25,87.9,-801.75781,-2.92969,604.98047,-0.12683621833508152,0.04183466950567808,0.07754061534297808,58.95,20.1,23.25
-1019.04297,-30.76172,-172.36328,-0.09019756854551575,0.11164783958545127,0.012390441425758144,2.1,23.25,30.3,-25.39063,112.79297,1027.83203,-0.009992359033517936,0.05835525807335561,0.0896645449919567,70.65,7.8,87.6,-786.13281,-19.04297,573.24219,-0.13283159884860724,0.02011788668896304,0.04023577337792608,56.4,19.8,22.95
-1014.16016,-27.34375,-177.24609,-0.05422511093143622,0.06554985431592662,0.07287744464749962,2.1,23.25,30.3,-34.17969,86.91406,997.55859,-0.0275788201753884,0.09539358826162808,0.08686678220100978,70.65,7.8,87.6,-807.61719,-31.25,570.3125,-0.10125580015322662,0.028111843728947466,0.015188378749630253,56.4,19.8,22.95
-1021.97266,-29.29688,-202.63672,-0.07274427602557246,0.026779459377974997,0.06128636401915488,3.15,23.25,29.55,-29.29688,74.70703,992.67578,-0.025447249559927724,0.07527570157266503,0.10845022186287244,71.1,7.5,86.85,-810.05859,-24.90234,613.76953,-0.12976714974795558,0.028111843728947466,0.08153759386297028,56.4,19.8,22.95
-1017.57812,-25.87891,-188.96484,-0.07514235841781267,0.011990761027051442,0.07034601910040704,3.15,23.25,29.55,-39.55078,52.24609,975.09766,-0.0058622118915985545,0.0660827033365605,0.1366952342137471,71.1,7.5,86.85,-812.01172,-50.29297,627.92969,-0.13975950878147356,0.00186523337160634,0.0486294108166172,56.4,19.8,22.95
-1025.39063,-29.78516,-179.19922,-0.11244720038286467,0.02891120452636087,0.02011788668896304,0.45,24.15,29.4,-54.6875,53.71094,970.70312,0.01625425132382319,0.12683621833508152,0.12550383398410905,71.1,9.3,87.9,-811.03516,-78.61328,641.60156,-0.15921137782787553,-0.026379778979268294,0.06741508768753297,57.6,19.2,23.85
-1017.57812,-15.625,-183.10547,-0.10232167272741956,0.0029311059457992773,0.03943641258051267,0.45,24.15,29.4,-19.53125,61.52344,999.02344,0.00013316862192716734,0.07367680544491303,0.1119141768293056,71.1,9.3,87.9,-815.91797,-80.56641,625.0,-0.15095108354403677,-0.02464771422958912,0.07447634077525163,57.6,19.2,23.85
-1027.83203,-18.55469,-182.61719,-0.10005658442418133,0.02198312006056938,-0.0006661921754862356,0.45,24.15,30.45,-34.17969,55.66406,1008.78906,0.023582016188321384,0.07007968185655272,0.09059724894422246,72.15,8.55,85.8,-818.84766,-68.35938,613.28125,-0.09739199025516157,0.005728868736746187,0.09739199025516157,57.6,19.2,23.85
-1010.25391,-39.55078,-168.45703,-0.08606742140359638,-0.03903673218180597,0.03104294967474674,0.45,24.15,30.45,-59.57031,59.08203,1019.53125,0.048496242194690044,0.12190653586282353,0.14868599524079854,72.15,8.55,85.8,-818.84766,-67.87109,607.42187,-0.10125580015322662,-0.003463954966433146,0.05209336578305035,57.6,19.2,23.85
-981.93359,-47.36328,-171.38672,-0.07327712504620633,-0.07167840345137952,0.019984718067035872,0.45,24.15,30.45,-38.08594,56.64063,1045.41016,0.008260294283838763,0.0932618431132422,0.11977496524736285,70.5,9.6,87.45,-812.98828,-61.52344,612.79297,-0.15628027188207627,0.0291777163031404,0.04116847733019184,57.0,19.95,23.85
-988.28125,-49.80469,-174.31641,-0.07474267801910597,-0.06208572481656829,0.0754088701945922,0.45,24.15,30.45,-28.80859,33.69141,1042.96875,-0.004929507939332785,0.06115319539722772,0.12696938695700868,70.5,9.6,87.45,-801.75781,-40.03906,625.97656,-0.12257272803830976,-0.021183759263155976,0.07354363682298586,57.0,19.95,23.85
-989.25781,-58.59375,-173.33984,-0.1305666850782942,-0.019851374912183504,-0.00746093348642536,0.3,23.7,30.0,-44.92188,38.57422,1041.99219,-0.02331550441154185,0.07714093494427138,0.08646710180230308,70.5,9.6,87.45,-810.54687,-42.48047,629.88281,-0.11204751998415798,0.005462531492891852,0.06355127778946792,58.05,20.25,24.6
-983.88672,-66.40625,-157.22656,-0.11711019654541792,-0.01811948469542953,-0.0030642745677264445,0.3,23.7,30.0,-42.48047,51.26953,1031.73828,-0.023848353432175718,0.040901965553412314,0.11617766712607734,70.5,9.6,87.45,-815.91797,-40.03906,607.42187,-0.053558918755949994,-0.0002665117767795341,0.030643269276040042,58.05,20.25,24.6
-982.91016,-53.22266,-155.76172,-0.12057432604477626,-0.005462531492891852,-0.05502447172884963,0.75,24.15,28.8,-36.13281,47.85156,1023.4375,-0.008127125661911596,0.0575558972759422,0.1276355791324949,70.35,9.3,87.15,-800.78125,-32.71484,606.44531,-0.07767378396490525,0.05835525807335561,0.045698304870817934,57.15,20.1,23.7
-977.05078,-54.6875,-155.76172,-0.04076879693148514,-0.08753297437649601,0.023448673033469015,0.75,24.15,28.8,-62.01172,32.71484,1023.92578,0.023981696587028086,0.07927250555973205,0.1272358987337882,70.35,9.3,87.15,-797.36328,-17.57813,616.69922,-0.1228392398150893,0.03464007326310706,0.01065855120900417,57.15,20.1,23.7
-991.21094,-47.85156,-167.96875,-0.04436592051984546,-0.03930324395858551,0.027845331952167932,0.75,23.1,30.15,-57.12891,36.62109,1017.57812,0.038903563559878805,0.12230621626153024,0.11484528277510488,69.45,8.1,86.7,-812.5,-6.34766,639.64844,-0.11138132780867173,0.07980552911329111,0.0069280844657914915,57.3,20.25,22.5
-996.09375,-59.57031,-162.10937,-0.08726646259971647,-0.03623896939085906,0.034773416417959425,0.75,23.1,30.15,-55.17578,57.61719,1001.95312,0.04982845201273731,0.07967236049136395,0.09566010003840761,69.45,8.1,86.7,-816.40625,-6.83594,630.37109,-0.13509651261892028,0.0571562168772355,0.015588059148336955,57.3,20.25,22.5
-992.1875,-51.75781,-149.90234,-0.03797085960761303,-0.06275191699205453,0.05622351292496973,0.0,21.75,30.0,-45.89844,68.35938,1038.57422,-0.024514545607661954,0.10898307088350632,0.09459422746421467,70.2,8.4,85.95,-808.10547,-31.25,613.28125,-0.10938292581513821,0.02411486520895525,0.03117611829667391,57.3,20.25,22.5
-992.1875,-43.94531,-148.4375,-0.10538594729514601,0.01119140022963804,-0.03970292435729221,0.0,21.75,30.0,-49.31641,56.64063,1029.29688,0.04076879693148514,0.11417909059961863,0.055690663904335864,70.2,8.4,85.95,-806.15234,-30.27344,590.82031,-0.10245484134934674,0.06381778956624745,0.04516545585018406,57.3,20.25,22.5
-985.83984,-58.10547,-156.73828,-0.1017886491738605,0.012923464979317213,0.0002665117767795341,0.0,21.75,30.0,-68.84766,63.47656,1022.94922,0.0896645449919567,0.11298004940349854,0.07607506237007844,70.2,8.4,85.95,-816.89453,-30.76172,594.72656,-0.048762579438544375,0.04529862447211123,0.06235223659334782,57.9,19.8,23.25
-976.07422,-58.10547,-161.13281,-0.11391275335576431,0.0011990411961201044,-0.007061253087718659,0.0,21.75,30.0,-57.61719,71.77734,1029.78516,0.07061253087718658,0.06168604441786158,0.08500154882940344,70.2,8.4,85.95,-832.03125,-35.15625,605.95703,-0.06101985224237535,0.06901380928235978,0.04449926367469782,57.9,19.8,23.25
-989.25781,-63.96484,-153.32031,-0.045032112695331694,-0.06781476808623968,0.019718206290256335,0.0,21.75,30.0,-48.82813,79.10156,1031.73828,0.0575558972759422,0.08073805853263168,0.06874729750558024,70.2,8.4,85.95,-834.47266,-38.57422,629.39453,-0.09299533133646266,0.06888046612750741,0.0738101485997654,57.9,19.8,23.25
-997.07031,-56.15234,-153.32031,-0.014788698350923554,-0.034373736019252726,-0.0058622118915985545,0.75,23.1,29.85,-55.66406,99.12109,1032.22656,0.011591080628344743,0.07674125454556469,0.09046408032229529,71.55,8.4,87.75,-816.40625,-57.12891,631.34766,-0.1013889687751538,0.04809656179598333,0.09419454706550798,57.9,19.8,23.25
-964.84375,-41.50391,-141.60156,-0.0365053066347134,-0.05009496378951684,0.029044373148288036,0.75,23.1,29.85,-41.50391,81.05469,1027.34375,0.04276719892501865,0.0855343978500373,0.06288508561398169,71.55,8.4,87.75,-811.52344,-73.24219,625.48828,-0.05489130310692246,0.05062781281015071,0.04689734606693803,57.9,19.8,23.25
-986.81641,-39.0625,-152.83203,-0.09952373540354745,-0.014522186574144018,-0.018785676870915768,0.45,24.6,29.85,-42.48047,80.56641,1031.25,0.011990761027051442,0.024381376985734785,0.1131133925583509,72.45,8.25,86.85,-816.40625,-50.78125,605.46875,-0.04902909121532391,0.0750091897958855,0.033973881087620825,57.15,20.55,22.95
-961.91406,-33.20313,-145.01953,-0.08526806060618297,-0.022649312236055614,-0.012390441425758144,0.45,24.6,29.85,-28.32031,88.37891,1032.22656,-0.021183759263155976,0.07247776424879292,0.10551911591707318,72.45,8.25,86.85,-811.52344,-66.40625,611.32812,-0.013989337553510148,0.09685914123452771,0.08739963122164364,57.15,20.55,22.95
-972.65625,-36.62109,-147.94922,-0.09272899409260832,-0.001065872574192937,0.05982081104625525,1.8,23.1,28.8,-41.99219,83.49609,1035.64453,0.013189976756096747,0.060087322823034785,0.10445324334288024,71.1,9.0,86.85,-809.57031,-51.75781,619.62891,-0.05049464418822355,0.11124815918674456,0.023981696587028086,57.0,19.95,22.5
-970.21484,-46.38672,-150.87891,-0.04316687932372535,-0.03703833018827246,0.08726646259971647,1.8,23.1,28.8,-42.48047,61.52344,1033.69141,-0.01252378458061051,0.03570594583729999,0.08580090962681684,71.1,9.0,86.85,-814.94141,-66.40625,648.4375,-0.05609034430304257,0.08673361357908262,0.01958503766832917,57.0,19.95,22.5
-987.30469,-35.15625,-165.03906,-0.06168604441786158,-0.07087904265396612,0.06941348968106648,0.45,23.4,29.4,-32.71484,59.08203,1023.4375,-0.02558041818185489,0.022915824012835147,0.1184425808963904,71.1,9.0,86.85,-797.36328,-53.71094,614.74609,-0.07740727218812571,0.08207044288360416,0.06994633870170035,57.3,20.7,24.15
-984.375,-15.625,-147.46094,-0.04516545585018406,-0.05702304825530834,0.06794793670816685,0.45,23.4,29.4,-45.41016,67.38281,1001.95312,-0.034373736019252726,0.08207044288360416,0.0932618431132422,71.1,9.0,86.85,-804.6875,-60.05859,599.12109,-0.03637213801278623,0.10511943551836647,0.07047936225525941,57.3,20.7,24.15
-1008.78906,-25.39063,-151.36719,-0.1017886491738605,-0.012656953202537678,0.05009496378951684,0.45,23.4,29.4,-56.15234,62.98828,991.69922,-0.03623896939085906,0.02038439846574257,0.09872437460613405,70.65,8.55,86.85,-797.85156,-53.22266,602.53906,-0.0863337586474507,0.1119141768293056,0.00186523337160634,56.55,20.7,22.8
-1017.57812,-12.69531,-161.13281,-0.10551911591707318,0.015454890526409788,0.00559570011481902,0.45,23.4,29.4,-54.6875,59.08203,977.53906,-0.014655355196071187,0.07301078780235198,0.0762082309920056,70.65,8.55,86.85,-801.26953,-60.05859,608.39844,-0.08779931162035035,0.061819213039788753,0.014122506175437317,56.55,20.7,22.8
-1001.46484,-9.27734,-152.83203,-0.11004894345769926,-0.02464771422958912,0.07594189374815126,1.5,23.85,29.1,-34.66797,47.85156,989.25781,-0.023981696587028086,0.03916990080373314,0.0811377389313384,70.2,8.85,85.95,-805.17578,-58.59375,652.34375,-0.1115144964305989,0.07980552911329111,-0.00186523337160634,56.55,20.7,22.8
-998.53516,-19.53125,-154.29687,-0.04756353824242427,-0.09459422746421467,0.10152213739708096,1.5,23.85,29.1,-50.29297,56.15234,995.11719,0.006661572689011957,0.11098164740996504,0.04836289903983767,70.2,8.85,85.95,-818.84766,-57.61719,641.11328,-0.08753297437649601,0.03384071246569365,0.009992359033517936,56.55,20.7,22.8
-1007.32422,-13.67187,-144.53125,-0.05182702853919601,-0.04423275189791829,0.1382939558085739,0.75,24.6,30.15,-40.03906,51.26953,1011.71875,0.0015987215948268059,0.07167840345137952,0.09765850203194111,70.2,8.85,85.95,-827.63672,-53.22266,647.46094,-0.1017886491738605,0.048762579438544375,0.04103530870826468,56.4,20.1,23.7
-991.21094,-22.94922,-149.90234,-0.0454317930940384,-0.07194491522815906,0.056356856079822104,0.75,24.6,30.15,-31.25,59.57031,1012.69531,0.005329188338039486,0.05249304618175705,0.07634157414685798,70.2,8.85,85.95,-820.80078,-49.31641,615.72266,-0.03224199087086685,0.06541651116107426,0.06115319539722772,56.4,20.1,23.7
-982.91016,-29.29688,-143.55469,-0.08673361357908262,-0.00839363743869113,0.011724423783197109,1.2,24.6,29.85,27.83203,45.89844,1027.83203,0.01252378458061051,0.14175808530793224,0.01585457092511649,72.45,9.0,87.15,-814.45312,-55.66406,624.02344,-0.019318525891549636,0.024514545607661954,0.004396658918698916,56.4,20.1,23.7
-1001.46484,-37.10938,-142.08984,-0.09832469420742734,-0.035173096816666125,0.007993957039984428,1.2,24.6,29.85,-48.82813,60.54688,1026.85547,0.07127872305267281,0.2795191920958723,0.0831363154577971,72.45,9.0,87.15,-810.54687,-57.61719,629.88281,-0.05609034430304257,0.06155287579593442,-0.0002665117767795341,56.4,20.1,23.7
-989.74609,-21.48438,-147.46094,-0.08486838020747627,-0.05089432458693025,-0.010125527655445103,1.65,23.25,30.0,-108.88672,56.64063,992.1875,0.04423275189791829,0.08979788814680904,0.09192963329519492,69.9,9.3,86.55,-815.91797,-65.42969,622.55859,-0.05289272658046376,0.06062017184366865,0.023848353432175718,56.55,20.25,22.5
-978.02734,-38.08594,-130.85937,-0.007860613885132062,-0.01305663360124438,0.06235223659334782,1.65,23.25,30.0,-60.54688,38.08594,970.70312,0.058488601228207975,0.02038439846574257,0.07167840345137952,69.9,9.3,86.55,-835.44922,-69.33594,585.44922,-0.0482297304179105,0.02611326720248876,-0.01025887081029747,56.55,20.25,22.5
-1003.90625,-37.59766,-150.39062,0.00373046674321268,-0.05169368538434365,0.028777861371508503,1.65,23.25,30.0,-75.19531,51.75781,1002.92969,0.07274427602557246,0.05382543053272952,0.035039753661813756,71.7,9.3,86.1,-835.9375,-74.21875,605.95703,-0.09312867449131504,0.0928621627145355,0.05902145024884184,57.3,21.0,22.5
-984.86328,-37.10938,-141.11328,-0.005728868736746187,-0.015588059148336955,0.04489894407340452,1.65,23.25,30.0,-66.89453,63.96484,1009.27734,0.04556513624889076,0.08326948407972427,0.053558918755949994,71.7,9.3,86.1,-824.21875,-64.45313,586.91406,-0.058888281626914674,0.07527570157266503,0.0038636353651398474,57.3,21.0,22.5
-992.67578,-35.64453,-160.64453,-0.03823737138439257,-0.012390441425758144,0.012257272803830977,1.05,24.0,30.3,-75.19531,59.08203,1008.30078,0.060487003221741484,0.03104294967474674,0.10938292581513821,71.7,9.3,86.1,-827.63672,-75.19531,619.14062,-0.05782240905272174,0.05835525807335561,0.05475795995207009,57.45,20.55,22.65
-1000.0,-28.32031,-141.11328,-0.022915824012835147,-0.017852972918649995,-0.015987739547043658,1.05,24.0,30.3,-88.37891,48.33984,1006.83594,0.03290818304635308,0.06808110533009401,0.04729702646564473,71.7,9.3,86.1,-834.47266,-65.42969,637.20703,-0.05928796202562137,0.02744565155346123,0.00839363743869113,57.45,20.55,22.65
-982.42187,-18.55469,-142.57812,-0.020650910242522108,0.0038636353651398474,-0.0684807857288007,1.65,22.2,29.25,-69.33594,51.26953,985.83984,0.0466310088230837,0.05049464418822355,0.04290054207987102,71.1,10.8,87.15,-832.51953,-56.15234,619.62891,-0.09379486666680127,0.02944405354699474,0.051960197161123184,58.2,19.35,21.6
-988.28125,-31.25,-146.48437,0.0022649137703130416,0.0009327039522657697,0.05129400498563695,1.65,22.2,29.25,-80.07813,66.89453,1020.50781,0.028644692749581334,0.009859190411590769,0.042634030303091486,71.1,10.8,87.15,-835.44922,-58.10547,618.16406,-0.06594953471463334,-0.0291777163031404,0.0482297304179105,58.2,19.35,21.6
-1000.97656,-28.32031,-141.11328,0.012656953202537678,-0.031442630073453444,-0.0013323843509724712,0.6,22.5,29.25,-72.26563,64.94141,1028.32031,0.015454890526409788,0.07021285047847989,-0.006261892290305255,70.8,9.6,88.05,-832.51953,-48.82813,613.28125,-0.059421130647548545,0.0005328490206338688,0.07927250555973205,58.2,19.35,21.6
-1000.0,-16.11328,-141.11328,0.0022649137703130416,-0.008260294283838763,0.003463954966433146,0.6,22.5,29.25,-58.10547,76.17188,1033.20313,0.007061253087718659,0.03863705178309927,0.0275788201753884,70.8,9.6,88.05,-817.87109,-54.19922,613.76953,-0.056356856079822104,0.04956194023595778,0.052626389336609423,58.2,19.35,21.6
-992.67578,-16.11328,-136.23047,-0.022116463215421746,0.06022049144496195,-0.012923464979317213,2.55,23.1,28.8,-66.40625,49.80469,1045.89844,0.048762579438544375,0.01811948469542953,0.0186523337160634,70.5,9.6,87.75,-835.9375,-45.41016,625.0,-0.05475795995207009,-0.011058231607710873,0.06901380928235978,58.2,19.35,21.6
-987.79297,-19.04297,-147.94922,-0.03450690464117989,0.05422511093143622,-0.0031976177225788113,2.55,23.1,28.8,-62.98828,65.91797,1039.0625,0.04969528339081014,-0.006261892290305255,0.0275788201753884,70.5,9.6,87.75,-833.49609,-47.85156,642.57812,-0.06248540521527499,-0.03743801058697916,0.04063545377663278,57.3,20.7,23.1
-992.1875,-16.11328,-142.08984,-0.05928796202562137,0.07447634077525163,-0.011990761027051442,2.55,23.1,28.8,-85.9375,79.10156,1021.48437,0.09299533133646266,0.034373736019252726,0.035839288992152364,70.5,9.6,87.75,-828.125,-57.12891,644.53125,-0.04356655972243205,-0.025846929958634426,0.03344103206698695,57.3,20.7,23.1
-969.72656,-29.29688,-152.83203,-0.03837054000631974,0.05449162270821576,-0.04942877161403061,2.55,23.1,28.8,-56.15234,84.96094,1014.16016,0.05702304825530834,0.009059655081252166,0.026246610357341126,70.5,9.6,87.75,-827.14844,-30.76172,616.69922,0.011990761027051442,-0.017986141540577164,0.04103530870826468,57.3,20.7,23.1
-960.9375,-30.27344,-149.41406,0.01492186697285072,-0.002131745148385874,0.07434299762039927,1.2,24.15,29.4,-57.61719,80.07813,1013.67187,0.11231385722801229,-0.047430369620497105,0.044099583275991124,70.8,10.35,87.45,-822.75391,-15.13672,622.55859,0.012923464979317213,-0.039569755735365045,0.03970292435729221,57.3,20.7,23.1
-959.47266,-33.20313,-132.8125,0.02411486520895525,0.002398082392240209,0.06541651116107426,1.2,24.15,29.4,-48.33984,85.9375,1019.04297,0.10698466888997281,-0.022915824012835147,-0.02731248293153406,70.8,10.35,87.45,-818.35937,-19.04297,632.32422,0.019851374912183504,-0.009992359033517936,0.039969436134071744,57.6,19.5,23.1
-950.68359,-32.22656,-143.55469,0.033973881087620825,0.011857592405124276,0.03570594583729999,0.45,24.15,31.2,-46.38672,83.98438,1005.85937,0.09672579807967534,-0.04276719892501865,-0.02051756708766974,71.1,8.55,87.9,-819.33594,-9.76562,645.50781,0.07860648791717102,-0.015454890526409788,0.017453292519943295,57.6,19.5,23.1
-965.33203,-30.76172,-145.99609,-0.03450690464117989,0.05808874629657607,-0.0373046674321268,0.45,24.15,31.2,-19.53125,69.33594,989.25781,0.07967236049136395,-0.014788698350923554,0.04889592259339674,71.1,8.55,87.9,-800.78125,-23.92578,625.0,-0.002131745148385874,0.019984718067035872,-0.0029311059457992773,58.2,20.55,22.95
-979.98047,-26.36719,-147.94922,-0.008127125661911596,0.08793265477520272,0.041301645952119014,1.65,25.05,28.5,-46.38672,55.66406,1005.37109,0.04449926367469782,-0.07913933693780488,0.02891120452636087,71.1,9.75,86.85,-812.98828,-12.20703,622.07031,0.03597245761407953,0.013189976756096747,0.05475795995207009,58.2,20.55,22.95
-972.16797,-27.83203,-146.97266,-0.009859190411590769,0.11777638872090417,-0.00013316862192716734,1.65,25.05,28.5,-41.99219,58.59375,996.58203,0.06088668362044818,0.009725847256738402,0.014389017952216851,71.1,9.75,86.85,-799.31641,-10.74219,615.72266,0.015188378749630253,0.05142717360756412,0.05835525807335561,55.8,19.95,22.8
-969.72656,-36.13281,-144.53125,0.02518073778314819,0.055690663904335864,-0.01851916509413623,0.45,23.85,27.75,-49.31641,50.78125,1026.36719,0.07047936225525941,-0.017186780743163762,0.01638741994575036,71.1,9.75,86.85,-797.85156,-7.8125,627.92969,-0.021583439661862675,0.025313906405075356,0.008526806060618296,55.8,19.95,22.8
-973.14453,-42.96875,-154.29687,0.039969436134071744,0.04689734606693803,-0.034373736019252726,0.45,23.85,27.75,-42.96875,43.45703,1029.78516,0.06954665830299364,-0.016520588567677526,0.03117611829667391,70.8,9.6,86.7,-802.24609,-15.625,598.63281,0.021716608283789844,0.02038439846574257,0.03077643789796721,57.15,19.8,23.7
-989.74609,-55.17578,-168.94531,0.0182526533173567,0.06381778956624745,-0.026779459377974997,0.45,23.85,27.75,-64.94141,56.15234,1042.48047,0.10018992757903368,-0.03317452029020742,0.00373046674321268,70.8,9.6,86.7,-788.08594,-22.94922,587.89062,0.061419532641082054,0.0373046674321268,0.0843353566539172,57.15,19.8,23.7
-1008.78906,-46.38672,-180.17578,0.0,0.08793265477520272,-0.09392803528872844,0.45,23.85,27.75,-54.19922,55.66406,1041.99219,0.11404592197769146,-0.005196019716112318,0.039969436134071744,71.55,8.85,86.7,-789.55078,-27.83203,604.00391,0.07194491522815906,0.04716385784371757,0.05875493847206231,57.15,19.8,23.7
-1016.60156,-29.78516,-184.08203,0.024781057384441488,0.1220398790176759,-0.09432771568743514,0.45,23.85,27.75,-67.87109,69.33594,1007.8125,0.11244720038286467,-0.026779459377974997,-0.0030642745677264445,71.55,8.85,86.7,-799.80469,-4.88281,587.89062,0.028245012350874635,0.06461715036366086,0.021583439661862675,57.15,19.8,23.7
-1029.78516,-44.92188,-170.89844,0.03384071246569365,0.096459460835821,-0.11684385930156357,1.5,22.35,30.9,-58.10547,62.01172,1003.41797,0.1065849884912661,-0.04449926367469782,-0.004796339317405617,72.0,9.15,87.0,-798.82812,-26.36719,585.44922,0.010525208054151804,0.008926486459324997,0.04103530870826468,57.45,20.1,23.25
-1005.85937,-43.94531,-162.59766,0.06954665830299364,-0.028111843728947466,-0.011857592405124276,1.5,22.35,30.9,-69.33594,62.5,997.55859,0.1273690673557154,-0.03424039286440035,-0.00039968039870670147,72.0,9.15,87.0,-804.19922,-10.74219,580.07812,0.02851152412765417,-0.0031976177225788113,0.07034601910040704,57.45,20.1,23.25
-980.46875,-51.26953,-175.29297,0.0377045223637587,0.0038636353651398474,-0.0458314734927451,1.5,25.65,29.4,-65.91797,105.95703,1004.39453,0.11937511031573096,-0.007061253087718659,0.0022649137703130416,72.0,9.15,87.0,-807.61719,-21.48438,593.75,0.05449162270821576,0.0275788201753884,0.015055210127703087,57.45,20.1,23.25
-982.91016,-43.94531,-166.99219,0.05875493847206231,-0.0377045223637587,-0.01851916509413623,1.5,25.65,29.4,-73.24219,101.07422,983.39844,0.11044862385640596,-0.015321547371557422,-0.002664594169019743,72.0,9.15,87.0,-818.35937,-2.44141,605.95703,-0.030643269276040042,-0.0013323843509724712,0.01585457092511649,57.45,20.1,23.25
-981.44531,-45.89844,-166.99219,0.022516143614128445,0.007061253087718659,-0.08779931162035035,1.65,23.7,30.0,-62.5,105.95703,998.53516,0.08993105676873621,0.011324568851565207,-0.005196019716112318,69.75,10.35,87.45,-815.91797,-16.11328,605.46875,-0.03317452029020742,-0.03317452029020742,0.01851916509413623,57.3,20.7,23.85
-973.63281,-42.48047,-170.89844,0.02744565155346123,0.011857592405124276,-0.12230621626153024,1.65,23.7,30.0,-64.94141,117.67578,1000.97656,0.09459422746421467,-0.010125527655445103,0.023715184810248553,69.75,10.35,87.45,-834.47266,-32.22656,607.91016,-0.05902145024884184,-0.0022649137703130416,0.0283781809728018,57.3,20.7,23.85
-957.03125,-38.57422,-171.38672,0.031708967317307775,0.010525208054151804,-0.04449926367469782,1.2,23.1,29.85,-68.84766,124.02344,1000.0,0.1418912539298594,0.00186523337160634,0.027845331952167932,69.6,9.0,87.9,-830.56641,-9.76562,600.09766,-0.03384071246569365,-0.007061253087718659,0.0567565364785288,57.3,21.0,23.1
-960.9375,-52.73438,-158.69141,0.06301842876883405,-0.03490658503988659,-0.012790121824464847,1.2,23.1,29.85,-73.73047,132.32422,1000.0,0.09086376072100198,0.03384071246569365,0.05089432458693025,69.6,9.0,87.9,-826.17187,-8.30078,593.75,-0.04103530870826468,-0.0017320647496791726,0.02011788668896304,57.3,21.0,23.1
-953.61328,-49.31641,-155.76172,0.04716385784371757,-0.015188378749630253,0.002664594169019743,1.2,23.1,29.85,-62.01172,127.44141,1004.88281,0.14095872451051883,-0.0005328490206338688,0.06834761710687355,70.8,9.6,86.7,-802.73437,8.78906,611.32812,-0.04649766566823133,0.05116083636370978,0.03424039286440035,57.3,21.0,23.1
-944.33594,-52.24609,-163.57422,0.07047936225525941,-0.019318525891549636,-0.020650910242522108,1.2,23.1,29.85,-62.98828,127.92969,997.07031,0.07207808385008622,-0.00746093348642536,0.07807346436361194,70.8,9.6,86.7,-824.70703,-3.90625,605.95703,-0.04010260475599891,-0.02558041818185489,0.009192998236104533,56.55,19.5,23.85
-963.37891,-48.82813,-179.19922,0.02011788668896304,0.10805054146416575,-0.04449926367469782,1.35,23.7,30.0,-64.94141,121.58203,1021.48437,0.05502447172884963,0.007061253087718659,0.08766614299842318,70.8,9.6,86.7,-812.5,-2.44141,611.32812,-0.026912627999902163,0.02145027103993551,0.0575558972759422,56.55,19.5,23.85
-954.10156,-47.36328,-166.01562,0.017320123898016127,0.0668820641339739,-0.02145027103993551,1.35,23.7,30.0,-68.35938,84.96094,1011.23047,-0.006128723668378088,0.01625425132382319,0.08673361357908262,70.8,9.6,86.7,-808.10547,-12.20703,593.75,-0.03317452029020742,0.016653931722529894,0.00559570011481902,57.15,20.85,22.95
-960.9375,-41.99219,-174.80469,-0.0006661921754862356,0.05089432458693025,0.010525208054151804,1.2,24.15,29.4,-71.77734,86.91406,1032.71484,0.04303371070179819,-0.0015987215948268059,0.07420982899847209,72.15,9.75,86.55,-819.82422,6.83594,603.02734,-0.05129400498563695,0.007194421709645826,0.05369226191080236,57.15,20.85,22.95
-964.35547,-37.10938,-179.19922,0.04689734606693803,0.043699902877284424,-0.011324568851565207,1.2,24.15,29.4,-66.40625,74.70703,1037.10938,0.03903673218180597,0.010125527655445103,0.1541485267336904,72.15,9.75,86.55,-803.71094,-12.69531,604.00391,-0.0924624823158288,0.01065855120900417,-0.006661572689011957,57.15,20.85,22.95
-986.81641,-43.94531,-190.42969,0.03837054000631974,0.05209336578305035,0.0015987215948268059,1.05,23.7,29.25,-61.03516,77.63672,1018.06641,0.024381376985734785,-0.009725847256738402,0.08153759386297028,70.5,9.9,88.05,-808.10547,-20.99609,603.02734,-0.06901380928235978,-0.03264167126957355,0.05982081104625525,57.15,20.85,22.95
-979.98047,-38.57422,-182.61719,0.027845331952167932,0.08806582339712987,-0.013456313999951081,1.05,23.7,29.25,-53.22266,85.44922,1028.32031,0.031975479094087315,-0.03344103206698695,0.06208572481656829,70.5,9.9,88.05,-816.40625,-24.41406,613.76953,-0.09859103145128169,-0.01025887081029747,0.025047394628295826,58.5,20.85,24.0
-979.49219,-36.62109,-189.45312,-0.009192998236104533,0.05475795995207009,-0.05862176985013514,0.6,21.75,30.0,-71.28906,97.16797,1015.13672,0.0361056262360067,-0.030909606519894377,0.10485292374158693,72.15,9.3,87.6,-810.54687,-16.11328,598.63281,-0.07740727218812571,-0.03264167126957355,0.02891120452636087,58.5,20.85,24.0
-992.67578,-27.34375,-195.80078,0.010392039432224637,0.07474267801910597,-0.06128636401915488,0.6,21.75,30.0,-61.03516,103.51563,1027.83203,0.0648836621404404,-0.04596481664759746,0.10272135312612628,72.15,9.3,87.6,-808.10547,-18.55469,580.56641,-0.08886518419454328,0.004796339317405617,0.025447249559927724,58.5,20.85,24.0
-996.58203,-34.17969,-195.80078,0.0069280844657914915,0.018385996472209065,-0.0058622118915985545,0.6,21.75,30.0,-56.15234,99.12109,1038.08594,0.02238280045927608,-0.0571562168772355,0.12870145170668787,72.3,9.9,87.75,-802.24609,-32.71484,585.44922,-0.0291777163031404,-0.0013323843509724712,-0.0013323843509724712,58.5,20.85,24.0
-995.11719,-39.55078,-189.94141,-0.02238280045927608,0.08260329190423803,-0.016120908168970823,0.6,21.75,30.0,-70.3125,94.23828,1029.29688,0.023182161256689485,-0.08593407824874401,0.08953137637002952,72.3,9.9,87.75,-788.08594,-19.04297,604.00391,-0.05422511093143622,-0.010791719830931338,-0.02558041818185489,57.6,21.75,24.6
-997.07031,-36.62109,-175.78125,0.007327764864498192,-0.03823737138439257,0.01585457092511649,1.35,24.0,30.3,-66.89453,87.89063,1030.76172,0.04076879693148514,-0.04396624012113876,0.1009892883764471,72.0,9.15,87.75,-796.38672,-19.04297,598.63281,-0.04103530870826468,0.033973881087620825,-0.02051756708766974,57.6,21.75,24.6
-997.55859,-34.17969,-191.40625,-0.023981696587028086,-0.01811948469542953,-0.014788698350923554,1.35,24.0,30.3,-50.29297,77.63672,1032.22656,0.05369226191080236,-0.015987739547043658,0.11564464357251827,72.0,9.15,87.75,-791.01562,-26.36719,580.07812,-0.05742272865401504,0.10205516095064003,0.007594102108352528,58.05,20.25,23.85
-992.1875,-44.92188,-187.98828,-0.03597245761407953,-0.016520588567677526,-0.017986141540577164,-1.05,24.3,29.25,-39.55078,96.19141,1030.76172,0.060487003221741484,-0.05209336578305035,0.13283159884860724,70.2,10.35,85.65,-787.59766,-40.52734,584.47266,-0.04596481664759746,0.11271371215964421,-0.03277483989150072,58.05,20.25,23.85
-1008.30078,-45.41016,-185.54687,-0.02518073778314819,0.018785676870915768,-0.015454890526409788,-1.05,24.3,29.25,-40.52734,95.70313,1011.71875,0.06994633870170035,-0.022116463215421746,0.13802761856471957,70.2,10.35,85.65,-799.80469,-48.33984,593.26172,-0.03304135166828025,0.11444560237639817,-0.05875493847206231,55.5,20.7,24.9
-1004.88281,-56.15234,-192.38281,-0.04596481664759746,-0.06381778956624745,-0.028245012350874635,1.65,23.25,28.95,-37.10938,97.65625,1027.83203,0.07714093494427138,-0.025846929958634426,0.12550383398410905,70.2,10.35,85.65,-793.94531,-62.98828,606.93359,-0.017186780743163762,0.14135840490922555,-0.0855343978500373,55.5,20.7,24.9
-1019.04297,-57.12891,-198.24219,-0.05369226191080236,-0.03304135166828025,-0.028644692749581334,1.65,23.25,28.95,-33.20313,95.70313,1006.34766,0.12590351438281575,-0.023981696587028086,0.0835359958565038,70.2,10.35,85.65,-783.69141,-84.47266,600.09766,0.016920443499309427,0.13696174599052663,-0.07514235841781267,57.6,21.45,24.15
-1013.18359,-41.50391,-196.77734,0.005062851094185151,-0.024514545607661954,-0.010125527655445103,0.75,25.35,29.4,-23.92578,83.98438,989.74609,0.08859884695068895,-0.023981696587028086,0.12430479278798894,71.4,8.55,87.15,-796.875,-86.42578,562.5,0.04356655972243205,0.13642872243696755,-0.0186523337160634,57.6,21.45,24.15
-1029.78516,-45.89844,-192.87109,-0.020784078864449274,-0.1184425808963904,0.024381376985734785,0.75,25.35,29.4,-42.96875,87.89063,973.14453,0.07074587403203896,-0.03024341434440814,0.09446088430936231,71.4,8.55,87.15,-796.38672,-100.09766,557.12891,0.05049464418822355,0.1462879128485583,-0.03117611829667391,57.45,20.1,23.7
-1033.20313,-28.32031,-189.45312,-0.005196019716112318,-0.06301842876883405,0.010392039432224637,0.75,25.35,29.4,-41.01563,96.67969,959.47266,0.04689734606693803,0.007594102108352528,0.09952373540354745,71.55,9.9,86.7,-797.36328,-100.09766,550.78125,0.061419532641082054,0.13642872243696755,-0.04689734606693803,57.45,20.1,23.7
