IMU1_AccX,IMU1_AccY,IMU1_AccZ,IMU1_GyrX,IMU1_GyrY,IMU1_GyrZ,IMU1_MagX,IMU1_MagY,IMU1_MagZ,IMU2_AccX,IMU2_AccY,IMU2_AccZ,IMU2_GyrX,IMU2_GyrY,IMU2_GyrZ,IMU2_MagX,IMU2_MagY,IMU2_MagZ,IMU3_AccX,IMU3_AccY,IMU3_AccZ,IMU3_GyrX,IMU3_GyrY,IMU3_GyrZ,IMU3_MagX,IMU3_MagY,IMU3_MagZ
-964.84375,-31.25,-316.40625,-0.10192181779578767,0.0575558972759422,-0.04969528339081014,-3.0,24.9,24.9,-127.44141,2.92969,1052.73438,0.1077840296873862,0.08699995082293695,-0.030909606519894377,72.45,6.75,86.1,-817.38281,76.17188,596.67969,0.3181562438789715,-0.002398082392240209,-0.006794741310939124,56.7,25.65,24.0
-952.63672,-41.50391,-328.61328,-0.041301645952119014,0.03557277721537283,-0.05395859915465669,-2.55,24.9,24.6,-136.23047,-23.92578,1045.89844,0.06022049144496195,-0.012790121824464847,-0.039569755735365045,71.4,6.75,86.55,-826.17187,68.35938,597.65625,0.28058506467006517,0.0373046674321268,-0.021050590641228807,56.7,25.65,24.0
-947.26562,-42.48047,-337.40234,-0.03570594583729999,0.02038439846574257,-0.047430369620497105,-2.55,24.9,24.6,-121.58203,-20.50781,1013.18359,0.03570594583729999,-0.077007591789419,-0.008526806060618296,72.15,4.05,86.55,-815.91797,58.59375,555.17578,0.3328115990750427,0.03783769098568587,-0.07114555443074566,57.3,25.8,23.55
-956.54297,-39.0625,-334.96094,-0.022915824012835147,0.020784078864449274,-0.09059724894422246,-3.6,24.15,24.9,-110.35156,-53.22266,990.23437,0.039969436134071744,-0.1017886491738605,0.021316927885083145,72.15,4.05,86.55,-827.63672,45.41016,573.24219,0.27805363912297265,-0.015987739547043658,-0.019318525891549636,56.1,26.1,24.3
-997.07031,-41.01563,-337.89062,-0.0361056262360067,0.10045643935581322,-0.06248540521527499,-2.4,24.75,24.3,-100.58594,-38.08594,988.76953,0.11044862385640596,0.07514235841781267,-0.012790121824464847,71.25,6.6,86.25,-829.58984,37.10938,573.24219,0.24874275419790506,0.003463954966433146,-0.007727445263204894,55.2,26.55,23.55
-983.88672,-38.57422,-327.63672,-0.03783769098568587,-0.01958503766832917,-0.0831363154577971,-4.05,24.9,24.9,-131.34766,-26.85547,994.62891,0.17906275274005903,0.03357420068891412,-0.04023577337792608,71.55,6.15,86.7,-837.89062,9.76562,561.03516,0.3027013533525617,-0.04356655972243205,-0.003463954966433146,56.7,24.9,24.3
-958.98437,-24.41406,-331.54297,-0.029044373148288036,-0.08233695466038368,0.017986141540577164,-1.35,23.25,25.35,-92.28516,-51.26953,999.02344,0.19838127863160868,0.060087322823034785,0.008793317837397832,71.55,5.7,86.25,-828.125,-10.74219,559.08203,0.2696600016842815,-0.04276719892501865,-0.057689065897869374,57.0,26.55,24.6
-961.42578,-9.76562,-343.26172,-0.11870909267316991,-0.0011990411961201044,-0.02411486520895525,-1.35,23.25,25.35,-155.76172,4.88281,1030.76172,0.15388201495691084,0.09512707648484854,0.019984718067035872,71.55,5.7,86.25,-818.35937,-33.20313,549.31641,0.27272427625200796,0.0002665117767795341,-0.05449162270821576,57.6,25.8,22.5
-964.35547,5.85937,-329.58984,-0.08886518419454328,-0.03916990080373314,-0.02744565155346123,-2.7,24.0,24.3,-154.78516,-12.20703,1025.87891,0.10511943551836647,0.009859190411590769,0.011457912006417574,71.25,4.2,86.25,-818.84766,-41.50391,572.26562,0.34440267970338745,-0.014522186574144018,-0.09792501380872065,57.6,25.8,22.5
-965.33203,0.0,-325.19531,-0.08939820774810235,-0.05462479133014293,0.0579555776746489,-2.7,24.3,24.75,-109.86328,22.46094,1083.00781,-0.1524164619840112,-0.061819213039788753,-0.018385996472209065,72.9,6.0,87.15,-844.72656,-39.55078,576.17187,0.3333446226286018,0.0031976177225788113,-0.10725118066675235,56.25,25.8,22.8
-948.73047,-7.32422,-321.77734,-0.08007204089007065,-0.11164783958545127,0.05342575013402282,-3.3,23.85,24.15,-157.22656,-57.12891,948.73047,-0.34973204257435214,-0.03464007326310706,0.07607506237007844,72.9,6.0,87.15,-848.63281,-13.18359,547.85156,0.3717151626349215,0.022116463215421746,-0.05449162270821576,56.25,25.8,22.8
-979.49219,-29.78516,-316.89453,-0.14135840490922555,-0.07101221127589329,0.0,-2.55,24.15,24.15,-107.91016,-47.36328,1023.92578,-0.2133031456044594,-0.09579326866033477,0.07580855059329891,71.25,4.2,84.6,-831.54297,33.20313,604.00391,0.40528936332383564,-0.00839363743869113,-0.15308265415949743,56.7,25.65,24.0
-971.67969,-21.48438,-310.05859,-0.06235223659334782,-0.12230621626153024,0.034107224242473186,-2.55,24.15,24.15,-111.81641,-93.26172,1018.55469,-0.2103722141915853,-0.13722825776730616,0.015721227770264124,71.7,7.05,86.85,-819.82422,58.59375,576.17187,0.40848698104641445,-0.00279793732387211,-0.15068457176725725,56.4,24.9,21.6
-978.51562,-20.50781,-301.26953,-0.12110717506541013,-0.07647474276878514,-0.00279793732387211,-2.55,25.65,24.15,-112.79297,-49.80469,1000.48828,-0.1099157748357721,-0.10245484134934674,0.008127125661911596,72.45,6.3,87.15,-818.84766,92.28516,569.82422,0.4123506164115543,-0.0186523337160634,-0.16587295051688747,55.2,24.3,24.15
-964.84375,-13.67187,-308.10547,-0.08926486459324998,-0.11258036900479183,-0.09033073716744291,-3.3,24.9,25.95,-83.00781,-10.25391,1008.78906,-0.14655442462533785,-0.08486838020747627,-0.0058622118915985545,72.45,6.3,87.15,-830.07812,89.35547,601.07422,0.3041669063254614,0.0015987215948268059,-0.15881169742916884,56.55,25.5,23.85
-969.23828,0.97656,-305.66406,-0.06461715036366086,-0.17466609382136014,0.0454317930940384,-2.55,25.35,25.65,-101.5625,-35.15625,1035.64453,0.07580855059329891,-0.00013316862192716734,-0.08753297437649601,72.0,3.9,85.65,-830.56641,107.91016,575.68359,0.29617312381840216,0.03797085960761303,-0.20610872389481358,57.3,24.0,23.1
-979.00391,-7.8125,-306.64062,-0.06541651116107426,-0.1821270273077855,0.010525208054151804,-3.15,24.75,25.35,-114.74609,-32.22656,1007.8125,0.014255674797364485,0.001065872574192937,-0.028777861371508503,73.5,6.0,86.55,-833.98437,60.05859,577.14844,0.25527098373206464,0.04143498910697138,-0.2679279369346023,56.7,27.15,22.2
-978.51562,-0.97656,-307.61719,-0.08406884487713767,-0.14508887165243822,-0.06741508768753297,-3.15,24.75,25.35,-123.53516,-15.625,1077.14844,0.01585457092511649,-0.05209336578305035,-0.045032112695331694,72.0,5.7,86.25,-821.77734,24.90234,585.44922,0.22689280275926285,0.024514545607661954,-0.24874275419790506,56.7,27.15,22.2
-996.58203,20.01953,-302.73437,-0.08713329397778931,-0.15148393256467063,0.006661572689011957,-3.15,25.5,24.3,-131.34766,-12.20703,1056.64063,-0.11817606911961086,-0.035839288992152364,-0.05702304825530834,72.15,6.0,85.8,-853.51562,9.27734,560.05859,0.25873511323142295,0.031575798695380616,-0.2302235891037688,56.25,25.05,23.55
-998.53516,10.25391,-316.40625,-0.02731248293153406,-0.22036439869217805,-0.019851374912183504,-3.15,24.0,25.35,-136.23047,-31.25,1019.04297,-0.23368754407020198,-0.0896645449919567,0.005728868736746187,72.45,4.8,85.8,-845.70312,-22.46094,567.87109,0.27792029596812023,0.0482297304179105,-0.1877227274226045,56.25,25.05,23.55
-971.67969,11.71875,-316.40625,-0.06115319539722772,-0.18585766858392339,-0.05862176985013514,-2.1,24.75,26.1,-153.32031,-74.70703,1004.39453,-0.344669191480167,-0.09126344111970869,0.027712163330240767,72.0,6.15,87.0,-871.58203,-17.08984,584.47266,0.31535830655509944,0.009192998236104533,-0.16600611913881466,55.5,26.25,23.55
-979.98047,0.48828,-315.42969,-0.12976714974795558,-0.18439211561102373,-0.0567565364785288,-3.6,24.9,24.6,-134.76562,-140.13672,1035.64453,-0.3857045001884317,-0.13509651261892028,0.011324568851565207,72.0,6.15,87.0,-879.88281,-7.32422,550.78125,0.3554609113110983,-0.019185357269622467,-0.17626498994911213,56.25,24.0,22.5
-968.75,-12.69531,-318.35937,-0.06621587195848767,-0.20864014944190615,-0.03264167126957355,-3.6,24.9,24.6,-125.97656,-86.42578,1005.37109,-0.444459438660494,-0.09539358826162808,0.007327764864498192,71.4,4.5,87.6,-860.35156,9.76562,542.96875,0.37611182155362044,-0.040901965553412314,-0.13403064004472734,56.25,24.0,22.5
-948.73047,-15.13672,-293.94531,-0.09712565301130725,-0.14535520889629253,-0.056356856079822104,-2.1,24.75,25.8,-121.09375,-157.22656,991.69922,-0.3782433921690811,-0.18345941165875795,-0.051960197161123184,71.55,4.2,85.65,-835.9375,63.47656,553.71094,0.3551943995343188,-0.047696706864351436,-0.10152213739708096,56.55,24.75,23.85
-938.47656,-38.57422,-280.27344,-0.10618530809255941,-0.12190653586282353,-0.094860564708069,-1.8,24.6,25.65,-282.22656,-142.57812,974.60937,-0.23288818327278857,-0.3296141558853891,-0.1228392398150893,71.55,4.65,86.7,-845.21484,90.82031,572.26562,0.33587587364276916,-0.05275955795853659,-0.12084066328863059,56.25,24.75,23.55
-942.38281,-56.15234,-271.97266,-0.06395095818817463,-0.11910877307187663,-0.04556513624889076,-1.8,24.15,26.25,-87.89063,-180.66406,839.84375,-0.1317657262744143,-0.3032343769061208,-0.12630319478152247,71.55,4.65,86.7,-860.83984,91.79688,550.78125,0.26020066620432264,0.047696706864351436,-0.09859103145128169,55.5,25.8,22.8
-950.19531,-57.12891,-260.25391,-0.13363095964602065,-0.055690663904335864,-0.024914226006368657,-1.8,24.15,26.25,-66.89453,-70.3125,951.66016,-0.1353630243956998,-0.5902145024884184,-0.1795957762936181,71.4,3.3,87.15,-841.79687,87.89063,545.89844,0.22622661058377663,-0.009459335479958867,-0.14575488929499925,55.8,24.3,22.5
-952.63672,-36.62109,-253.90625,-0.1253706653621819,-0.02331550441154185,-0.06075351499852101,-2.7,25.05,26.1,-131.34766,-4.88281,1032.71484,0.07647474276878514,-0.4330015266540764,-0.2161010829283315,72.15,4.5,87.15,-852.53906,101.5625,583.98437,0.25607051906240325,-0.06301842876883405,-0.11164783958545127,55.8,24.3,22.5
-937.5,-33.20313,-270.99609,-0.1313660458757076,-0.045032112695331694,0.04676417744501087,-2.25,24.9,26.1,-113.76953,-48.82813,952.14844,0.07860648791717102,-0.15801233663175543,-0.23342120682634765,72.15,4.5,87.15,-824.21875,84.47266,554.6875,0.25287290133982443,-0.05422511093143622,-0.17653132719296646,55.8,25.5,23.85
-954.10156,-14.16016,-257.8125,-0.2613997074004427,0.01358965715480345,0.08540122922811014,-2.55,24.9,24.6,-147.46094,-22.94922,985.35156,0.033973881087620825,-0.20650840429352027,-0.273257299805567,72.15,4.5,87.15,-808.59375,107.42188,576.66016,0.25207354054241105,-0.07007968185655272,-0.20930634161739237,55.8,25.5,23.85
-966.79687,-19.04297,-266.60156,-0.342937301263413,0.017852972918649995,0.02931088492506757,-2.55,24.9,25.2,-101.5625,-85.44922,994.14062,0.0275788201753884,-0.12310575159186884,-0.2105053828135125,70.2,3.9,86.25,-822.75391,105.46875,541.50391,0.23741801081341463,-0.05688970510045597,-0.2343537362456882,55.8,24.0,23.55
-956.05469,-27.34375,-261.71875,-0.31256054376415254,-0.07034601910040704,0.14495552849758583,-1.2,24.9,25.95,-84.47266,-78.125,1018.55469,0.030376757499260505,-0.22622661058377663,-0.2173001241244516,71.25,4.65,87.75,-791.99219,80.07813,544.43359,0.20077953555677408,-0.08913169597132281,-0.16693882309108043,57.15,23.4,23.25
-963.86719,-59.08203,-277.83203,-0.31922211645316445,-0.08859884695068895,0.18718987840197063,-1.2,24.9,25.95,-66.40625,-96.19141,977.05078,-0.10685150026804564,-0.2347534166443949,-0.14722044226789888,69.75,5.7,87.0,-821.77734,87.89063,577.63672,0.1470872736459717,-0.03837054000631974,-0.15721280130141685,56.25,24.3,23.85
-979.49219,-61.52344,-270.01953,-0.3198883086286507,-0.045698304870817934,0.14775346582145796,-3.75,27.3,25.8,-45.41016,-109.86328,964.84375,-0.019318525891549636,-0.15388201495691084,-0.1728008604497538,69.75,5.7,87.0,-808.10547,68.35938,560.05859,0.14548855205114491,-0.00186523337160634,-0.1799954566923248,56.4,23.1,23.25
-986.32812,-50.29297,-281.25,-0.27112555465718113,-0.018385996472209065,0.11364624157898477,-3.0,26.1,25.95,-47.85156,-67.87109,955.07812,0.004263315763846549,-0.18279321948327173,-0.1869233666251911,71.1,3.3,86.55,-804.6875,83.49609,575.68359,0.1613431229762614,0.0046631706954784495,-0.19132002554389002,56.25,24.75,21.75
-989.74609,-34.17969,-280.76172,-0.21769980452315832,-0.05995397966818241,0.1641408857672083,-3.15,25.8,24.75,-51.75781,-26.36719,980.95703,0.05915461887076901,-0.14442267947695198,-0.18665702938133677,69.75,3.45,87.45,-801.75781,110.83984,562.01172,0.20424349052320723,0.008926486459324997,-0.20291110617223476,56.7,23.1,23.25
-972.16797,8.78906,-270.99609,-0.19691572565870902,-0.12683621833508152,0.1684043760639801,-1.2,25.65,24.9,-46.875,-16.11328,1007.32422,0.04023577337792608,-0.07687442316749184,-0.17133530747685413,69.45,3.9,87.45,-816.89453,113.76953,540.52734,0.15188361296337732,0.03357420068891412,-0.18266005086134454,56.7,23.1,23.25
-973.63281,24.41406,-284.66797,-0.2613997074004427,0.008526806060618296,0.06808110533009401,-1.2,25.65,24.9,-67.87109,-12.20703,1029.78516,-0.007993957039984428,-0.08673361357908262,-0.18106132926651775,72.3,3.15,88.5,-805.66406,134.27734,563.47656,0.20291110617223476,-0.0014655529728996386,-0.1366952342137471,57.9,23.85,23.25
-975.09766,41.50391,-282.22656,-0.16773818388849382,-0.06728174453268061,0.06341810916754076,-1.65,25.8,26.1,-78.61328,-8.30078,1018.06641,-0.06088668362044818,-0.04609798526952463,-0.13562936163955416,70.5,3.9,87.45,-822.26562,121.58203,555.66406,0.17813022332071848,0.04396624012113876,-0.14455584809887914,57.6,24.3,22.5
-981.44531,32.71484,-284.17969,-0.21823282807671737,-0.09605978043711431,0.09819135105257498,-1.65,25.05,25.05,-104.00391,-14.64844,1021.48437,-0.12950081250410125,-0.10272135312612628,-0.04250068714823912,69.9,4.5,88.35,-799.31641,132.8125,548.82812,0.1163108357480045,0.022649312236055614,-0.1212403436873373,58.05,24.3,23.55
-957.03125,27.83203,-266.11328,-0.22342884779282968,-0.06301842876883405,0.034373736019252726,-1.35,27.75,26.1,-65.42969,-57.12891,1012.69531,-0.2051760199425478,-0.11937511031573096,0.019984718067035872,69.9,4.5,88.35,-812.01172,125.0,579.10156,0.03357420068891412,0.09033073716744291,-0.1536156777130565,56.25,24.0,23.1
-931.15234,-7.32422,-259.76562,-0.1460214010717788,-0.09099692934292915,0.031309286918601076,-2.7,26.25,26.4,-78.125,-90.33203,965.33203,-0.150018379591771,-0.061419532641082054,0.016120908168970823,69.75,3.45,87.0,-796.875,114.74609,561.52344,0.03530626543859329,0.04010260475599891,-0.11804290049768368,57.3,23.25,24.6
-922.85156,-6.83594,-253.90625,-0.11377941020091194,-0.0684807857288007,0.005995380513525721,-2.7,26.25,26.4,-82.51953,-130.37109,933.59375,-0.22289582423927062,-0.058888281626914674,-0.001065872574192937,69.9,4.05,86.85,-805.66406,94.72656,561.52344,-0.006794741310939124,0.05022813241144401,-0.14695410502404457,57.0,22.95,23.1
-915.03906,-3.41797,-250.0,-0.1289677889505422,-0.014522186574144018,-0.10725118066675235,-3.3,27.15,27.0,-63.96484,-115.72266,959.96094,-0.13349761649116829,0.02518073778314819,-0.06395095818817463,70.65,3.75,87.9,-812.98828,85.44922,566.89453,0.0186523337160634,0.10511943551836647,-0.11098164740996504,57.0,22.95,23.1
-893.55469,17.57813,-251.95312,-0.09019756854551575,0.03983609297921937,-0.09672579807967534,-2.25,25.35,27.3,-84.47266,-73.73047,979.00391,-0.02558041818185489,0.009859190411590769,-0.04156815772889855,70.65,3.75,87.9,-844.23828,63.96484,577.63672,-0.02611326720248876,0.05235987755982989,-0.13283159884860724,56.7,23.4,23.25
-906.25,-0.48828,-250.97656,-0.035173096816666125,0.026646290756047828,-0.08193727426167699,-1.2,25.65,27.3,-89.84375,-95.70313,1022.46094,0.04050228515470561,0.0030642745677264445,-0.031309286918601076,70.8,2.7,87.0,-838.86719,76.66016,595.21484,-0.007594102108352528,0.06954665830299364,-0.14975186781499147,56.7,23.4,23.25
-924.31641,-21.48438,-276.36719,-0.07780712711975761,0.06888046612750741,-0.10232167272741956,-2.7,27.3,26.1,-122.07031,-107.42188,1031.25,-0.045698304870817934,0.010924888452858507,-0.04050228515470561,70.2,4.65,88.5,-865.23437,77.63672,599.60937,0.029577396701847107,0.07634157414685798,-0.09539358826162808,56.7,23.4,23.25
-926.26953,-28.80859,-288.57422,-0.08833233517390941,0.10005658442418133,-0.08047172128877735,-2.7,27.3,26.1,-115.72266,-118.65234,1053.22266,-0.08100457030941122,-0.005728868736746187,-0.004796339317405617,70.2,4.65,88.5,-863.28125,73.73047,587.89062,-0.014788698350923554,0.09712565301130725,-0.05955429926947571,57.6,22.95,22.05
-928.71094,-54.19922,-318.35937,0.030643269276040042,0.11337972980220523,-0.051960197161123184,-1.8,26.4,26.25,-120.60547,-128.90625,1047.85156,-0.15188361296337732,-0.03530626543859329,0.004929507939332785,70.65,1.05,87.6,-864.74609,82.51953,565.42969,0.03837054000631974,0.1029876903699806,-0.05622351292496973,57.15,23.1,23.25
-948.73047,-40.52734,-322.75391,-0.0022649137703130416,0.17946243313876573,-0.051960197161123184,-2.1,27.0,26.1,-111.81641,-133.30078,1010.74219,-0.12830177130798115,-0.017053612121236593,-0.007993957039984428,70.2,4.2,85.95,-870.60547,97.65625,565.91797,0.017053612121236593,0.10831705324094529,-0.1013889687751538,57.15,22.65,22.65
-970.70312,-38.08594,-333.49609,0.008260294283838763,0.17386673302394673,-0.02571358680378206,-1.65,25.8,25.35,-121.58203,-130.37109,1009.76562,-0.05395859915465669,-0.00373046674321268,-0.0015987215948268059,69.75,4.65,86.7,-850.58594,99.12109,571.28906,-0.018785676870915768,0.09472739608614184,-0.02651294760119546,57.0,22.5,22.5
-983.39844,-47.36328,-334.47266,0.05235987755982989,0.12190653586282353,-0.025447249559927724,-1.35,26.55,26.85,-107.42188,-118.16406,1018.06641,0.017852972918649995,-0.015188378749630253,0.04170132635082572,69.75,4.65,86.7,-857.42187,109.375,551.75781,0.004796339317405617,0.0466310088230837,-0.006794741310939124,58.05,22.5,23.1
-994.62891,-44.43359,-336.91406,0.06368444641139509,0.13083302232214852,-0.08899852734939565,-1.35,26.55,26.85,-95.21484,-97.65625,1025.87891,0.023048992634762316,0.008659974682545464,-0.039569755735365045,69.6,3.0,87.6,-876.46484,105.95703,589.84375,-0.0936615235119489,0.0291777163031404,-0.026646290756047828,56.4,23.1,22.2
-992.67578,-36.62109,-336.42578,0.04330022247857772,0.10325420214676014,-0.039569755735365045,-2.55,27.15,26.25,-95.70313,-85.44922,1027.83203,0.0466310088230837,0.04929560299210344,-0.032375159492794015,70.8,3.15,88.05,-866.21094,115.72266,588.37891,-0.17466609382136014,0.002131745148385874,0.03317452029020742,56.4,23.1,22.2
-1002.44141,-34.66797,-335.9375,0.06621587195848767,0.04996179516758968,0.04196783812760525,-0.75,25.65,25.95,-86.91406,-81.54297,1030.76172,0.04902909121532391,0.025846929958634426,0.026779459377974997,69.75,4.2,87.45,-851.07422,76.66016,595.21484,-0.14801997759823748,0.03104294967474674,0.0458314734927451,56.4,23.85,21.6
-990.23437,-30.76172,-335.9375,0.004263315763846549,0.029044373148288036,0.00839363743869113,-1.8,26.7,25.95,-59.08203,-71.77734,1034.17969,0.0182526533173567,0.034773416417959425,0.07487602117395832,68.85,3.0,87.15,-838.86719,72.26563,602.53906,-0.2291577165295759,0.035173096816666125,-0.009592678634811233,56.4,23.85,21.6
-975.09766,-33.69141,-324.70703,-0.019851374912183504,0.05129400498563695,-0.029710565323774273,-2.7,25.8,25.35,-51.75781,-96.67969,1024.90234,-0.04143498910697138,0.041301645952119014,0.06901380928235978,68.25,2.7,86.7,-822.75391,64.45313,600.58594,-0.22276265561734346,0.008659974682545464,0.0190520141147701,57.0,23.25,21.3
-955.07812,-44.43359,-311.52344,0.06168604441786158,-0.0486294108166172,0.04489894407340452,-2.7,25.8,25.35,-54.6875,-134.27734,1016.11328,-0.059421130647548545,0.04183466950567808,0.1192419416938038,71.1,1.5,87.15,-829.10156,62.5,605.46875,-0.18838891959809073,0.02424803383088242,0.026779459377974997,57.0,21.75,22.5
-957.51953,-43.94531,-284.66797,0.03330786344505979,-0.0046631706954784495,-0.04449926367469782,-2.55,25.65,25.95,-64.94141,-157.22656,1000.0,-0.03623896939085906,-0.006128723668378088,0.03623896939085906,71.1,1.5,87.15,-812.98828,57.12891,609.375,-0.19651604526000233,0.017320123898016127,0.04809656179598333,58.2,24.6,22.2
-953.61328,-46.875,-295.41016,-0.016120908168970823,0.011324568851565207,-0.032375159492794015,-1.8,25.35,25.2,-50.29297,-143.55469,1020.01953,-0.0015987215948268059,0.01771980429672283,0.08593407824874401,70.65,2.25,87.9,-825.19531,26.36719,592.28516,-0.17813022332071848,0.0275788201753884,0.06714857591075343,57.3,24.0,22.8
-945.3125,-41.99219,-301.75781,0.0920628019171221,-0.05822208945142844,-0.037171498810199634,-2.55,26.1,25.95,-62.01172,-128.41797,1011.23047,0.04676417744501087,0.00652840406708479,0.05582383252626303,69.6,3.75,88.35,-822.75391,38.57422,588.86719,-0.1605435876459228,-0.01771980429672283,0.0863337586474507,57.45,22.35,23.25
-935.54687,-42.48047,-281.25,0.07274427602557246,-0.04729702646564473,-0.03930324395858551,-1.8,25.65,26.7,-66.40625,-133.78906,1032.22656,0.035173096816666125,0.030376757499260505,0.09379486666680127,70.65,3.0,87.9,-808.59375,24.90234,591.30859,-0.17293420360460615,0.029710565323774273,0.0575558972759422,56.7,23.85,23.25
-942.38281,-48.82813,-280.76172,0.01811948469542953,0.0046631706954784495,-0.08380250763328333,-1.8,25.65,26.7,-74.70703,-100.58594,1019.04297,0.04383307149921159,0.06128636401915488,0.035839288992152364,70.65,3.0,87.9,-810.54687,41.50391,569.33594,-0.1601439072472161,0.05009496378951684,0.07714093494427138,56.7,23.85,23.25
-946.28906,-50.78125,-280.27344,0.08020520951199782,-0.04929560299210344,-0.06088668362044818,-1.65,26.55,25.35,-80.56641,-106.44531,1003.41797,0.007727445263204894,0.026912627999902163,0.10018992757903368,70.65,3.0,87.9,-818.84766,32.71484,554.19922,-0.19132002554389002,0.02651294760119546,0.07527570157266503,56.7,22.35,22.95
-967.28516,-47.36328,-285.64453,0.08326948407972427,-0.03677181841149293,-0.01305663360124438,-2.4,26.25,25.35,-65.42969,-127.44141,988.76953,0.030509926121187674,0.02944405354699474,0.06661555235719438,70.8,3.45,88.5,-812.98828,40.03906,552.24609,-0.21783314767801065,0.07141189167459998,0.07261110740364529,56.7,22.35,22.95
-969.72656,-66.40625,-285.15625,0.13043334192344183,-0.06581619155978097,-0.06155287579593442,-3.3,26.1,25.95,-69.82422,-120.60547,958.98437,0.03930324395858551,0.08260329190423803,0.02464771422958912,69.9,4.8,87.15,-806.64062,41.01563,552.73437,-0.19105351376711047,0.060487003221741484,0.04929560299210344,56.7,23.4,22.2
-953.61328,-44.43359,-276.85547,0.07687442316749184,-0.017586461141870464,-0.05489130310692246,-3.3,26.1,25.95,-62.01172,-109.86328,941.40625,0.04010260475599891,0.04476577545147736,0.08913169597132281,69.9,4.8,87.15,-828.61328,44.43359,580.56641,-0.23621896961729455,0.044099583275991124,0.07913933693780488,57.0,24.0,22.5
-957.03125,-52.73438,-272.94922,0.07207808385008622,-0.04689734606693803,-0.004263315763846549,-3.3,25.35,24.9,-75.19531,-120.60547,941.40625,0.05808874629657607,0.0373046674321268,0.053292581512095656,70.5,3.15,87.45,-840.33203,54.19922,551.26953,-0.2194318692728375,0.03264167126957355,0.05342575013402282,55.8,23.25,23.1
-941.40625,-46.38672,-268.06641,0.09859103145128169,-0.05928796202562137,0.018918845492842937,-1.65,25.35,24.9,-90.82031,-114.25781,949.21875,0.05982081104625525,0.07953901733651159,0.02851152412765417,70.2,2.4,87.75,-853.02734,48.82813,560.54687,-0.19811476685482912,-0.0063950609122324234,0.06408430134302699,57.15,23.1,21.6
-936.03516,-41.50391,-274.90234,0.05609034430304257,-0.008260294283838763,-0.03264167126957355,-1.65,25.8,26.4,-83.00781,-122.07031,988.28125,0.05475795995207009,0.08247012328231085,-0.019851374912183504,70.65,2.25,88.95,-832.03125,45.41016,573.73047,-0.2535390935153107,0.01492186697285072,0.10725118066675235,57.15,23.1,21.6
-939.94141,-53.22266,-269.04297,0.05369226191080236,-0.00839363743869113,0.03344103206698695,-2.4,26.55,25.8,-98.14453,-125.0,1008.30078,0.06634921511334003,0.1009892883764471,0.05116083636370978,70.65,2.25,88.95,-834.96094,52.73438,550.29297,-0.2595344740288364,0.00186523337160634,0.07847314476231865,57.15,23.1,21.6
-944.82422,-39.55078,-272.46094,0.12337208883572316,0.015055210127703087,0.027179139776681696,-3.0,26.7,26.25,-119.62891,-119.14063,1002.44141,0.11777638872090417,0.07554203881651937,0.06395095818817463,71.1,2.25,86.55,-840.33203,47.36328,576.17187,-0.3031010337512684,0.04276719892501865,0.058888281626914674,57.45,23.1,22.95
-959.96094,-12.69531,-281.73828,0.04729702646564473,0.06101985224237535,0.042634030303091486,-3.0,26.7,26.25,169.92187,-102.53906,1033.20313,0.07980552911329111,0.25393877391401737,0.029577396701847107,69.9,3.75,88.95,-836.42578,55.66406,571.28906,-0.2980383571900085,0.019451694513476805,0.0750091897958855,57.45,23.1,22.95
-975.58594,-20.01953,-296.875,0.10312103352483297,0.045032112695331694,0.023981696587028086,-2.25,26.4,25.2,-199.70703,-94.23828,949.21875,0.17213484280719277,0.43619914437665525,0.03943641258051267,71.1,3.0,88.35,-834.47266,49.31641,557.61719,-0.28844567855519726,0.024781057384441488,0.11910877307187663,58.35,22.95,23.1
-1002.92969,-21.97266,-288.08594,0.0920628019171221,0.03877022040502644,0.07127872305267281,-2.25,26.1,25.2,-93.26172,-99.60938,1008.30078,0.12656970655830196,0.23009042048184167,0.0652833425391471,71.1,3.0,88.95,-854.49219,52.24609,586.42578,-0.3643873977704233,-0.04010260475599891,0.08766614299842318,57.15,22.65,21.9
-1004.39453,-25.39063,-302.24609,0.060087322823034785,0.09126344111970869,0.026246610357341126,-2.25,25.65,26.25,-69.82422,-109.375,1039.0625,0.16081009942270233,0.28471521181198456,0.011324568851565207,70.5,3.45,87.75,-870.11719,49.80469,558.10547,-0.30376722592675465,0.0022649137703130416,0.16613928776074183,56.4,22.65,22.65
-1009.76562,-36.13281,-301.26953,0.07434299762039927,0.012390441425758144,0.02238280045927608,-2.55,26.1,25.65,-117.67578,-105.46875,1045.89844,0.12057432604477626,0.2939080355151639,0.08326948407972427,72.0,3.45,88.05,-871.58203,45.41016,575.68359,-0.3027013533525617,-0.03450690464117989,0.17906275274005903,57.3,23.7,22.8
-1005.85937,-36.62109,-304.19922,0.08020520951199782,0.012656953202537678,0.0058622118915985545,-2.55,26.1,25.65,-108.39844,-119.14063,1044.43359,0.08739963122164364,0.18319289988197843,0.05022813241144401,72.0,3.45,88.05,-872.55859,8.30078,581.05469,-0.33347779125052895,-0.003996978519992214,0.14295712650405235,56.4,23.85,22.2
-1004.88281,-41.99219,-303.22266,0.07647474276878514,0.08180393110682463,0.023048992634762316,-1.05,25.8,26.1,-110.35156,-110.83984,1042.96875,0.07754061534297808,0.12803525953120162,0.03330786344505979,71.25,2.7,87.0,-873.53516,14.16016,546.38672,-0.35292948576400573,0.022516143614128445,0.15827867387560976,57.6,24.3,22.8
-985.83984,-33.20313,-314.94141,0.12883462032861503,0.05902145024884184,0.07647474276878514,-2.55,25.35,25.65,-122.55859,-90.82031,1037.59766,0.09392803528872844,0.17133530747685413,0.09659262945774817,71.55,3.45,86.7,-866.21094,9.27734,593.75,-0.3049662671228748,0.031442630073453444,0.16507358971947408,57.6,24.3,22.8
-991.69922,-31.25,-307.61719,0.1057856276938527,0.03943641258051267,0.018918845492842937,-2.1,27.0,26.4,-129.88281,-94.72656,1013.18359,0.06235223659334782,0.17253452320589946,0.055290983505629165,70.8,3.9,87.0,-859.86328,28.80859,591.30859,-0.23555277744180833,0.04516545585018406,0.15921137782787553,56.25,24.3,23.85
-980.46875,-42.48047,-275.87891,0.06634921511334003,0.06421746996495417,0.012656953202537678,-1.5,26.7,25.95,-118.65234,-96.19141,1039.55078,0.10405356294417353,0.20291110617223476,0.0839356762552105,70.8,3.9,87.0,-856.93359,23.4375,567.87109,-0.16307501319301537,0.044099583275991124,0.19798159823290198,56.25,24.3,23.85
-956.05469,-50.29297,-288.57422,0.09392803528872844,0.07727410356619854,0.0482297304179105,-1.5,26.7,25.95,-132.8125,-95.21484,1018.55469,0.08939820774810235,0.2468775208262987,0.06901380928235978,72.15,3.3,87.9,-850.58594,59.08203,570.3125,-0.16800452113234815,0.014788698350923554,0.18186069006393116,56.55,24.0,23.85
-948.73047,-44.92188,-288.08594,0.1077840296873862,0.05315923835724329,0.04183466950567808,-3.15,25.05,25.35,-134.76562,-68.84766,1017.57812,0.02944405354699474,0.2617993877991494,0.1253706653621819,72.6,2.7,87.75,-819.82422,63.96484,533.20312,-0.14868599524079854,-0.0025314255470925756,0.1730673722265333,57.0,24.3,23.55
-940.91797,-48.82813,-266.60156,0.05382543053272952,0.10551911591707318,-0.03290818304635308,-3.15,25.05,24.75,-105.46875,-91.30859,1015.625,0.1236386006125027,0.2736569802042737,0.11750987694412462,72.6,2.7,87.75,-829.58984,57.12891,577.14844,-0.2981715258119357,0.02704597115475453,0.14935218741628475,57.0,25.05,23.85
-937.01172,-58.59375,-256.34766,0.11084847878803786,0.14002602055825306,0.09699230985645488,-3.45,24.75,26.1,-168.94531,-55.17578,1037.10938,0.02931088492506757,0.22356201641475687,0.08273663505909039,71.25,3.15,86.7,-825.68359,75.19531,562.5,-0.27099238603525394,0.11817606911961086,0.10711783751189999,57.0,24.0,22.8
-934.08203,-43.94531,-298.82812,0.16813786428720054,0.13736142638923332,0.11884226129509709,-2.55,26.1,25.2,-144.53125,-65.91797,987.79297,0.11124815918674456,0.36172280360140363,0.13509651261892028,72.45,4.05,86.1,-821.77734,25.39063,531.73828,-0.2632649407720491,0.08593407824874401,0.16387437399042878,56.4,23.4,23.25
-954.58984,-18.55469,-296.875,0.13789427540986718,0.2619325564210766,0.08326948407972427,-2.55,26.1,25.2,-135.74219,-77.63672,994.62891,0.07847314476231865,0.2558040072856237,0.04902909121532391,72.15,4.8,88.35,-812.5,35.15625,579.58984,-0.3049662671228748,0.11337972980220523,0.13189889489634146,56.7,24.9,23.25
-971.19141,-25.39063,-297.36328,0.13269825569375487,0.1293674693492489,0.12990049290280797,-3.3,26.1,25.95,-134.27734,-59.57031,1011.23047,0.1370949146124538,0.20490968269869347,0.11790973187575651,72.15,4.8,88.35,-833.49609,44.43359,536.13281,-0.24647784042759202,0.1013889687751538,0.18092798611166538,56.7,24.9,23.25
-970.21484,-17.57813,-309.57031,0.1151117945518844,0.11830941227446322,0.05808874629657607,-3.3,24.9,25.2,-106.93359,-31.25,1018.06641,0.13496316946406792,0.21916535749605795,0.13802761856471957,74.25,4.05,86.85,-814.45312,35.15625,583.00781,-0.3101622868389871,0.0486294108166172,0.1759984781723326,57.45,25.35,22.95
-974.60937,-10.74219,-296.875,0.0896645449919567,0.12830177130798115,0.04330022247857772,-3.6,25.65,24.9,-118.65234,-42.96875,1015.625,0.010525208054151804,0.1341638086666545,0.18252688223941738,72.3,5.7,87.45,-825.68359,47.85156,589.35547,-0.2595344740288364,0.06541651116107426,0.07940584871458442,57.45,25.35,22.95
-979.98047,-32.22656,-302.24609,0.11657734752478405,0.07047936225525941,0.09792501380872065,-2.55,25.65,25.95,-106.93359,-64.94141,1005.37109,0.04103530870826468,0.1212403436873373,0.1909203451451833,72.9,4.5,86.55,-835.9375,37.59766,592.77344,-0.24061562853599347,0.09272899409260832,0.18092798611166538,57.3,24.3,22.5
-964.35547,-55.17578,-294.92187,0.09925722362676792,0.022915824012835147,0.03903673218180597,-2.55,25.65,25.95,-93.26172,-95.70313,995.60547,0.04183466950567808,0.10418690609902591,0.14015918918018025,71.7,4.5,86.1,-838.37891,25.39063,645.50781,-0.2776539587242659,0.0972588216332344,0.1629418445710882,57.0,25.5,22.8
-933.10547,-34.17969,-293.45703,0.1033873707686873,0.08526806060618297,-0.03277483989150072,-1.35,25.8,25.35,-97.65625,-37.10938,1030.27344,-0.015454890526409788,0.1192419416938038,0.20530936309740017,73.2,5.25,87.6,-831.05469,37.10938,597.65625,-0.1942511314896893,0.09339518626809457,0.14828631484209184,54.9,24.9,22.8
-933.10547,-32.71484,-282.71484,0.09672579807967534,0.06701523275590107,-0.0381042027624654,-1.35,26.25,26.1,-119.62891,-121.58203,1032.71484,-0.012257272803830977,0.09832469420742734,0.15641344050400344,72.0,3.45,86.25,-830.56641,52.24609,602.05078,-0.10765086106545904,0.09939056678162028,0.14855282661887137,57.3,24.9,22.65
-931.64062,-32.22656,-279.29687,0.10898307088350632,0.10352071392353968,0.028245012350874635,-3.6,25.35,24.9,-115.72266,-65.42969,992.67578,0.0377045223637587,0.10045643935581322,0.20291110617223476,72.0,3.45,86.25,-823.73047,36.13281,632.8125,-0.09792501380872065,0.10152213739708096,0.2023782571516009,57.3,25.05,23.85
-939.45312,-33.20313,-290.52734,0.06248540521527499,0.09419454706550798,0.019318525891549636,-3.75,25.05,24.75,-95.21484,-102.53906,998.53516,0.028644692749581334,0.05955429926947571,0.17320054084846048,72.6,4.2,87.75,-828.125,20.99609,569.33594,-0.11684385930156357,0.06381778956624745,0.16533992696332844,56.7,25.35,23.25
-952.63672,-18.06641,-297.85156,0.06208572481656829,0.12137368684218967,-0.03024341434440814,-3.75,25.05,24.75,-124.51172,-63.47656,1027.34375,0.167871352510421,0.025447249559927724,0.11244720038286467,72.45,5.55,86.85,-831.05469,21.97266,588.37891,-0.17506577422006683,0.05022813241144401,0.1637412053685016,57.0,25.05,23.55
-973.63281,-28.32031,-300.29297,0.1009892883764471,0.08953137637002952,0.013855994398657782,-3.45,25.05,24.0,-108.39844,-70.3125,1008.30078,0.15907803467302317,0.03623896939085906,0.15921137782787553,72.9,5.25,86.85,-826.66016,34.66797,584.96094,-0.16693882309108043,0.08366916447843097,0.11271371215964421,57.0,25.05,23.55
-980.95703,-42.96875,-298.33984,0.01065855120900417,0.05742272865401504,-0.052226708937902724,-3.75,26.25,24.3,-125.48828,-85.44922,1017.57812,0.3643873977704233,-0.07287744464749962,0.13842729896342626,72.9,5.25,86.85,-845.70312,28.80859,585.44922,-0.2651301741436554,0.1107151356331855,0.12790191637634926,56.1,24.9,23.25
-949.21875,-41.01563,-317.87109,0.07327712504620633,0.048496242194690044,0.01958503766832917,-3.15,24.3,23.7,-118.16406,-65.91797,1031.25,0.1682710329091277,-0.1990474708070949,0.21063855143543964,72.9,5.25,86.85,-840.82031,28.32031,627.44141,-0.25313941311660393,0.059421130647548545,0.1974487492122681,56.55,27.0,23.1
-925.78125,-43.94531,-302.24609,0.09019756854551575,0.0377045223637587,0.02011788668896304,-3.6,25.35,24.6,-154.29687,-56.64063,1009.76562,0.07567538197137175,-0.11684385930156357,0.12350543199057554,70.65,4.8,86.85,-838.37891,24.90234,587.89062,-0.24274737368437935,0.06022049144496195,0.19371828246905543,57.0,25.05,22.05
-932.12891,-44.43359,-308.10547,0.0377045223637587,0.08566774100488968,0.013722825776730615,-3.6,25.35,24.6,-134.27734,-85.44922,997.07031,0.1252373222073295,-0.15468155028724945,0.15801233663175543,71.4,5.25,86.85,-838.37891,-4.88281,591.79687,-0.2206309104689576,-0.002664594169019743,0.21117157498899872,56.25,26.25,23.55
-938.47656,-39.0625,-314.94141,0.06701523275590107,0.09499390786292138,0.011058231607710873,-2.25,25.65,24.15,-152.83203,-58.59375,980.95703,0.24461260705598567,-0.04489894407340452,0.09446088430936231,71.4,5.25,86.85,-820.80078,4.88281,601.5625,-0.17679783896974602,-0.06928032105913931,0.19145336869874238,57.45,27.15,22.95
-926.75781,-29.29688,-295.41016,0.07993869773521828,0.07860648791717102,0.07407648584361974,-3.45,26.25,24.75,-121.58203,24.41406,992.1875,0.10471975511965978,-0.020784078864449274,0.18958813532713606,72.15,4.8,86.55,-826.66016,-5.85937,596.67969,-0.1634746935917221,-0.05462479133014293,0.17653132719296646,57.0,25.05,21.3
-923.82812,-13.67187,-301.75781,0.05835525807335561,0.14508887165243822,0.06634921511334003,-4.05,23.85,25.65,-116.69922,-57.61719,1028.32031,0.21676727510381774,-0.13043334192344183,0.1353630243956998,73.2,5.55,85.8,-842.77344,-3.90625,607.42187,-0.15601376010529672,-0.03677181841149293,0.1424242774834185,57.0,25.05,21.3
-909.66797,8.78906,-284.66797,0.10511943551836647,0.16800452113234815,0.03357420068891412,-4.05,23.85,25.65,-84.96094,8.78906,1032.22656,0.06874729750558024,-0.08686678220100978,0.19438430011161645,72.6,5.7,86.25,-831.05469,26.36719,610.83984,-0.17493260559813967,0.04476577545147736,0.1107151356331855,56.55,25.8,23.85
-912.10937,23.4375,-288.57422,0.06754825630946014,0.09166312151841538,0.1276355791324949,-4.05,23.85,25.65,-126.46484,12.20703,1012.69531,0.1870567097800435,-0.031975479094087315,0.21010570241480578,72.6,5.7,86.25,-846.19141,30.27344,604.49219,-0.2155680593747724,-0.02464771422958912,0.07274427602557246,56.55,25.8,23.85
-897.46094,37.59766,-297.36328,0.05342575013402282,0.1462879128485583,0.05382543053272952,-4.2,25.8,24.3,-118.16406,10.25391,1054.6875,0.1293674693492489,-0.023048992634762316,0.21916535749605795,71.7,6.0,87.6,-843.75,41.01563,620.11719,-0.17013626628073403,-0.04290054207987102,0.09339518626809457,56.55,26.55,22.8
-910.15625,21.97266,-303.22266,0.02091724748637644,0.1726676918278266,0.021849951438642212,-3.15,26.55,25.05,-109.375,14.64844,1069.33594,0.07274427602557246,0.0025314255470925756,0.20264476892838043,73.05,5.4,86.25,-832.03125,10.74219,621.09375,-0.10165548055193334,-0.06461715036366086,0.06594953471463334,55.35,25.65,22.95
-917.48047,39.55078,-305.17578,0.02278248085798278,0.10312103352483297,0.1013889687751538,-4.65,26.1,24.15,-132.8125,-4.88281,1062.5,-0.00039968039870670147,-0.02984373394570144,0.22929088515150303,72.0,6.15,85.65,-821.77734,8.78906,583.98437,-0.10618530809255941,-0.0063950609122324234,0.08620059002552354,57.45,25.65,22.2
-938.47656,35.64453,-317.38281,0.0014655529728996386,0.17972894491554528,0.0466310088230837,-4.35,24.6,24.15,-120.60547,-13.18359,1049.80469,-0.03530626543859329,-0.04969528339081014,0.24208118150889307,72.15,4.5,86.1,-816.40625,-22.46094,580.56641,-0.06368444641139509,-0.009059655081252166,0.023848353432175718,55.2,27.0,23.1
-965.33203,25.39063,-345.70312,-0.022649312236055614,0.17679783896974602,0.039969436134071744,-4.35,24.6,24.15,-137.69531,-31.25,1033.20313,0.004529827540626083,-0.06514999938429474,0.22449472036702264,71.25,6.6,87.45,-823.24219,-16.11328,573.24219,-0.011058231607710873,-0.0011990411961201044,0.04796321864113097,56.25,26.55,23.1
-973.14453,33.20313,-348.14453,-0.011324568851565207,0.10738434928867951,0.12297240843701647,-3.0,26.4,24.9,-108.39844,-64.45313,1007.32422,-0.0831363154577971,-0.01358965715480345,0.20144555319933513,71.4,7.5,87.15,-834.47266,-22.46094,566.40625,-0.06754825630946014,-0.004796339317405617,0.1452220402743654,56.7,25.65,23.25
-975.58594,19.04297,-358.39844,-0.005995380513525721,0.07740727218812571,0.0972588216332344,-3.0,25.65,23.85,-140.13672,-77.63672,991.69922,-0.0972588216332344,0.011990761027051442,0.17173498787556082,71.4,7.5,87.15,-840.33203,-15.13672,582.51953,0.0038636353651398474,-0.02571358680378206,0.06994633870170035,56.7,25.65,23.25
-971.67969,31.25,-359.86328,-0.06408430134302699,0.11298004940349854,-0.015454890526409788,-4.5,24.3,24.3,-119.62891,-83.98438,983.39844,-0.08380250763328333,-0.0029311059457992773,0.1849249646316576,72.0,6.6,87.0,-835.9375,4.39453,555.17578,0.05036147556629638,-0.0058622118915985545,0.02464771422958912,56.7,25.35,22.65
-944.33594,41.01563,-353.51562,-0.018918845492842937,0.07207808385008622,0.05302606973531612,-4.5,25.8,25.05,-121.09375,-92.28516,961.91406,0.00839363743869113,0.04303371070179819,0.11604432397122498,72.15,5.55,86.85,-831.05469,18.55469,583.00781,0.03490658503988659,-0.04316687932372535,0.04343339110050489,56.7,25.35,22.65
-932.12891,56.15234,-338.86719,-0.04676417744501087,0.01958503766832917,0.10165548055193334,-4.5,25.8,25.05,-124.51172,-56.15234,981.93359,0.05928796202562137,0.05422511093143622,0.08060488991070451,71.25,4.65,87.75,-833.00781,26.36719,562.5,0.06674889551204674,0.009859190411590769,0.05209336578305035,57.45,27.45,23.7
-917.96875,54.6875,-341.30859,-0.0936615235119489,0.05395859915465669,0.02891120452636087,-4.35,26.1,23.55,-124.02344,-33.69141,959.47266,0.04929560299210344,0.00013316862192716734,0.03597245761407953,71.25,4.65,87.75,-815.91797,30.76172,579.58984,0.020251229843815406,-0.03837054000631974,-0.0030642745677264445,55.2,27.0,23.55
-924.31641,73.24219,-324.70703,-0.05968764242432808,0.04103530870826468,0.07794029574168478,-3.6,26.1,24.6,-124.51172,-22.46094,974.60937,0.05662319332367644,0.053558918755949994,0.08926486459324998,71.25,6.6,87.45,-826.66016,28.80859,615.23437,-0.021050590641228807,-0.035039753661813756,0.0283781809728018,55.2,27.0,23.55
-906.25,56.15234,-310.05859,-0.07167840345137952,0.0377045223637587,0.08819916655198225,-5.1,25.65,24.6,-121.58203,-29.78516,993.65234,-0.011724423783197109,0.02198312006056938,0.05582383252626303,71.4,6.3,86.55,-826.17187,39.55078,576.17187,0.008127125661911596,0.05542415212755633,-0.01492186697285072,55.2,27.3,23.85
-914.0625,55.17578,-315.42969,-0.16853754468590723,0.10805054146416575,0.06261874837012736,-5.4,26.1,25.2,-116.21094,-44.92188,1005.37109,-0.06022049144496195,-0.008127125661911596,0.019718206290256335,71.4,6.3,86.55,-829.58984,22.94922,600.58594,-0.012390441425758144,-0.017586461141870464,-0.028245012350874635,56.1,26.4,22.65
-902.83203,37.10938,-328.125,-0.06821444848494637,0.08606742140359638,0.09979024718032699,-5.4,26.1,25.2,-119.14063,-44.92188,1024.90234,-0.04103530870826468,-0.029710565323774273,0.048762579438544375,73.35,5.7,87.0,-833.49609,0.97656,585.44922,0.007993957039984428,0.043699902877284424,-0.0291777163031404,57.3,25.5,23.55
-925.78125,28.80859,-339.84375,-0.07767378396490525,0.06475031898558803,0.09073041756614963,-3.45,25.05,24.75,-140.13672,-90.33203,1004.88281,-0.09126344111970869,-0.021583439661862675,0.07087904265396612,70.8,5.7,85.65,-838.37891,1.95312,583.49609,0.04076879693148514,0.026246610357341126,-0.06475031898558803,55.65,25.65,24.0
-930.17578,23.92578,-357.42187,-0.05449162270821576,0.1013889687751538,-0.0005328490206338688,-4.2,25.8,24.3,-142.57812,-109.86328,1007.8125,-0.04476577545147736,-0.005462531492891852,-0.0025314255470925756,71.1,5.55,86.85,-847.16797,1.46484,598.14453,0.07993869773521828,0.026379778979268294,-0.0275788201753884,55.65,25.65,24.0
-949.70703,26.36719,-361.81641,-0.021316927885083145,0.053292581512095656,0.021316927885083145,-4.2,25.05,24.0,-146.97266,-96.19141,1019.04297,0.04902909121532391,-0.10325420214676014,-0.04956194023595778,71.1,5.55,86.85,-864.74609,-9.76562,553.22266,0.16307501319301537,0.04303371070179819,-0.0011990411961201044,56.7,26.7,23.7
-962.40234,9.76562,-372.07031,-0.01492186697285072,0.07167840345137952,0.0029311059457992773,-4.95,25.05,25.05,-130.37109,-89.35547,1024.90234,0.051960197161123184,-0.0676814249313873,0.00652840406708479,72.0,6.15,87.0,-861.81641,-4.88281,564.94141,0.23009042048184167,-0.017852972918649995,0.001065872574192937,56.55,26.25,24.15
-965.82031,20.50781,-379.88281,-0.03637213801278623,0.096459460835821,-0.027179139776681696,-4.95,25.05,25.05,-153.80859,-54.6875,1026.36719,0.03623896939085906,-0.0722112524720134,-0.06794793670816685,70.5,4.95,86.7,-846.19141,18.55469,585.9375,0.18132766651037208,-0.016920443499309427,-0.017186780743163762,56.55,27.3,23.85
-955.07812,25.87891,-374.02344,-0.010924888452858507,0.09113009796485633,-0.025313906405075356,-5.25,24.3,23.7,-133.30078,-59.57031,1013.67187,0.025313906405075356,-0.10152213739708096,-0.07007968185655272,71.7,5.55,86.1,-853.51562,30.76172,527.83203,0.2680612800894547,-0.0377045223637587,-0.00279793732387211,55.65,27.45,23.7
-961.42578,18.06641,-367.67578,0.04143498910697138,0.023715184810248553,0.0063950609122324234,-4.95,26.25,22.65,-144.53125,-24.41406,1006.34766,0.035173096816666125,-0.055690663904335864,-0.1115144964305989,72.3,5.4,85.65,-849.60937,18.55469,558.59375,0.21703361234767207,-0.0009327039522657697,-0.03663864978956576,55.2,28.05,22.8
-951.66016,39.55078,-362.30469,-0.022649312236055614,0.05422511093143622,-0.03703833018827246,-4.05,26.1,23.85,-148.92578,-56.64063,1004.39453,-0.04529862447211123,-0.04676417744501087,-0.10432007472095307,71.1,4.8,85.5,-844.23828,28.80859,562.5,0.2287580361308692,-0.003463954966433146,-0.05049464418822355,55.65,26.1,23.7
-958.49609,30.27344,-368.16406,-0.00746093348642536,-0.03903673218180597,-0.00373046674321268,-4.95,26.25,24.75,-140.625,-65.91797,1001.46484,-0.0811377389313384,-0.03663864978956576,-0.08220361150553133,70.8,6.6,87.75,-833.98437,20.50781,567.87109,0.28751297460293146,-0.07194491522815906,-0.03344103206698695,55.65,26.1,23.7
-973.14453,28.80859,-365.23437,-0.01851916509413623,-0.012390441425758144,-0.015454890526409788,-4.95,26.25,24.75,-121.58203,-39.0625,1015.13672,-0.04356655972243205,-0.045032112695331694,-0.0920628019171221,70.8,6.6,87.75,-847.16797,34.66797,576.17187,0.26459732512302153,-0.007327764864498192,-0.04516545585018406,57.15,27.15,23.7
-971.19141,23.92578,-363.76953,-0.04489894407340452,-0.007860613885132062,-0.05395859915465669,-5.25,25.5,23.7,-141.11328,-41.99219,1027.34375,-0.04170132635082572,-0.05342575013402282,-0.11164783958545127,71.7,5.25,86.55,-839.35547,41.99219,558.10547,0.30483309850094764,-0.007594102108352528,-0.03623896939085906,57.15,27.15,23.7
-970.21484,23.92578,-368.65234,0.009192998236104533,-0.04103530870826468,-0.03530626543859329,-3.75,25.05,23.25,-124.51172,-21.48438,1023.4375,-0.06541651116107426,-0.05489130310692246,-0.06355127778946792,72.45,5.55,87.15,-833.49609,56.15234,598.63281,0.23328786367149526,0.015987739547043658,-0.08753297437649601,57.0,27.0,23.1
-947.26562,11.71875,-351.5625,0.0058622118915985545,-0.025047394628295826,0.004929507939332785,-3.15,25.8,23.25,-125.48828,-33.69141,1028.32031,-0.11604432397122498,-0.07687442316749184,-0.09579326866033477,71.7,7.05,86.85,-841.30859,63.96484,587.89062,0.2155680593747724,-0.00039968039870670147,-0.09259565093775597,56.25,25.8,24.15
-941.40625,-2.92969,-330.07812,-0.02238280045927608,-0.053292581512095656,-0.13043334192344183,-5.4,26.4,23.55,-125.97656,-38.08594,1067.87109,-0.07167840345137952,-0.08779931162035035,-0.0847350370526239,71.7,7.05,86.85,-836.91406,64.45313,579.58984,0.23501992842117445,0.04476577545147736,-0.06928032105913931,56.55,27.3,22.5
-940.91797,-17.57813,-347.16797,0.05515781488370199,-0.08486838020747627,-0.05982081104625525,-5.4,26.4,23.55,-100.58594,-56.15234,1046.875,-0.06088668362044818,-0.10525260414029364,-0.11817606911961086,70.65,6.0,85.5,-833.00781,60.54688,577.63672,0.23235533425215468,-0.0058622118915985545,-0.0644839817417337,56.7,26.1,23.7
-942.38281,-7.8125,-336.91406,0.047430369620497105,-0.06035383459981431,-0.07900616831587771,-3.6,25.35,23.55,-112.30469,-41.99219,1037.59766,-0.03597245761407953,-0.1057856276938527,-0.0839356762552105,72.9,6.3,85.5,-838.37891,82.51953,583.49609,0.2547381347114308,-0.0058622118915985545,-0.09259565093775597,57.3,24.75,23.1
-947.26562,15.625,-339.35547,0.05169368538434365,0.0019984019935335075,-0.0839356762552105,-5.4,25.65,24.6,-116.69922,-40.52734,1012.20703,-0.0575558972759422,-0.07754061534297808,-0.06101985224237535,73.05,3.9,86.25,-849.60937,79.10156,606.93359,0.19758191783419526,0.02224963183734891,-0.1548147189091766,57.6,25.05,23.1
-950.68359,21.48438,-345.21484,0.03783769098568587,-0.013456313999951081,-0.020784078864449274,-4.95,25.05,23.25,-105.46875,-39.0625,1022.46094,-0.01252378458061051,-0.0664823837352672,-0.07034601910040704,73.05,3.9,86.25,-855.95703,94.23828,590.33203,0.1192419416938038,0.02571358680378206,-0.12070749466670343,57.6,25.05,23.1
-966.30859,41.99219,-351.07422,0.013189976756096747,-0.03570594583729999,-0.0466310088230837,-4.95,25.05,23.25,-104.98047,-33.20313,1036.13281,-0.013323145378023914,-0.05489130310692246,-0.11258036900479183,71.25,5.7,88.05,-848.14453,74.21875,569.82422,0.20464317092191392,0.05622351292496973,-0.20530936309740017,54.45,26.55,24.15
-964.35547,33.20313,-337.89062,-0.048762579438544375,0.02331550441154185,-0.04196783812760525,-5.4,24.9,24.9,-111.81641,-39.55078,1018.55469,0.0006661921754862356,-0.07394331722169258,-0.09232931369390163,70.65,4.8,87.15,-848.63281,95.21484,597.65625,0.11524496317381157,0.0664823837352672,-0.17626498994911213,54.45,26.55,24.15
-953.61328,39.55078,-318.35937,-0.03117611829667391,-0.03743801058697916,-0.020784078864449274,-4.5,25.8,24.75,-113.28125,-26.36719,1054.19922,-0.02931088492506757,-0.10058960797774039,-0.1192419416938038,72.15,5.55,85.8,-862.79297,66.40625,558.10547,0.1714686506317065,0.0283781809728018,-0.1216401986189692,54.45,26.55,24.15
-922.85156,23.92578,-333.49609,-0.0275788201753884,-0.07354363682298586,0.03370754384376649,-5.4,24.6,25.2,-109.86328,-21.97266,1046.875,-0.024381376985734785,-0.1293674693492489,-0.15827867387560976,72.15,5.55,85.8,-831.54297,50.78125,528.80859,0.19531700406388222,0.0015987215948268059,0.009992359033517936,55.8,26.25,23.1
-926.26953,8.78906,-313.96484,-0.07567538197137175,-0.018385996472209065,0.010525208054151804,-5.4,24.6,24.15,-115.72266,-5.37109,1033.20313,-0.07101221127589329,-0.08606742140359638,-0.07127872305267281,71.25,5.7,87.45,-829.10156,56.64063,553.71094,0.23581928921858783,0.025313906405075356,-0.23342120682634765,56.7,24.9,22.95
-936.03516,-0.48828,-344.23828,-0.1049862668964393,0.04729702646564473,-0.01305663360124438,-5.4,24.6,24.15,-107.42188,-24.41406,1021.97266,-0.1216401986189692,-0.11444560237639817,-0.017186780743163762,70.65,5.55,87.15,-834.47266,41.50391,504.88281,0.22289582423927062,0.04796321864113097,-0.19398461971290976,55.2,25.5,22.05
-951.17187,7.8125,-344.72656,0.02198312006056938,0.0033307863445059785,0.015188378749630253,-5.4,24.6,24.15,-121.58203,-40.52734,970.21484,-0.2208974222457371,-0.19265240989486246,-0.02731248293153406,71.4,5.55,85.8,-817.38281,37.10938,498.53516,0.24487894429984003,0.05649002470174927,-0.15374884633498367,56.4,26.1,23.7
-991.69922,1.95312,-353.02734,-0.05235987755982989,0.05129400498563695,-0.0738101485997654,-5.7,26.1,23.85,-132.32422,-78.61328,1034.17969,-0.20091270417870125,-0.2194318692728375,-0.03464007326310706,71.55,6.15,87.0,-805.17578,14.64844,497.07031,0.25607051906240325,0.08446852527584436,-0.24674417767144632,56.4,26.1,22.2
-989.25781,16.60156,-355.95703,-0.04343339110050489,0.06075351499852101,-0.07127872305267281,-3.75,25.05,23.25,-109.375,-56.15234,945.80078,-0.2555374955088442,-0.2859142530081047,-0.05875493847206231,70.2,4.95,87.0,-812.98828,14.64844,529.78516,0.2744563410016871,0.08979788814680904,-0.1958498530845161,57.3,27.0,22.8
-972.16797,6.83594,-360.83984,0.012390441425758144,-0.04063545377663278,-0.04516545585018406,-3.3,26.4,24.6,-111.32813,-107.42188,920.89844,-0.2368851617927808,-0.25060798756951136,-0.045698304870817934,71.25,5.4,86.25,-809.57031,41.01563,530.76172,0.2635314525488286,0.07181157207330668,-0.2335543754482748,57.3,27.0,22.8
-966.79687,1.46484,-343.75,-0.06408430134302699,-0.01358965715480345,-0.0972588216332344,-3.45,25.8,23.7,-111.81641,-107.42188,968.75,-0.12417144963313657,-0.302301672953855,-0.08580090962681684,71.25,5.4,86.25,-827.14844,82.03125,531.73828,0.2582020896778639,0.1200413024912172,-0.2105053828135125,57.15,25.35,22.2
-965.82031,6.34766,-337.40234,-0.0932618431132422,0.013456313999951081,-0.007061253087718659,-3.45,25.8,23.7,-80.56641,-106.93359,965.82031,-0.22169678304315052,-0.24154815795533402,-0.06581619155978097,69.9,4.05,88.35,-828.61328,101.5625,543.94531,0.22049774184703042,0.1370949146124538,-0.17493260559813967,57.15,25.35,22.2
-955.56641,-0.97656,-332.51953,-0.047830050019203804,-0.06514999938429474,0.02238280045927608,-5.1,26.7,23.85,-125.0,-89.35547,957.03125,-0.11471211415317771,-0.12270589666023693,-0.10272135312612628,69.9,6.0,87.15,-842.28516,126.46484,580.07812,0.192918921671642,0.0835359958565038,-0.14615474422663116,57.3,25.05,21.3
-927.73437,-1.46484,-333.49609,-0.07887282516102534,-0.03557277721537283,-0.03797085960761303,-4.5,26.25,24.0,-102.05078,-108.39844,950.19531,-0.03104294967474674,-0.07114555443074566,-0.12870145170668787,69.6,4.5,87.9,-843.75,136.71875,578.61328,0.15921137782787553,0.06128636401915488,-0.14908567563950523,56.25,24.3,21.0
-926.26953,-7.32422,-329.10156,-0.08193727426167699,0.027845331952167932,-0.03184231047216015,-4.05,25.65,23.85,-86.42578,-67.87109,971.19141,0.09619294905904148,-0.07527570157266503,-0.12430479278798894,69.9,3.3,87.15,-848.63281,136.23047,596.19141,0.061419532641082054,0.07061253087718658,-0.14948553057113714,56.55,24.3,21.75
-923.33984,-38.57422,-340.33203,0.00039968039870670147,-0.015987739547043658,-0.0029311059457992773,-4.5,25.05,23.7,-69.82422,-75.68359,1021.97266,0.06741508768753297,0.03290818304635308,-0.12510415358540233,71.1,3.75,86.55,-855.46875,111.81641,596.67969,0.07207808385008622,0.026379778979268294,-0.17013626628073403,57.45,23.85,23.7
-934.57031,-25.39063,-325.19531,0.008926486459324997,0.00279793732387211,-0.04436592051984546,-4.5,25.05,23.7,-94.72656,-41.99219,1042.48047,0.06168604441786158,-0.02224963183734891,-0.11804290049768368,70.5,3.9,86.7,-833.49609,94.72656,595.21484,0.022649312236055614,0.07354363682298586,-0.1605435876459228,56.55,24.75,21.75
-936.03516,-13.18359,-330.07812,-0.023981696587028086,-0.00373046674321268,-0.007327764864498192,-5.1,25.35,24.6,-76.17188,-56.64063,1011.71875,0.10232167272741956,-0.025447249559927724,-0.10858339048479962,70.5,3.9,86.7,-841.30859,76.17188,571.77734,0.029577396701847107,0.04223434990438478,-0.2133031456044594,57.15,23.85,21.6
-960.44922,-2.92969,-322.75391,0.018918845492842937,-0.03250850264764638,-0.013989337553510148,-3.6,25.65,23.55,-75.68359,-39.55078,1007.8125,0.0063950609122324234,0.04290054207987102,-0.08340282723457662,69.9,4.8,87.6,-819.82422,62.01172,589.84375,0.03424039286440035,0.0291777163031404,-0.16813786428720054,57.15,23.85,21.6
-953.61328,10.25391,-320.80078,0.004796339317405617,-0.013855994398657782,-0.0009327039522657697,-4.95,26.25,25.05,-54.6875,-25.39063,1035.64453,-0.040901965553412314,-0.040901965553412314,-0.0920628019171221,69.3,2.55,88.35,-801.26953,26.36719,566.40625,0.05928796202562137,0.08420218803199005,-0.12710255557893585,56.55,24.0,22.8
-968.75,36.13281,-330.07812,-0.045698304870817934,0.017986141540577164,-0.0644839817417337,-4.05,24.9,23.55,-70.80078,-28.80859,1003.41797,-0.06808110533009401,-0.015721227770264124,-0.11271371215964421,70.65,3.3,86.1,-790.52734,26.85547,545.41016,0.09712565301130725,0.07474267801910597,-0.16813786428720054,54.9,24.15,21.6
-970.70312,35.64453,-326.66016,-0.006794741310939124,-0.04489894407340452,0.0190520141147701,-4.05,24.9,23.55,-56.64063,-55.66406,980.46875,-0.1115144964305989,0.011724423783197109,-0.05209336578305035,70.65,3.3,86.1,-778.80859,33.20313,554.19922,0.07474267801910597,0.0579555776746489,-0.18172734690907877,57.3,23.7,21.75
-961.91406,20.50781,-318.84766,-0.026379778979268294,-0.07647474276878514,0.08939820774810235,-4.2,25.05,24.75,-70.80078,-47.85156,998.04687,-0.11937511031573096,-0.05902145024884184,-0.06155287579593442,70.35,6.0,86.85,-791.01562,24.90234,542.48047,0.0863337586474507,0.06981317007977318,-0.2043766591451344,57.0,25.5,23.1
-938.47656,2.44141,-318.84766,-0.10445324334288024,-0.07301078780235198,-0.010924888452858507,-4.65,26.1,23.55,-15.13672,-109.375,958.98437,-0.10232167272741956,-0.010525208054151804,-0.04529862447211123,69.3,4.05,86.1,-789.55078,35.15625,535.15625,0.08713329397778931,0.09073041756614963,-0.17733086252330507,58.35,24.0,21.0
-911.62109,-20.50781,-294.92187,-0.057689065897869374,-0.08247012328231085,-0.05728938549916267,-4.65,26.4,24.15,-75.19531,-104.49219,972.16797,-0.10165548055193334,-0.027712163330240767,-0.03450690464117989,70.5,3.9,87.45,-785.15625,42.48047,535.64453,0.05609034430304257,0.12856810855183548,-0.15388201495691084,57.15,22.65,22.95
-897.94922,-70.80078,-294.43359,-0.02198312006056938,-0.09845786282935451,-0.0385038831611721,-3.75,26.55,25.05,-59.08203,-124.02344,973.63281,-0.07993869773521828,0.01771980429672283,-0.05702304825530834,69.3,5.55,88.35,-791.99219,16.60156,535.64453,0.0754088701945922,0.06421746996495417,-0.18798923919938404,57.15,22.65,22.95
-904.78516,-67.87109,-278.32031,-0.03184231047216015,-0.05475795995207009,-0.10631847671448658,-3.75,26.55,25.05,-61.52344,-145.01953,965.82031,-0.04516545585018406,0.016920443499309427,-0.08073805853263168,70.8,6.15,87.45,-820.3125,35.15625,541.01562,0.06355127778946792,0.11671051614671123,-0.18545781365229144,57.15,22.65,22.95
-891.11328,-65.42969,-303.22266,0.06701523275590107,-0.0648836621404404,-0.051560516762416485,-3.3,25.35,23.85,-68.84766,-114.74609,962.89062,-0.0811377389313384,-0.008127125661911596,-0.07554203881651937,70.8,3.15,86.7,-843.75,39.0625,575.19531,0.07061253087718658,0.12137368684218967,-0.1512174207878911,57.15,24.15,22.95
-885.74219,-63.96484,-303.22266,0.05542415212755633,-0.025313906405075356,-0.015454890526409788,-4.5,24.75,25.05,-99.60938,-108.39844,971.67969,-0.018385996472209065,0.08260329190423803,-0.06475031898558803,70.8,3.15,86.7,-861.32812,43.45703,565.42969,0.06714857591075343,0.16041041902399564,-0.14801997759823748,57.15,24.15,22.95
-898.4375,-63.47656,-323.24219,0.014255674797364485,0.02704597115475453,0.009992359033517936,-4.05,26.4,23.85,-92.28516,-105.95703,988.28125,-0.011457912006417574,0.06155287579593442,-0.1115144964305989,70.8,3.15,86.7,-881.34766,51.75781,583.00781,0.0482297304179105,0.1446891912537315,-0.14562172067307208,57.9,23.85,21.6
-924.80469,-38.08594,-328.61328,0.0847350370526239,0.0035972981212855125,0.06821444848494637,-5.25,26.25,23.7,-106.93359,-97.16797,1048.82813,0.01585457092511649,0.10418690609902591,-0.10205516095064003,70.8,4.2,87.75,-878.41797,57.61719,585.9375,0.05342575013402282,0.12617002615959527,-0.0762082309920056,56.55,24.0,21.0
-930.17578,-22.46094,-330.07812,0.06954665830299364,0.004263315763846549,0.12883462032861503,-5.25,26.25,23.7,-116.21094,-90.33203,1052.24609,0.014122506175437317,0.026246610357341126,-0.1025880099712739,70.5,4.95,87.45,-874.51172,48.33984,545.41016,0.09992341580225415,0.16547327011818078,-0.16600611913881466,57.6,23.25,21.0
-931.64062,-46.38672,-358.88672,0.012790121824464847,0.06195255619464112,0.16400771714528115,-4.05,25.35,23.1,-122.55859,-119.14063,1028.80859,-0.09299533133646266,-0.0093261668580317,-0.06315159739076123,69.0,2.7,85.95,-881.34766,68.84766,550.29297,0.1192419416938038,0.07474267801910597,-0.10671815711319327,56.4,23.85,21.15
-913.08594,-49.31641,-355.95703,0.02198312006056938,0.012790121824464847,0.13309793609246157,-5.25,25.8,24.3,-124.02344,-128.90625,1016.60156,-0.08913169597132281,0.043699902877284424,-0.10392039432224637,68.1,3.75,87.15,-877.92969,70.80078,571.28906,0.12310575159186884,0.08060488991070451,-0.12323892021379601,57.0,23.25,22.5
-931.15234,-45.89844,-358.39844,0.045032112695331694,0.00039968039870670147,0.13469683222021359,-3.75,26.25,24.75,-115.72266,-101.5625,1020.99609,-0.08207044288360416,0.04489894407340452,-0.08566774100488968,71.25,2.7,87.45,-865.72266,84.47266,554.19922,0.10938292581513821,0.07367680544491303,-0.03117611829667391,57.45,23.1,21.6
-917.48047,-25.87891,-361.32812,0.00013316862192716734,0.05462479133014293,0.06275191699205453,-4.2,25.5,23.7,-115.72266,-105.46875,1026.36719,-0.05915461887076901,0.011457912006417574,-0.08220361150553133,72.15,4.05,87.9,-871.58203,79.58984,557.61719,0.053558918755949994,0.07114555443074566,-0.0486294108166172,57.45,23.1,21.6
-927.73437,-38.57422,-375.48828,0.06155287579593442,0.09046408032229529,0.04050228515470561,-4.2,25.5,23.7,-128.90625,-101.5625,1023.92578,-0.06421746996495417,-0.0019984019935335075,-0.08220361150553133,72.15,4.05,87.9,-892.08984,97.16797,550.78125,0.04156815772889855,0.09432771568743514,0.0381042027624654,58.2,22.65,20.85
-943.35937,-24.90234,-370.60547,0.06355127778946792,0.07021285047847989,0.08247012328231085,-4.2,25.8,23.7,-138.67187,-115.23438,1013.18359,-0.07141189167459998,0.040901965553412314,-0.011990761027051442,72.3,2.7,87.0,-869.14062,102.53906,544.43359,0.06581619155978097,0.04716385784371757,-0.01025887081029747,58.2,22.65,20.85
-938.96484,-34.66797,-362.30469,0.018785676870915768,0.09006439992358858,-0.00839363743869113,-3.45,25.5,24.0,-118.16406,-114.25781,997.55859,-0.03250850264764638,0.01585457092511649,-0.02851152412765417,70.65,4.5,86.85,-854.49219,107.42188,534.17969,0.003996978519992214,0.04196783812760525,0.05622351292496973,57.9,22.35,20.1
-970.21484,-39.0625,-355.95703,0.0466310088230837,0.07727410356619854,-0.0002665117767795341,-5.4,24.9,24.15,-109.375,-114.25781,994.62891,0.02198312006056938,0.0462311538914518,-0.003463954966433146,71.1,3.0,86.85,-853.51562,110.83984,542.96875,0.0283781809728018,0.014389017952216851,0.05129400498563695,58.95,22.35,21.6
-966.30859,-37.59766,-368.16406,0.08180393110682463,0.03543943406052046,0.04023577337792608,-5.4,24.9,24.15,-93.75,-98.14453,999.51172,0.07194491522815906,0.031309286918601076,-0.06128636401915488,71.1,3.0,86.85,-845.21484,95.21484,546.875,-0.015188378749630253,0.009592678634811233,0.03344103206698695,56.25,22.5,21.3
-967.77344,-15.625,-368.16406,0.0648836621404404,0.08513471745133061,-0.07514235841781267,-5.1,26.7,23.55,-99.12109,-62.98828,1000.0,0.09086376072100198,0.009459335479958867,-0.017986141540577164,70.5,3.45,86.25,-854.49219,95.70313,547.85156,-0.1309663654770009,0.003463954966433146,0.08406884487713767,57.15,22.35,22.2
-976.07422,-17.08984,-352.05078,0.0579555776746489,0.05289272658046376,0.016653931722529894,-4.2,26.55,24.3,-98.63281,-71.77734,989.25781,0.13269825569375487,-0.0029311059457992773,-0.020650910242522108,70.8,2.7,88.5,-862.30469,85.9375,549.31641,-0.12656970655830196,-0.015188378749630253,0.07900616831587771,58.2,24.15,21.6
-963.37891,-20.50781,-333.98437,0.09845786282935451,-0.07807346436361194,0.015721227770264124,-3.6,23.85,23.1,-88.86719,-82.03125,996.09375,0.11884226129509709,-0.01025887081029747,0.014255674797364485,70.8,2.7,88.5,-856.44531,70.3125,539.55078,-0.15987757000336178,-0.0017320647496791726,0.07301078780235198,56.7,23.4,20.1
-937.5,-44.43359,-330.56641,0.05475795995207009,-0.0365053066347134,-0.03677181841149293,-6.0,25.8,24.0,-96.67969,-80.56641,1013.18359,0.043699902877284424,0.010924888452858507,0.06035383459981431,71.25,3.15,87.0,-860.35156,54.6875,544.43359,-0.17386673302394673,-0.02224963183734891,0.11497862592995724,56.7,23.4,20.1
-891.60156,-45.41016,-329.58984,0.055690663904335864,0.001065872574192937,-0.04143498910697138,-6.0,25.8,24.0,-98.63281,-109.86328,1001.95312,0.009592678634811233,0.011990761027051442,-0.00652840406708479,70.2,3.45,88.8,-857.42187,45.89844,541.50391,-0.1253706653621819,-0.017186780743163762,0.09792501380872065,57.6,22.95,22.05
-905.76172,-59.08203,-330.07812,0.09086376072100198,-0.05808874629657607,-0.021849951438642212,-6.0,25.8,24.0,-115.23438,-124.51172,999.51172,0.03623896939085906,-0.017986141540577164,0.06541651116107426,69.75,3.15,87.75,-856.44531,66.89453,527.34375,-0.12137368684218967,-0.010525208054151804,0.1151117945518844,57.0,24.0,20.25
-916.01562,-63.47656,-355.95703,0.06861412888365308,0.025846929958634426,-0.027179139776681696,-3.3,25.35,23.55,-114.25781,-129.88281,1014.64844,0.10165548055193334,0.00039968039870670147,0.07847314476231865,69.75,3.15,87.75,-866.21094,69.33594,520.01953,-0.08899852734939565,-0.004529827540626083,0.15321599731434982,57.15,23.4,21.9
-926.75781,-60.54688,-358.39844,0.11471211415317771,0.06674889551204674,-0.019185357269622467,-3.3,26.1,23.1,-123.04688,-87.40234,1013.18359,0.15867835427431645,0.02424803383088242,0.07714093494427138,71.1,3.75,86.55,-853.02734,77.14844,531.73828,-0.16267533279430868,-0.009192998236104533,0.15667995228078296,56.25,23.7,19.95
-941.89453,-40.03906,-356.44531,0.10205516095064003,0.043699902877284424,0.05968764242432808,-4.65,24.6,23.1,-114.25781,-67.38281,1000.97656,0.1807948174897382,0.028644692749581334,0.05862176985013514,71.1,5.25,87.6,-856.93359,75.19531,549.80469,-0.17333388400331284,-0.012390441425758144,0.14868599524079854,56.25,23.7,19.95
-953.125,-24.41406,-359.375,0.08286980368101757,0.009992359033517936,0.06208572481656829,-4.05,25.35,23.55,-112.79297,-42.96875,1001.95312,0.19518383544195508,0.03837054000631974,0.07873965653909817,71.55,3.45,87.75,-852.53906,69.82422,520.01953,-0.24461260705598567,-0.0013323843509724712,0.1103154552344788,57.3,23.25,22.8
-963.37891,-17.08984,-352.53906,0.0182526533173567,0.017320123898016127,0.014389017952216851,-4.05,25.35,23.55,-93.75,-30.27344,993.65234,0.1821270273077855,0.05235987755982989,0.07141189167459998,70.65,3.3,86.85,-840.33203,86.91406,548.33984,-0.2795191920958723,0.009592678634811233,0.11058196701125833,57.9,24.9,21.9
-944.33594,-16.11328,-346.67969,0.05555749528240869,-0.05542415212755633,0.12217304763960307,-3.15,26.25,23.25,-85.44922,-53.71094,1013.18359,0.08979788814680904,0.07514235841781267,0.12510415358540233,69.9,3.0,87.15,-831.05469,74.21875,543.94531,-0.24874275419790506,0.02278248085798278,0.0750091897958855,57.9,24.9,21.9
-942.87109,-7.32422,-346.67969,-0.011591080628344743,-0.0470306892217904,0.06941348968106648,-4.2,25.8,24.3,-76.66016,-62.98828,1019.04297,0.10911641403835869,0.007594102108352528,0.11897542991702426,69.9,3.75,87.9,-828.61328,53.22266,541.01562,-0.23661865001600124,0.003463954966433146,0.0632847660126884,56.55,23.7,19.95
-953.61328,-11.23047,-344.72656,-0.0676814249313873,0.02464771422958912,0.047696706864351436,-4.05,25.35,23.1,-77.14844,-71.28906,987.30469,0.07727410356619854,0.07780712711975761,0.15548091108466286,69.9,3.75,87.9,-830.56641,59.57031,549.80469,-0.22929088515150303,-0.013189976756096747,0.1029876903699806,56.55,23.7,19.95
-986.32812,3.90625,-357.42187,-0.07394331722169258,-0.09472739608614184,0.07194491522815906,-5.4,25.65,23.55,-58.59375,-77.63672,1001.46484,0.10725118066675235,0.05808874629657607,0.1474869540446784,69.9,4.05,86.85,-829.10156,54.19922,528.32031,-0.2149020417322114,0.03743801058697916,0.14615474422663116,58.05,24.0,22.05
-1000.97656,4.88281,-362.79297,-0.020650910242522108,-0.11777638872090417,0.05902145024884184,-5.4,25.65,23.55,-88.37891,-77.14844,1015.625,0.1994471512058016,0.07101221127589329,0.13762793816601288,71.25,4.2,87.0,-831.05469,32.22656,562.5,-0.1793292645168386,0.021849951438642212,0.11817606911961086,56.4,24.15,20.85
-993.65234,5.85937,-380.37109,-0.10418690609902591,-0.10538594729514601,-0.04343339110050489,-3.75,26.25,24.3,-87.40234,-88.86719,1018.06641,0.17573196639555305,0.05382543053272952,0.07634157414685798,71.4,4.8,87.9,-825.68359,29.29688,558.59375,-0.18319289988197843,0.04023577337792608,0.0896645449919567,57.6,24.3,22.05
-998.04687,4.88281,-373.04687,-0.07420982899847209,-0.24860958557597787,0.0361056262360067,-3.45,25.5,23.7,-90.82031,-94.23828,1025.39063,0.17253452320589946,0.05808874629657607,0.11870909267316991,71.4,4.8,87.9,-867.1875,25.39063,526.36719,-0.13030017330151467,0.06475031898558803,0.08207044288360416,58.2,24.6,22.65
-955.56641,-13.67187,-365.72266,-0.09965690402547463,-0.2848483804339117,0.0381042027624654,-3.75,24.3,24.0,-106.93359,-109.86328,1022.94922,0.2050428513206206,0.1013889687751538,0.1273690673557154,70.65,6.0,87.6,-879.88281,32.71484,595.21484,-0.14841965799694418,0.07487602117395832,0.09939056678162028,56.7,22.65,21.9
-921.38672,-51.26953,-371.09375,-0.09805818243064782,-0.2715252350558878,-0.04010260475599891,-5.25,26.25,23.7,-131.34766,-111.32813,1042.96875,0.2066415729154474,0.06581619155978097,0.13043334192344183,71.4,4.05,86.85,-882.32422,47.85156,561.52344,-0.08220361150553133,0.045698304870817934,0.11697702792349074,56.25,23.7,21.3
-921.38672,-72.75391,-365.23437,-0.0011990411961201044,-0.2892450393526107,-0.024781057384441488,-5.25,26.25,23.7,-139.64844,-86.42578,1055.66406,0.28311631568423257,0.0754088701945922,0.16520675834140125,71.4,4.05,86.85,-892.57812,48.33984,564.45312,-0.04010260475599891,-0.0069280844657914915,0.07181157207330668,56.25,23.7,21.3
-920.89844,-67.87109,-336.91406,0.0033307863445059785,-0.2085068062870538,0.0283781809728018,-3.75,25.05,24.3,-106.44531,-61.03516,1037.59766,0.35399535833819873,0.08233695466038368,0.12617002615959527,70.5,6.15,87.75,-882.32422,63.96484,571.77734,-0.07420982899847209,0.0015987215948268059,0.10964926305899256,57.9,24.15,21.9
-929.6875,-49.31641,-338.37891,0.05102749320885741,-0.10392039432224637,-0.010392039432224637,-4.35,26.4,24.9,-170.41016,-10.74219,984.375,0.452320052545626,0.37517911760135464,0.07034601910040704,71.55,4.2,87.0,-859.86328,63.96484,539.55078,-0.08340282723457662,0.021716608283789844,0.10618530809255941,57.9,24.15,21.9
-937.01172,-36.13281,-327.14844,0.10032309620096086,-0.1462879128485583,0.05928796202562137,-4.05,25.35,23.85,-117.67578,20.01953,961.91406,0.2220964634418572,0.04463243229662499,0.12976714974795558,70.8,4.65,87.45,-858.39844,57.61719,566.40625,-0.17839656056457281,-0.002664594169019743,0.10032309620096086,57.15,24.15,21.6
-954.10156,-16.11328,-315.91797,0.09099692934292915,-0.1452220402743654,0.03277483989150072,-2.7,25.5,24.0,-101.5625,-5.85937,1042.48047,0.25886828185335015,0.0847350370526239,0.1216401986189692,70.8,4.65,87.45,-857.42187,64.45313,535.64453,-0.17786371154393893,-0.006661572689011957,0.11524496317381157,56.25,24.75,21.75
-987.79297,-16.11328,-319.82422,0.05702304825530834,-0.10685150026804564,0.04956194023595778,-2.7,25.5,24.0,-119.14063,-6.34766,1000.48828,0.20690808469222696,0.11391275335576431,0.17213484280719277,70.8,4.65,87.45,-850.58594,73.24219,533.20312,-0.19478415504324836,-0.03863705178309927,0.11404592197769146,55.35,25.35,22.95
-993.16406,3.90625,-315.91797,0.06235223659334782,-0.18479179600973042,0.08073805853263168,-3.75,26.55,23.7,-118.16406,-32.22656,1008.78906,0.08513471745133061,0.04210100674953242,0.23288818327278857,71.25,4.65,87.45,-843.75,60.05859,565.42969,-0.2839158510145712,-0.009192998236104533,0.10072277659966757,56.55,25.5,22.05
-959.96094,1.95312,-312.01172,0.08953137637002952,-0.23408722446890867,0.1252373222073295,-4.65,26.7,23.1,-102.05078,-38.57422,1018.55469,0.008127125661911596,0.060087322823034785,0.2619325564210766,72.6,6.6,87.75,-851.07422,47.85156,518.55469,-0.2559371759075509,0.03370754384376649,0.15827867387560976,57.15,24.15,21.6
-950.68359,20.01953,-288.08594,0.010924888452858507,-0.15881169742916884,0.08873201557261612,-4.35,25.65,24.15,-118.16406,-48.82813,984.86328,0.01212410418190381,0.0644839817417337,0.2474103698469326,71.55,4.65,86.7,-836.91406,38.08594,546.38672,-0.2695268330623543,-0.0283781809728018,0.0847350370526239,57.15,24.6,22.65
-954.10156,32.71484,-295.41016,0.026646290756047828,-0.1212403436873373,0.05622351292496973,-4.65,26.4,24.15,-117.1875,-48.33984,976.07422,0.008793317837397832,0.05435827955336339,0.23049010088054836,71.25,6.6,87.75,-851.5625,27.83203,575.68359,-0.2740566606029804,-0.02051756708766974,0.12683621833508152,57.15,24.6,22.65
-941.89453,46.38672,-281.73828,0.0069280844657914915,-0.08380250763328333,0.14548855205114491,-4.65,26.4,24.15,-112.30469,-76.17188,1002.92969,0.005462531492891852,0.05688970510045597,0.19678255703678188,71.4,6.0,86.85,-854.49219,31.73828,539.55078,-0.25234005231919054,0.07714093494427138,0.12830177130798115,57.3,24.0,21.0
-925.29297,34.66797,-278.80859,-0.015454890526409788,-0.04916225983725108,0.08446852527584436,-4.05,25.65,23.1,-147.94922,-76.66016,976.5625,0.01851916509413623,0.07727410356619854,0.19931398258387445,70.65,6.0,86.85,-869.62891,32.71484,574.21875,-0.25447162293465125,0.05302606973531612,0.12990049290280797,57.3,24.0,21.0
-953.125,38.08594,-287.59766,-0.04103530870826468,-0.0002665117767795341,0.08220361150553133,-5.55,26.25,23.7,-123.04688,-65.42969,995.11719,0.0025314255470925756,0.07607506237007844,0.10565245907192554,70.65,6.0,86.85,-854.49219,30.27344,546.875,-0.24274737368437935,0.0644839817417337,0.18345941165875795,56.4,24.0,21.0
-962.40234,30.27344,-296.875,0.004796339317405617,-0.04463243229662499,0.1077840296873862,-3.15,23.25,24.75,-112.30469,-81.54297,988.28125,0.03277483989150072,0.1212403436873373,0.16720516033493477,70.8,7.35,87.75,-856.44531,25.87891,555.17578,-0.2347534166443949,0.009725847256738402,0.13123270272085524,56.4,24.15,21.15
-959.47266,5.85937,-291.01562,-0.0575558972759422,-0.04303371070179819,0.01585457092511649,-3.3,25.35,25.2,-107.42188,-62.5,995.11719,0.1184425808963904,0.08207044288360416,0.11804290049768368,70.8,6.6,86.25,-852.53906,19.53125,599.12109,-0.24954211499531845,0.005462531492891852,0.17373356440201956,57.3,25.5,22.8
-948.73047,-2.44141,-290.52734,-0.0038636353651398474,-0.015987739547043658,-0.0006661921754862356,-3.3,25.35,25.2,-115.72266,-30.76172,999.51172,0.11617766712607734,0.06794793670816685,0.13030017330151467,72.6,6.6,86.25,-852.53906,29.29688,571.28906,-0.22476105761087697,0.00839363743869113,0.11990813386929003,57.3,25.8,21.75
-937.01172,-1.46484,-290.03906,0.07794029574168478,-0.005196019716112318,0.0361056262360067,-4.5,25.8,25.35,-104.98047,-11.71875,1016.60156,0.009592678634811233,0.07554203881651937,0.1458882324498516,72.0,6.9,87.45,-847.16797,21.97266,578.61328,-0.2400826049824344,-0.02424803383088242,0.05662319332367644,55.65,26.1,22.95
-951.17187,-1.46484,-295.89844,0.02704597115475453,0.023182161256689485,-0.03330786344505979,-3.3,25.65,24.9,-118.16406,-36.62109,1027.34375,0.03823737138439257,0.09059724894422246,0.17666467034781883,71.1,5.55,87.9,-850.58594,41.99219,586.91406,-0.2384838833876076,-0.05955429926947571,0.10565245907192554,56.55,26.55,22.5
-966.79687,13.67187,-283.69141,0.0567565364785288,0.04303371070179819,-0.061819213039788753,-4.95,25.5,24.0,-106.44531,-63.96484,1061.52344,0.04023577337792608,0.03450690464117989,0.18026179393617914,71.55,6.15,87.0,-834.96094,28.32031,573.73047,-0.2941745472919434,-0.0009327039522657697,0.10951609443706539,57.0,25.05,23.85
-944.33594,19.04297,-291.99219,0.08207044288360416,0.028245012350874635,-0.04356655972243205,-4.95,25.5,24.0,-97.65625,-42.96875,1023.4375,0.0458314734927451,-0.021050590641228807,0.17733086252330507,71.55,6.15,87.0,-860.83984,4.88281,609.375,-0.2628652603733424,-0.08660027042423024,0.1159111553492978,57.0,25.05,23.85
-951.66016,29.78516,-305.17578,0.07754061534297808,0.03677181841149293,0.0,-3.15,25.5,24.75,-54.19922,-43.45703,1013.18359,-0.023981696587028086,0.030110245722480975,0.16587295051688747,72.9,6.75,87.6,-844.23828,-1.46484,586.91406,-0.27272427625200796,-0.031575798695380616,0.03863705178309927,55.8,24.75,22.5
-971.19141,20.50781,-301.75781,0.03637213801278623,0.021583439661862675,0.029710565323774273,-3.6,25.35,24.6,-74.21875,-92.28516,1047.85156,0.0660827033365605,0.03317452029020742,0.17093562707814744,71.7,6.3,87.15,-845.70312,-2.92969,611.81641,-0.21356965738123893,-0.05702304825530834,0.077007591789419,56.1,25.35,23.25
-956.54297,26.36719,-300.29297,0.08660027042423024,-0.07900616831587771,-0.009592678634811233,-3.75,25.8,24.3,-86.42578,-90.82031,1023.4375,0.09139660974163587,0.021716608283789844,0.10751769244353188,70.35,5.55,87.9,-823.24219,-14.64844,596.67969,-0.16733850348978713,-0.05382543053272952,0.10045643935581322,57.3,25.05,22.5
-921.875,6.83594,-306.64062,0.0046631706954784495,-0.009592678634811233,-0.017053612121236593,-3.3,26.1,24.6,-87.40234,-100.09766,1014.64844,0.05622351292496973,0.03983609297921937,0.05582383252626303,70.35,5.55,87.9,-832.51953,-15.13672,604.49219,-0.1569464640575625,-0.04276719892501865,0.1370949146124538,55.8,26.25,23.1
-911.62109,2.44141,-303.22266,0.06981317007977318,-0.014788698350923554,-0.009192998236104533,-3.3,26.1,24.6,-91.79688,-71.28906,999.02344,0.11044862385640596,0.03290818304635308,0.09685914123452771,71.55,7.35,87.0,-840.33203,-17.08984,623.04687,-0.13562936163955416,-0.015987739547043658,0.07087904265396612,56.7,26.4,23.25
-933.10547,-7.8125,-287.59766,0.1436233186795386,-0.05342575013402282,0.05102749320885741,-3.3,26.1,24.6,-91.30859,-104.98047,1002.44141,0.1196416220925105,0.02931088492506757,0.04809656179598333,70.8,5.7,88.05,-828.61328,-11.23047,593.26172,-0.01678710034445706,-0.031575798695380616,0.07021285047847989,56.1,25.35,22.95
-924.80469,-2.92969,-290.03906,0.10471975511965978,-0.018385996472209065,0.06235223659334782,-4.2,24.3,24.3,-99.12109,-35.15625,1000.97656,0.13682840283567427,0.05289272658046376,0.02278248085798278,70.8,5.7,88.05,-834.96094,5.85937,571.77734,-0.022649312236055614,-0.021050590641228807,0.11830941227446322,56.1,25.35,22.95
-926.26953,16.11328,-306.15234,0.10645181986933895,0.05289272658046376,0.05302606973531612,-3.75,26.25,25.35,-131.34766,-22.46094,996.09375,0.21996471829347133,0.04449926367469782,0.009459335479958867,70.35,7.8,86.85,-828.61328,45.41016,589.84375,-0.007993957039984428,-0.03677181841149293,0.07580855059329891,58.05,27.75,22.05
-933.10547,5.37109,-310.54687,0.10418690609902591,-0.058888281626914674,0.028777861371508503,-4.05,26.4,24.9,-116.21094,8.30078,999.51172,0.13776110678794004,0.04210100674953242,0.06541651116107426,72.6,6.9,86.7,-827.63672,49.31641,586.91406,0.04356655972243205,0.0011990411961201044,0.10272135312612628,58.05,27.75,22.05
-942.38281,33.69141,-319.33594,0.15068457176725725,-0.06088668362044818,0.13562936163955416,-5.25,24.0,25.8,-107.42188,49.31641,1064.45313,0.07034601910040704,0.05235987755982989,0.0454317930940384,71.4,6.3,87.15,-823.73047,61.03516,580.07812,0.06101985224237535,-0.023848353432175718,0.04276719892501865,57.3,25.8,22.05
-952.63672,46.38672,-325.19531,0.051560516762416485,-0.07794029574168478,0.12097400644348297,-5.25,24.0,25.8,-119.14063,83.49609,1054.6875,0.19678255703678188,-0.08180393110682463,0.04463243229662499,71.4,6.3,87.15,-835.44922,61.52344,586.42578,0.02704597115475453,-0.06155287579593442,0.03543943406052046,57.3,28.05,22.05
-947.75391,26.36719,-340.33203,0.12257272803830976,-0.12643636340344963,0.1212403436873373,-3.45,24.75,24.75,-131.34766,10.74219,984.86328,0.19878095903031537,0.12803525953120162,0.008127125661911596,71.25,7.35,86.25,-833.49609,23.92578,585.44922,-0.03117611829667391,-0.06275191699205453,0.011990761027051442,56.4,25.35,22.65
-948.73047,12.20703,-351.07422,0.14082538135566647,-0.16240882101752913,0.12097400644348297,-3.3,26.1,24.15,-105.95703,24.41406,1020.50781,-0.056356856079822104,-0.0385038831611721,0.13842729896342626,71.7,6.3,86.85,-807.61719,13.67187,602.53906,-0.11258036900479183,-0.04076879693148514,0.009592678634811233,56.4,26.1,24.0
-940.42969,9.76562,-327.63672,0.12550383398410905,-0.11058196701125833,0.05782240905272174,-2.55,25.35,25.2,-93.26172,12.69531,1041.01563,0.02224963183734891,-0.017852972918649995,0.15814550525368262,72.15,8.25,87.15,-807.61719,6.83594,586.91406,-0.03930324395858551,-0.05302606973531612,0.0030642745677264445,55.35,28.2,23.25
-937.01172,16.11328,-315.42969,0.1815941782871516,-0.18292656263812407,0.09566010003840761,-2.55,26.4,24.15,-88.86719,-44.92188,1014.64844,0.0013323843509724712,-0.02558041818185489,0.11990813386929003,71.55,6.9,86.7,-799.80469,6.34766,563.47656,0.007860613885132062,-0.025846929958634426,0.03250850264764638,57.0,25.5,21.75
-950.68359,54.19922,-309.08203,0.14908567563950523,-0.18385909205746465,0.05875493847206231,-2.55,26.4,24.15,-86.42578,-37.10938,1001.95312,0.09139660974163587,0.03330786344505979,0.023582016188321384,71.7,7.5,86.85,-794.92187,-20.99609,561.03516,0.09219597053904927,0.0046631706954784495,-0.0002665117767795341,57.0,25.5,21.75
-964.35547,69.33594,-320.3125,0.10205516095064003,-0.1885222627529431,0.0466310088230837,-3.0,26.7,23.55,-86.42578,-39.55078,998.04687,0.03930324395858551,0.016920443499309427,0.00373046674321268,72.3,6.15,85.65,-806.64062,-34.17969,558.59375,0.077007591789419,0.03623896939085906,0.019451694513476805,56.1,27.15,22.95
-978.02734,71.28906,-328.61328,0.14042570095695978,-0.2508744993462909,0.056356856079822104,-2.55,25.65,24.6,-117.67578,-33.69141,997.07031,0.04609798526952463,0.09539358826162808,-0.0031976177225788113,72.3,6.15,85.65,-818.35937,-31.73828,535.15625,0.1366952342137471,0.04156815772889855,-0.04010260475599891,56.1,27.15,22.95
-987.79297,93.26172,-310.05859,0.0579555776746489,-0.273257299805567,0.11124815918674456,-3.3,25.35,25.65,-106.44531,-23.92578,980.95703,0.016653931722529894,0.0656830229378538,-0.019984718067035872,71.1,7.05,87.6,-838.37891,-28.80859,568.84766,0.06634921511334003,0.07607506237007844,-0.039969436134071744,56.1,27.15,22.95
-995.11719,92.77344,-309.08203,-0.011591080628344743,-0.25074115619143855,0.10525260414029364,-4.5,24.75,24.0,-113.28125,-18.06641,979.49219,0.035039753661813756,0.05409194230950906,0.005329188338039486,71.55,8.1,85.65,-851.5625,-20.50781,548.33984,0.1436233186795386,0.06794793670816685,-0.07420982899847209,57.3,25.05,23.1
-965.82031,77.14844,-296.38672,-0.02278248085798278,-0.3265497067847375,0.11337972980220523,-4.5,24.75,24.0,-140.13672,-37.10938,979.49219,-0.05275955795853659,0.01851916509413623,0.029577396701847107,71.1,7.5,86.1,-861.81641,15.625,549.80469,0.14135840490922555,0.024381376985734785,-0.06674889551204674,56.4,26.1,23.25
-937.98828,65.42969,-277.83203,-0.03663864978956576,-0.3133599045615659,0.045032112695331694,-2.55,26.1,24.9,-127.44141,-44.92188,1000.0,-0.04023577337792608,0.030110245722480975,-0.07301078780235198,71.1,7.5,86.1,-869.62891,21.48438,577.63672,0.10711783751189999,0.04050228515470561,-0.02944405354699474,55.8,26.25,22.8
-929.19922,53.22266,-281.73828,-0.09619294905904148,-0.24501228745469236,0.023582016188321384,-2.7,25.5,24.3,-129.88281,-57.12891,1001.95312,-0.06888046612750741,0.032375159492794015,0.0017320647496791726,71.1,7.5,86.1,-875.97656,40.52734,568.84766,0.16107661119948188,-0.008260294283838763,-0.0369049870334201,56.25,27.3,22.5
-916.99219,59.57031,-275.87891,-0.07234459562686575,-0.1795957762936181,-0.01625425132382319,-2.4,24.0,25.05,-144.04297,-33.69141,1012.69531,-0.017320123898016127,0.04103530870826468,-0.10018992757903368,71.4,7.5,85.8,-895.50781,55.17578,573.73047,0.10964926305899256,0.008659974682545464,-0.04236751852631195,57.0,27.0,23.55
-914.0625,40.03906,-265.13672,-0.04716385784371757,-0.09832469420742734,0.045032112695331694,-1.8,25.35,25.2,-154.78516,-21.48438,1029.78516,-0.042634030303091486,0.08446852527584436,-0.10911641403835869,71.1,7.05,86.85,-875.0,39.0625,576.66016,0.12550383398410905,-0.05129400498563695,-0.0279785005740951,57.3,25.8,23.1
-948.73047,54.19922,-259.27734,-0.05555749528240869,-0.06501683076236757,-0.03903673218180597,-1.8,25.35,25.2,-140.625,-18.06641,1055.17578,-0.002131745148385874,0.051960197161123184,-0.05702304825530834,72.15,7.8,87.15,-875.48828,37.59766,589.84375,0.08260329190423803,-0.007061253087718659,-0.04436592051984546,57.3,25.8,23.1
-967.28516,50.78125,-277.83203,-0.011457912006417574,-0.04689734606693803,-0.09752533341001395,-2.25,24.15,25.65,-140.13672,-40.52734,1053.71094,-0.06395095818817463,0.02704597115475453,-0.08580090962681684,70.35,6.3,87.9,-867.67578,36.13281,581.05469,0.11777638872090417,0.026646290756047828,-0.09605978043711431,57.0,26.25,21.3
-1004.39453,61.03516,-289.55078,0.007194421709645826,-0.08047172128877735,-0.06941348968106648,-4.05,24.6,24.6,-142.57812,-60.54688,1055.66406,-0.10405356294417353,-0.03210864771601448,-0.08300314683586993,71.7,7.05,87.15,-852.05078,10.74219,557.61719,0.19558351584066178,0.0041301471419193814,-0.04529862447211123,57.0,26.25,21.3
-1003.90625,41.50391,-288.57422,-0.02571358680378206,-0.06088668362044818,-0.10924958266028587,-3.15,25.8,25.8,-106.93359,-72.75391,1019.53125,-0.14881933839565087,-0.0684807857288007,-0.06781476808623968,72.15,8.25,86.55,-837.89062,13.18359,585.44922,0.14508887165243822,-0.019318525891549636,-0.02518073778314819,55.5,25.5,22.5
-1000.0,16.60156,-294.92187,-0.02411486520895525,-0.08620059002552354,-0.10911641403835869,-3.15,25.05,24.75,-98.14453,-89.35547,1020.50781,-0.08953137637002952,-0.019185357269622467,-0.08766614299842318,72.15,8.25,86.55,-833.98437,7.8125,583.98437,0.17093562707814744,-0.008260294283838763,-0.04609798526952463,57.45,25.35,24.0
-973.63281,2.44141,-268.55469,0.016120908168970823,-0.14855282661887137,-0.10085611975451993,-3.15,25.05,24.75,-107.91016,-74.70703,1011.23047,-0.05116083636370978,0.00013316862192716734,-0.0928621627145355,70.35,6.3,87.15,-816.89453,1.95312,544.43359,0.2518070287656315,-0.01851916509413623,-0.031442630073453444,55.8,26.55,23.55
-966.79687,-22.94922,-271.97266,-0.019984718067035872,-0.11977496524736285,-0.17400007617879906,-3.6,25.35,25.2,-109.86328,-66.89453,991.69922,-0.01585457092511649,0.005062851094185151,-0.10045643935581322,71.25,6.15,85.95,-825.68359,-0.48828,571.77734,0.25060798756951136,-0.022915824012835147,-0.019851374912183504,56.55,27.0,22.05
-946.28906,-38.57422,-266.11328,0.03837054000631974,-0.10538594729514601,-0.1029876903699806,-3.6,25.65,25.65,-118.16406,-62.5,998.04687,-0.03863705178309927,0.00279793732387211,-0.11417909059961863,71.4,7.8,86.85,-822.26562,16.60156,550.29297,0.2572695602585234,-0.027179139776681696,-0.08793265477520272,56.55,27.0,22.05
-947.75391,-40.03906,-247.07031,0.14695410502404457,-0.06981317007977318,-0.08846550379583658,-2.4,24.0,25.8,-144.04297,-45.41016,977.05078,-0.0014655529728996386,0.04902909121532391,-0.1159111553492978,71.4,6.75,86.55,-838.86719,26.36719,534.17969,0.2796523607177994,-0.020251229843815406,-0.0035972981212855125,56.7,24.6,22.65
-932.61719,-32.71484,-253.90625,0.13922665976083967,-0.04063545377663278,-0.09419454706550798,-2.4,24.0,25.8,-123.53516,-40.03906,1000.48828,-0.06754825630946014,-0.0458314734927451,-0.18625734898263008,71.25,7.65,86.25,-824.21875,29.78516,555.17578,0.27698776654877966,-0.023981696587028086,-0.05009496378951684,56.7,24.6,22.65
-955.07812,-35.64453,-244.14062,0.16907039370654112,0.017586461141870464,-0.07820680751846432,-2.4,24.0,25.8,-135.25391,-54.6875,983.39844,-0.07647474276878514,-0.016120908168970823,-0.11937511031573096,71.25,6.9,87.0,-838.37891,47.36328,557.61719,0.24514545607661953,-0.01025887081029747,-0.0811377389313384,56.1,26.7,21.9
-946.77734,-27.34375,-261.71875,0.10165548055193334,0.06368444641139509,-0.06821444848494637,-2.1,24.75,25.35,-123.04688,-66.40625,983.88672,-0.04449926367469782,0.03277483989150072,-0.13629555381504038,71.25,6.9,87.0,-840.33203,43.94531,565.42969,0.2768545979268525,-0.015721227770264124,-0.07101221127589329,54.75,25.8,23.55
-935.05859,-3.90625,-273.4375,0.158944866051096,0.009059655081252166,-0.0190520141147701,-1.8,24.9,24.6,-133.78906,-53.22266,1008.30078,-0.011724423783197109,-0.02278248085798278,-0.1994471512058016,71.4,5.25,84.75,-842.28516,41.01563,566.89453,0.27112555465718113,-0.05822208945142844,-0.04343339110050489,56.25,24.3,23.1
-966.30859,-8.78906,-267.57812,0.08713329397778931,0.1065849884912661,-0.03104294967474674,-2.1,24.75,24.75,-125.97656,-50.78125,1023.92578,-0.06874729750558024,0.011591080628344743,-0.14495552849758583,71.7,6.75,86.85,-847.65625,34.66797,554.19922,0.2896447197513174,0.0005328490206338688,-0.04316687932372535,55.5,25.8,23.1
-974.12109,-14.16016,-283.20312,0.12830177130798115,0.08713329397778931,0.0014655529728996386,-2.1,24.75,24.75,-122.55859,-62.5,1024.90234,-0.02984373394570144,-0.014389017952216851,-0.12923430072732173,72.15,6.75,86.85,-852.05078,55.17578,554.19922,0.28245029804167154,-0.06035383459981431,-0.04476577545147736,57.15,25.65,21.9
-991.69922,12.20703,-291.50391,0.14082538135566647,0.09419454706550798,0.021316927885083145,-2.4,26.25,26.1,-119.62891,-32.22656,1025.87891,0.0046631706954784495,0.004929507939332785,-0.16147629159818858,72.15,6.75,86.85,-855.95703,51.75781,567.87109,0.22302916739412298,0.028644692749581334,-0.039969436134071744,54.9,26.7,22.2
-1016.11328,16.11328,-297.85156,0.0462311538914518,0.0831363154577971,0.015721227770264124,-3.6,25.35,24.6,-125.97656,-15.13672,1021.97266,-0.0377045223637587,-0.0019984019935335075,-0.16001073862528895,71.7,6.0,87.15,-853.02734,58.59375,560.54687,0.28524806083261844,0.020784078864449274,-0.10938292581513821,54.9,26.7,22.2
-1009.27734,32.22656,-296.38672,0.06115319539722772,-0.02464771422958912,0.014655355196071187,-4.2,24.75,25.35,-117.1875,-7.32422,1014.64844,0.0035972981212855125,0.0029311059457992773,-0.13549619301762697,70.8,6.15,87.75,-854.00391,53.22266,562.98828,0.27752061556941354,-0.0063950609122324234,-0.11790973187575651,54.9,26.7,22.2
-994.14062,19.04297,-294.92187,0.029044373148288036,-0.009992359033517936,0.05049464418822355,-2.55,24.6,25.95,-106.44531,-11.71875,1023.92578,-0.04716385784371757,-0.03117611829667391,-0.1541485267336904,71.25,6.9,86.7,-851.5625,59.57031,546.38672,0.2941745472919434,-0.015188378749630253,-0.08406884487713767,55.2,27.0,22.05
-1008.30078,5.85937,-301.26953,-0.0190520141147701,0.006661572689011957,-0.007993957039984428,-2.55,24.6,25.95,-125.97656,-20.50781,1016.60156,-0.08260329190423803,-0.015188378749630253,-0.13736142638923332,71.1,6.0,86.55,-853.51562,69.82422,557.61719,0.3121608633654458,0.02198312006056938,-0.08913169597132281,55.2,27.0,22.05
-978.51562,-4.88281,-305.66406,0.0283781809728018,-0.010392039432224637,0.0373046674321268,-2.55,24.6,25.95,-129.88281,-29.78516,1017.57812,-0.08007204089007065,0.0031976177225788113,-0.11777638872090417,71.7,4.8,86.85,-855.46875,78.125,576.17187,0.2462113286508125,-0.039569755735365045,-0.1065849884912661,55.2,25.05,22.8
-975.58594,12.20703,-293.45703,-0.0046631706954784495,-0.052226708937902724,-0.04223434990438478,-2.25,25.35,25.65,-136.23047,-25.39063,1012.20703,-0.09339518626809457,0.015721227770264124,-0.13842729896342626,72.45,6.3,87.15,-860.35156,79.10156,582.51953,0.23009042048184167,-0.030376757499260505,-0.10538594729514601,57.0,27.0,23.55
-983.39844,18.55469,-308.59375,-0.005062851094185151,0.00746093348642536,-0.01625425132382319,-3.0,24.15,26.25,-134.27734,-48.33984,1036.62109,-0.08366916447843097,0.0373046674321268,-0.07514235841781267,72.45,6.3,87.15,-874.51172,65.42969,566.89453,0.21623425155025866,-0.03863705178309927,-0.15388201495691084,56.4,26.4,21.9
-973.14453,29.78516,-280.27344,0.06101985224237535,0.013722825776730615,-0.015721227770264124,-2.55,24.9,25.65,-133.30078,-53.71094,1036.13281,-0.09512707648484854,0.025047394628295826,-0.1775971997671594,70.35,6.0,86.1,-861.32812,73.73047,572.26562,0.25926796225205684,0.021183759263155976,-0.12710255557893585,55.35,26.4,22.2
-971.19141,18.06641,-298.82812,-0.02518073778314819,0.03543943406052046,-0.026779459377974997,-2.4,24.3,25.35,-159.17969,-51.26953,1019.53125,-0.09232931369390163,-0.0011990411961201044,-0.18612400582777772,70.8,6.6,86.25,-860.83984,64.94141,571.28906,0.2849817235887641,-0.07074587403203896,-0.11897542991702426,58.35,26.25,22.5
-950.19531,10.74219,-289.0625,-0.06701523275590107,0.02411486520895525,-0.04316687932372535,-2.4,24.3,25.35,-135.25391,-47.36328,1020.99609,-0.11577798672737065,-0.021716608283789844,-0.17040277805751358,71.7,5.55,86.1,-864.74609,81.05469,582.51953,0.2744563410016871,-0.05822208945142844,-0.09259565093775597,56.25,24.75,21.75
-951.17187,-8.78906,-279.78516,0.004929507939332785,0.0030642745677264445,-0.03637213801278623,-2.1,25.5,24.0,-134.76562,-64.94141,1025.39063,-0.05022813241144401,-0.06128636401915488,-0.16041041902399564,71.7,5.55,86.1,-860.83984,86.42578,584.47266,0.2117044240096326,-0.05742272865401504,-0.07087904265396612,56.25,24.75,21.75
-928.22266,-22.46094,-278.32031,-0.0033307863445059785,0.0046631706954784495,-0.04836289903983767,-2.55,24.6,24.15,-123.04688,-52.73438,1016.60156,-0.07527570157266503,-0.06315159739076123,-0.13762793816601288,71.55,4.95,86.7,-854.98047,79.10156,573.73047,0.2983046944338628,-0.0831363154577971,-0.13522968124084744,55.8,25.5,22.5
-945.80078,-33.69141,-287.59766,0.04223434990438478,0.10685150026804564,-0.08153759386297028,-1.8,24.6,26.25,-118.65234,-50.29297,1012.20703,-0.05076115596500308,-0.06101985224237535,-0.11737670832219745,70.8,4.95,85.2,-850.58594,89.35547,570.3125,0.2343537362456882,-0.04316687932372535,-0.1436233186795386,55.8,25.5,22.5
-945.80078,-27.83203,-295.41016,0.09659262945774817,-0.011857592405124276,-0.013855994398657782,-1.5,24.15,25.95,-118.65234,-64.45313,992.1875,-0.0660827033365605,-0.10845022186287244,-0.09899088638291359,70.8,4.95,85.2,-832.51953,87.40234,565.91797,0.24461260705598567,-0.05688970510045597,-0.13562936163955416,55.65,26.4,21.15
-975.58594,-21.48438,-302.24609,0.06941348968106648,0.1025880099712739,-0.047430369620497105,-1.5,24.15,25.95,-111.32813,-38.08594,991.69922,0.015321547371557422,-0.052626389336609423,-0.09885754322806121,71.25,4.95,87.0,-809.08203,98.14453,561.03516,0.21756663590123115,-0.06128636401915488,-0.09765850203194111,57.15,25.65,20.85
-988.76953,-29.78516,-296.875,0.04516545585018406,0.026246610357341126,-0.0041301471419193814,-2.55,25.35,25.2,-92.28516,-58.59375,990.72266,-0.00279793732387211,-0.08859884695068895,-0.17533228599684636,72.15,5.55,86.1,-818.35937,107.42188,558.59375,0.2165007633270382,-0.09392803528872844,-0.12377176923442987,56.55,25.5,21.75
-990.23437,-4.88281,-287.59766,0.07487602117395832,-0.059421130647548545,0.009725847256738402,-1.65,24.3,25.05,-87.40234,-35.64453,973.14453,0.01638741994575036,-0.09392803528872844,-0.15468155028724945,71.1,4.05,85.05,-787.59766,127.44141,565.42969,0.21583457115155197,-0.05902145024884184,-0.10951609443706539,57.15,24.9,22.95
-989.25781,0.97656,-278.80859,0.024781057384441488,-0.028111843728947466,-0.04476577545147736,-1.65,23.7,24.0,-77.14844,-24.41406,983.39844,-0.05049464418822355,-0.11004894345769926,-0.10418690609902591,71.1,4.05,85.05,-786.13281,119.62891,555.66406,0.1684043760639801,-0.03330786344505979,-0.16427405438913548,57.45,24.9,22.65
-965.33203,7.32422,-264.16016,0.03330786344505979,-0.034773416417959425,-0.013855994398657782,-2.55,24.6,26.25,-75.68359,-24.41406,974.12109,-0.030110245722480975,-0.02224963183734891,-0.12550383398410905,71.1,4.05,85.05,-788.08594,125.48828,553.71094,0.132165406673121,-0.02891120452636087,-0.10285452174805344,57.15,24.6,21.9
-952.14844,5.37109,-253.90625,0.07434299762039927,-0.11684385930156357,0.0377045223637587,-2.55,24.6,26.25,-72.75391,-19.53125,971.67969,-0.06022049144496195,-0.04303371070179819,-0.14828631484209184,70.2,4.65,85.2,-791.01562,90.82031,559.57031,0.034373736019252726,0.004396658918698916,-0.18892194315164978,57.15,24.6,21.9
-953.125,6.83594,-263.18359,0.05289272658046376,-0.17546562915169872,0.05315923835724329,-2.25,23.4,25.2,-76.66016,-37.10938,972.65625,-0.06475031898558803,-0.0567565364785288,-0.07900616831587771,71.25,4.2,87.45,-790.03906,68.84766,519.04297,0.12683621833508152,0.013323145378023914,-0.14002602055825306,57.3,24.3,23.55
-978.02734,-8.30078,-268.06641,0.023715184810248553,-0.09019756854551575,0.017586461141870464,-2.55,25.65,25.65,-82.03125,-32.71484,970.21484,-0.04982845201273731,-0.04596481664759746,-0.096459460835821,70.35,4.8,86.1,-808.10547,78.125,518.55469,0.12830177130798115,-0.030909606519894377,-0.1115144964305989,56.55,24.75,23.85
-1001.46484,-20.99609,-278.32031,0.09632611768096865,-0.13323127924731393,-0.01119140022963804,-3.3,23.85,24.6,-110.83984,-44.92188,974.12109,-0.07527570157266503,-0.031309286918601076,-0.08486838020747627,70.8,4.95,87.0,-802.24609,66.40625,563.96484,0.13403064004472734,-0.044099583275991124,-0.17533228599684636,57.15,24.15,21.9
-1070.3125,-30.27344,-282.22656,0.11124815918674456,-0.06754825630946014,-0.006261892290305255,-2.4,23.7,26.1,-92.28516,-41.50391,922.85156,0.051960197161123184,-0.015721227770264124,-0.09152977836356303,73.5,5.25,86.85,-811.52344,90.33203,563.47656,0.11671051614671123,-0.08753297437649601,-0.1508177403891844,56.7,24.9,21.9
-1059.57031,-20.01953,-267.08984,0.08859884695068895,-0.06248540521527499,-0.094860564708069,-2.4,23.7,26.1,-100.58594,-52.24609,965.82031,0.09312867449131504,-0.06594953471463334,-0.07167840345137952,71.4,4.05,85.8,-810.54687,116.21094,613.76953,0.0839356762552105,-0.07993869773521828,-0.11990813386929003,56.7,24.9,21.9
-1035.15625,2.92969,-238.76953,0.11790973187575651,-0.1212403436873373,-0.10405356294417353,-2.55,23.85,24.9,-70.3125,-28.32031,1011.23047,0.1476202971995308,-0.030376757499260505,-0.0579555776746489,71.4,4.05,85.8,-808.59375,125.48828,619.62891,0.019984718067035872,-0.04396624012113876,-0.14375648730146573,57.0,24.0,23.1
-1008.30078,-2.92969,-222.65625,0.1390934911389125,-0.17533228599684636,-0.1289677889505422,-2.7,22.95,25.35,-61.52344,-38.08594,1035.15625,0.09765850203194111,-0.016520588567677526,-0.0385038831611721,71.25,5.7,86.7,-809.08203,87.89063,604.98047,-0.03330786344505979,0.019318525891549636,-0.15268297376079074,57.15,24.9,21.6
-967.28516,-2.92969,-213.86719,0.07967236049136395,-0.19691572565870902,-0.1633415249697949,-1.65,25.5,25.8,-72.75391,-42.96875,1054.6875,0.02651294760119546,-0.024381376985734785,-0.026779459377974997,71.55,5.4,85.95,-812.98828,103.51563,606.93359,-0.04436592051984546,-0.00013316862192716734,-0.1436233186795386,57.15,24.9,21.6
-941.89453,-6.83594,-199.21875,0.14082538135566647,-0.18745639017875018,-0.12377176923442987,-2.25,24.15,25.65,-62.5,-45.89844,1094.23828,-0.030110245722480975,-0.0365053066347134,-0.03290818304635308,71.55,4.65,85.95,-819.82422,83.98438,594.72656,-0.005462531492891852,0.02731248293153406,-0.12190653586282353,56.4,23.85,22.65
-927.73437,-18.06641,-211.42578,0.1684043760639801,-0.14229093432856613,-0.020784078864449274,-2.25,24.15,25.65,-75.19531,-60.05859,1088.37891,-0.029577396701847107,0.016520588567677526,0.011324568851565207,71.55,4.65,85.95,-801.75781,85.9375,589.35547,0.05688970510045597,0.04689734606693803,-0.09299533133646266,56.4,23.85,22.65
-949.70703,-27.34375,-224.60937,0.11271371215964421,-0.06781476808623968,-0.07034601910040704,-1.65,22.2,26.4,-75.19531,-80.56641,1046.875,-0.1103154552344788,-0.04796321864113097,0.0014655529728996386,71.55,4.2,87.0,-820.80078,116.69922,602.05078,0.055690663904335864,0.02411486520895525,-0.09552675688355523,57.45,23.4,21.6
-977.53906,-23.4375,-223.63281,0.12750223597764257,-0.12137368684218967,0.006261892290305255,-1.65,24.3,26.1,-70.3125,-96.67969,1021.97266,-0.14535520889629253,-0.02731248293153406,0.007727445263204894,71.25,4.95,87.0,-824.70703,101.5625,601.07422,0.0377045223637587,0.07780712711975761,-0.08486838020747627,57.3,23.7,23.85
-958.98437,-25.87891,-235.83984,0.11671051614671123,-0.1366952342137471,0.05862176985013514,-2.55,22.65,26.7,-81.05469,-66.89453,1006.83594,-0.08233695466038368,0.05462479133014293,-0.015321547371557422,71.25,4.95,87.0,-825.68359,107.91016,588.86719,0.09232931369390163,0.06408430134302699,-0.05462479133014293,57.9,23.85,24.0
-936.52344,-10.25391,-229.00391,0.07900616831587771,-0.0835359958565038,0.0454317930940384,-2.55,22.65,26.7,-89.84375,-53.22266,998.53516,-0.012257272803830977,0.008526806060618296,0.0007993607974134029,71.7,5.55,86.55,-838.86719,88.37891,625.0,0.03677181841149293,0.08007204089007065,-0.10112245699837426,57.15,24.6,23.25
-907.22656,-14.16016,-239.25781,0.04330022247857772,-0.10671815711319327,0.11537830632866394,-2.55,22.65,26.7,-142.08984,-80.56641,1014.16016,-0.05688970510045597,0.018785676870915768,0.010924888452858507,72.15,4.8,86.1,-840.33203,96.19141,603.51562,0.08326948407972427,0.09979024718032699,-0.05808874629657607,57.0,25.5,22.05
-889.16016,-7.8125,-255.85937,0.04436592051984546,-0.07274427602557246,0.13283159884860724,-2.1,23.7,25.05,-153.80859,-99.12109,1007.8125,-0.09592643728226194,0.0458314734927451,-0.02464771422958912,72.3,4.95,88.05,-843.26172,81.54297,583.98437,0.08886518419454328,0.09526041963970092,-0.034773416417959425,55.5,24.75,22.8
-883.78906,-8.78906,-248.04687,0.005329188338039486,0.003996978519992214,0.08153759386297028,-1.05,24.3,25.35,-166.50391,-112.30469,1031.25,-0.1470872736459717,0.021316927885083145,-0.022516143614128445,72.3,4.95,88.05,-834.96094,54.19922,551.75781,0.14029253233503258,0.11377941020091194,-0.020650910242522108,55.5,24.75,22.8
-870.11719,-20.01953,-247.07031,0.021050590641228807,0.11604432397122498,0.09792501380872065,-2.7,23.25,26.85,-156.73828,-90.33203,973.63281,-0.10685150026804564,0.05515781488370199,0.0035972981212855125,71.4,5.55,87.9,-827.63672,78.61328,568.35937,0.1649402465646217,0.10085611975451993,0.029710565323774273,57.3,22.2,23.55
-896.97266,2.44141,-278.32031,0.08047172128877735,0.09752533341001395,0.16200914061882243,-2.7,23.25,26.85,-138.67187,-139.16016,945.3125,-0.05462479133014293,0.034373736019252726,-0.026379778979268294,72.45,4.5,86.85,-822.26562,82.03125,552.73437,0.13163238311956194,0.07767378396490525,0.0063950609122324234,57.3,22.2,23.55
-924.31641,-17.57813,-289.55078,0.010125527655445103,0.17586530955040544,0.09765850203194111,-2.55,23.1,25.65,-109.375,-91.79688,953.61328,0.05036147556629638,0.06834761710687355,-0.04516545585018406,73.35,4.2,87.0,-815.42969,95.70313,533.69141,0.10058960797774039,0.0668820641339739,-0.029977077100553806,57.9,23.85,22.65
-936.52344,-16.11328,-284.66797,0.016920443499309427,0.13762793816601288,0.0025314255470925756,-3.15,24.0,25.35,-119.62891,-57.12891,958.49609,0.05502447172884963,0.07474267801910597,-0.015588059148336955,71.55,4.65,86.25,-820.3125,98.63281,536.62109,0.019318525891549636,0.07367680544491303,0.022649312236055614,58.05,23.25,21.0
-951.66016,-26.36719,-290.03906,0.07567538197137175,0.1436233186795386,0.08926486459324998,-3.0,24.9,25.2,-137.20703,-48.33984,970.21484,0.05955429926947571,0.08260329190423803,-0.006661572689011957,71.1,4.5,87.6,-848.14453,92.28516,560.05859,-0.03277483989150072,0.10951609443706539,-0.0007993607974134029,57.15,23.85,22.65
-968.75,3.41797,-302.73437,0.013722825776730615,0.11444560237639817,-0.024781057384441488,-3.0,24.6,25.2,-147.46094,-51.26953,993.65234,-0.00013316862192716734,0.08127108208619076,-0.01305663360124438,72.6,4.65,87.0,-858.39844,80.56641,541.99219,-0.05742272865401504,0.11218068860608514,0.0,57.0,25.05,21.75
-964.35547,20.99609,-320.80078,-0.0031976177225788113,0.08913169597132281,-0.04636449704630416,-3.0,24.6,25.2,-155.27344,-52.24609,982.42187,0.024781057384441488,0.05275955795853659,-0.017852972918649995,72.6,4.65,87.0,-855.46875,93.75,553.71094,-0.09526041963970092,0.08420218803199005,0.03530626543859329,56.7,24.15,22.2
-955.56641,10.25391,-315.91797,-0.008793317837397832,0.06315159739076123,0.007860613885132062,-3.0,24.6,25.2,-139.64844,-49.80469,1000.48828,0.0365053066347134,0.006661572689011957,0.015588059148336955,71.25,3.15,86.25,-849.12109,85.44922,566.89453,-0.10272135312612628,0.002131745148385874,0.013456313999951081,57.3,24.75,22.5
-956.54297,0.97656,-312.98828,-0.05169368538434365,0.08366916447843097,0.0093261668580317,-3.0,24.6,26.25,-134.76562,-46.38672,994.62891,0.006261892290305255,0.02038439846574257,0.009592678634811233,72.0,2.7,87.45,-859.375,85.9375,559.57031,-0.10765086106545904,0.04889592259339674,0.00559570011481902,57.3,24.75,22.5
-937.5,6.83594,-294.43359,-0.05928796202562137,0.10072277659966757,-0.06368444641139509,-2.1,23.7,25.35,-144.04297,-66.40625,1017.08984,0.03224199087086685,0.0648836621404404,-0.006261892290305255,72.0,3.9,86.25,-860.83984,69.33594,595.21484,-0.13762793816601288,0.01811948469542953,0.07913933693780488,57.0,24.0,22.05
-918.94531,-15.625,-304.6875,-0.02198312006056938,0.05462479133014293,-0.024781057384441488,-3.0,23.85,25.65,-126.46484,-79.10156,1024.90234,-0.00559570011481902,0.021583439661862675,0.01025887081029747,72.0,3.9,86.25,-855.95703,57.12891,591.30859,-0.16200914061882243,0.027845331952167932,-0.03304135166828025,57.3,24.75,21.3
-921.38672,-22.94922,-293.94531,-0.06341810916754076,0.09925722362676792,-0.07794029574168478,-2.1,23.25,26.1,-123.53516,-81.05469,1036.62109,-0.014655355196071187,-0.027179139776681696,-0.008526806060618296,73.05,4.65,89.85,-842.28516,66.40625,587.89062,-0.16573960736203514,0.027845331952167932,0.0006661921754862356,56.55,25.8,21.3
-934.08203,-18.55469,-306.15234,-0.10018992757903368,0.0863337586474507,-0.08273663505909039,-2.1,23.25,26.1,-118.16406,-68.35938,1039.55078,0.04356655972243205,-0.06821444848494637,-0.005462531492891852,72.45,4.05,87.6,-853.02734,50.78125,589.35547,-0.18279321948327173,0.039969436134071744,0.00746093348642536,57.3,25.8,21.75
-970.70312,-10.25391,-309.57031,-0.048496242194690044,0.04489894407340452,0.018918845492842937,-2.4,23.7,26.1,-132.8125,-82.03125,1037.59766,0.008127125661911596,-0.0186523337160634,0.004796339317405617,72.45,4.05,87.6,-843.26172,57.12891,567.87109,-0.1512174207878911,0.06621587195848767,0.011324568851565207,57.3,23.7,22.05
-988.76953,-6.83594,-308.59375,-0.02651294760119546,-0.006794741310939124,0.034107224242473186,-3.3,23.1,24.9,-114.74609,-53.22266,1037.10938,-0.020650910242522108,-0.0041301471419193814,-0.021583439661862675,72.45,4.05,87.6,-843.26172,85.44922,572.75391,-0.12990049290280797,0.017453292519943295,0.03357420068891412,56.1,25.35,21.15
-1004.39453,-28.32031,-316.89453,-0.04836289903983767,0.0664823837352672,-0.03210864771601448,-2.55,25.35,24.6,-122.07031,-63.47656,1031.25,-0.010525208054151804,0.00839363743869113,0.03970292435729221,70.65,4.5,87.6,-849.12109,80.07813,556.64062,-0.1374945950111605,0.0275788201753884,-0.02744565155346123,56.55,24.3,21.3
-1029.29688,-18.55469,-325.19531,-0.01958503766832917,-0.04729702646564473,-0.011990761027051442,-2.55,23.85,25.2,-128.90625,-70.80078,1030.27344,-0.04343339110050489,0.0093261668580317,0.02091724748637644,73.35,2.7,85.65,-859.86328,66.40625,540.52734,-0.15228329336208404,0.01851916509413623,0.015055210127703087,56.55,24.3,21.3
-1026.36719,-45.89844,-327.14844,0.013722825776730615,-0.0722112524720134,0.012790121824464847,-2.55,23.85,25.2,-124.51172,-83.00781,1012.20703,-0.08193727426167699,0.06155287579593442,0.01771980429672283,72.0,4.95,86.25,-862.30469,70.3125,560.54687,-0.1942511314896893,0.023981696587028086,-0.03384071246569365,57.6,25.5,21.75
-992.67578,-53.22266,-313.96484,0.0,-0.09752533341001395,-0.0896645449919567,-1.8,24.15,25.2,-124.51172,-104.00391,1005.37109,-0.09232931369390163,0.0022649137703130416,0.1077840296873862,72.0,4.95,86.25,-852.53906,78.125,568.35937,-0.24381324625857226,0.06261874837012736,0.029977077100553806,57.6,25.5,21.75
-977.05078,-43.94531,-310.54687,0.01811948469542953,-0.14402299907824528,0.017852972918649995,-3.3,24.15,26.7,-127.92969,-109.86328,1003.90625,-0.06888046612750741,0.015321547371557422,0.05502447172884963,70.8,4.2,86.7,-857.91016,71.77734,540.03906,-0.2314226302998889,0.06101985224237535,0.05342575013402282,58.2,22.65,23.25
-975.58594,-41.01563,-299.80469,0.07327712504620633,-0.10924958266028587,0.01811948469542953,-2.25,23.4,25.65,-125.97656,-107.91016,984.86328,0.01252378458061051,0.019185357269622467,0.07474267801910597,71.1,4.5,87.6,-852.05078,83.98438,558.10547,-0.2733904684274942,0.06714857591075343,0.018918845492842937,57.45,24.9,22.65
-970.21484,-16.11328,-285.15625,0.04489894407340452,-0.06954665830299364,0.009992359033517936,-1.8,23.4,25.95,-126.46484,-84.96094,1000.48828,0.029977077100553806,0.09526041963970092,0.047830050019203804,71.55,4.65,86.25,-833.00781,65.91797,568.84766,-0.2712587232791083,0.013189976756096747,0.08260329190423803,56.7,23.4,21.6
-982.91016,-13.67187,-274.41406,0.06621587195848767,-0.08033837813392498,0.04423275189791829,-1.8,23.4,25.95,-122.55859,-75.19531,1003.41797,0.06408430134302699,0.03903673218180597,0.08460186843069674,72.9,3.75,86.55,-824.70703,71.77734,566.40625,-0.2700596820829882,-0.037171498810199634,0.04529862447211123,56.7,24.6,22.65
-985.35156,0.0,-272.94922,0.06674889551204674,-0.1309663654770009,0.053292581512095656,-2.4,25.5,25.05,-112.79297,-66.40625,1004.88281,0.07767378396490525,0.0664823837352672,0.03117611829667391,71.25,3.9,87.75,-827.63672,77.14844,551.75781,-0.28698012558229763,0.015721227770264124,0.0559571756811154,55.8,24.3,22.8
-984.86328,-21.97266,-248.04687,-0.0291777163031404,-0.07114555443074566,-0.04956194023595778,-2.4,24.3,25.05,-127.44141,-79.10156,997.07031,0.06368444641139509,0.06315159739076123,0.1025880099712739,71.55,4.2,86.7,-833.00781,78.61328,536.13281,-0.3136264163383455,0.05475795995207009,0.0567565364785288,57.9,24.6,21.6
-970.70312,-23.92578,-255.37109,0.06128636401915488,-0.1248376418086228,0.0458314734927451,-1.05,25.05,25.35,-118.16406,-60.54688,994.14062,0.04982845201273731,0.07474267801910597,0.09299533133646266,71.55,4.2,86.7,-830.56641,70.80078,547.85156,-0.2940413786700163,0.04809656179598333,0.03916990080373314,57.9,24.6,21.6
-973.14453,-31.25,-255.85937,0.03250850264764638,-0.15774582485497587,0.03450690464117989,-1.5,23.4,26.25,-108.88672,-61.52344,1000.97656,-0.01212410418190381,0.07327712504620633,0.06248540521527499,72.15,4.8,86.55,-823.73047,45.41016,565.42969,-0.31802290072411915,0.05409194230950906,0.020784078864449274,57.9,24.15,23.25
-958.00781,-14.16016,-267.57812,-0.027179139776681696,-0.08566774100488968,-0.04649766566823133,-1.5,23.4,26.25,-120.60547,-64.94141,996.58203,-0.008793317837397832,0.06355127778946792,0.08646710180230308,72.15,5.25,86.85,-830.56641,45.89844,552.24609,-0.3068315004944811,0.04809656179598333,0.04596481664759746,57.9,24.15,23.25
-965.33203,-4.39453,-263.18359,0.05422511093143622,-0.038903563559878805,-0.024914226006368657,-0.75,22.65,24.6,-122.07031,-82.51953,999.02344,0.011058231607710873,0.1135130729570576,0.1436233186795386,71.4,3.75,87.6,-842.77344,45.41016,528.80859,-0.2632649407720491,0.021716608283789844,0.04836289903983767,57.9,24.9,22.65
-965.33203,3.90625,-270.50781,0.031575798695380616,-0.02558041818185489,0.0377045223637587,-1.35,23.25,25.05,133.78906,-102.53906,1010.25391,0.05649002470174927,0.3474671288040391,0.07341046820105869,71.4,3.75,87.6,-855.95703,41.99219,579.10156,-0.34480253463501936,0.002131745148385874,0.05915461887076901,56.7,23.1,23.7
-995.11719,14.64844,-276.85547,-0.04609798526952463,0.019851374912183504,-0.0365053066347134,-2.1,26.25,26.4,-212.89062,-47.36328,979.49219,0.14788663444338515,0.35119759554725183,0.08993105676873621,71.1,4.5,86.55,-866.69922,23.4375,582.51953,-0.3381409619460074,0.05235987755982989,0.09792501380872065,57.0,24.0,22.5
-988.28125,3.41797,-265.13672,0.01305663360124438,0.010924888452858507,0.013189976756096747,-3.3,25.35,25.2,-143.55469,-74.21875,977.05078,-0.012923464979317213,0.25793575243400957,0.06888046612750741,72.0,4.65,87.75,-889.16016,32.71484,577.14844,-0.2904440805487308,0.07274427602557246,0.06461715036366086,57.15,23.1,21.6
-995.60547,-3.41797,-259.76562,-0.0002665117767795341,-0.0377045223637587,0.00652840406708479,-3.3,25.35,25.2,-130.37109,-130.37109,1064.45313,0.0014655529728996386,0.1974487492122681,0.05315923835724329,72.0,4.65,87.75,-880.37109,37.59766,599.60937,-0.3101622868389871,0.03743801058697916,0.08500154882940344,57.15,25.35,21.9
-971.67969,-25.39063,-274.41406,-0.05142717360756412,-0.011857592405124276,-0.07114555443074566,-2.7,24.75,26.1,-144.04297,-114.25781,1047.85156,0.012656953202537678,0.12137368684218967,0.04489894407340452,71.7,4.8,87.15,-866.69922,33.69141,564.94141,-0.22929088515150303,0.04463243229662499,0.08167076248489745,56.1,24.15,23.7
-962.89062,-33.20313,-253.41797,0.007327764864498192,-0.01358965715480345,-0.09059724894422246,-1.35,24.0,24.75,-120.60547,-101.07422,1032.71484,0.008127125661911596,0.05116083636370978,0.05289272658046376,72.3,3.45,85.2,-849.60937,39.55078,553.22266,-0.2532725817385311,0.005728868736746187,0.09539358826162808,56.1,24.15,23.7
-969.72656,-38.08594,-262.69531,0.03304135166828025,0.013323145378023914,-0.004796339317405617,-1.2,23.85,24.9,-130.37109,-80.07813,1040.52734,0.02704597115475453,0.077007591789419,0.07021285047847989,71.7,4.05,87.15,-856.93359,33.69141,578.125,-0.21743346727930396,0.011324568851565207,0.11471211415317771,57.15,24.9,22.95
-958.49609,-26.36719,-270.99609,0.03450690464117989,0.0754088701945922,-0.017186780743163762,-1.2,23.85,24.9,-125.48828,-81.05469,1006.83594,0.07247776424879292,0.04183466950567808,0.01625425132382319,71.7,4.05,87.15,-844.72656,47.85156,580.56641,-0.18385909205746465,0.03344103206698695,0.10818371008609293,57.15,24.9,22.95
-989.74609,-29.78516,-272.46094,0.05382543053272952,0.06874729750558024,-0.0750091897958855,-1.2,23.85,24.9,-126.95313,-20.50781,990.23437,-0.013989337553510148,0.0722112524720134,0.024381376985734785,72.0,4.2,87.75,-849.12109,35.15625,588.86719,-0.2149020417322114,0.07341046820105869,0.09499390786292138,57.15,24.9,22.95
-995.11719,-29.29688,-266.11328,0.0750091897958855,0.05515781488370199,-0.0006661921754862356,-2.55,24.6,24.6,-117.1875,-51.75781,994.14062,-0.011457912006417574,0.05955429926947571,0.08726646259971647,73.2,3.75,86.85,-839.84375,54.19922,580.56641,-0.17519911737491917,0.018918845492842937,0.1386936362072806,57.0,25.5,22.05
-984.375,-20.99609,-258.30078,0.05422511093143622,0.06701523275590107,-0.016653931722529894,-3.6,23.4,24.9,-122.07031,-69.33594,990.23437,-0.011591080628344743,0.037171498810199634,0.0283781809728018,73.05,4.2,86.7,-838.37891,37.59766,530.76172,-0.19651604526000233,0.03117611829667391,0.12830177130798115,57.0,25.5,22.8
-956.54297,-42.48047,-261.71875,0.05342575013402282,0.03930324395858551,-0.003463954966433146,-1.2,23.1,26.7,-117.67578,-73.24219,991.69922,-0.03357420068891412,0.02011788668896304,0.1033873707686873,73.05,3.45,86.25,-818.35937,69.33594,581.05469,-0.22569376156314275,0.05449162270821576,0.1057856276938527,57.45,24.9,21.9
-958.98437,-44.43359,-261.71875,0.08873201557261612,-0.04676417744501087,0.005196019716112318,-1.2,23.1,26.7,-132.32422,-108.39844,998.53516,-0.04396624012113876,0.06621587195848767,0.06874729750558024,72.6,3.15,85.2,-825.19531,57.12891,565.91797,-0.18825575097616357,0.11084847878803786,0.09659262945774817,56.25,24.75,23.55
-967.77344,-44.92188,-269.04297,0.08593407824874401,-0.00186523337160634,-0.06994633870170035,-2.1,24.3,25.35,-147.94922,-104.49219,982.91016,-0.03490658503988659,0.13842729896342626,0.10698466888997281,73.5,4.8,86.55,-834.47266,65.42969,565.42969,-0.22476105761087697,0.0754088701945922,0.16480707794269456,57.6,24.75,22.8
-979.00391,-33.69141,-274.41406,0.05342575013402282,0.07007968185655272,0.004263315763846549,-3.15,23.7,25.05,-139.16016,-100.58594,990.23437,0.06994633870170035,0.14295712650405235,0.09113009796485633,73.5,4.8,86.55,-827.63672,56.15234,579.10156,-0.2603338348262498,0.03943641258051267,0.18865543137487029,56.7,25.35,23.25
-985.83984,-20.01953,-276.85547,0.1293674693492489,0.02224963183734891,0.06634921511334003,-2.1,22.5,25.35,-154.78516,-71.77734,1024.41406,0.12217304763960307,0.10671815711319327,0.07833997614039148,73.05,3.9,87.0,-836.42578,40.03906,583.98437,-0.2691271526636476,0.052626389336609423,0.1358958734163337,56.7,25.35,23.25
-975.09766,-14.64844,-269.04297,0.05742272865401504,0.04929560299210344,-0.008926486459324997,-1.65,23.25,24.75,-120.11719,-62.98828,1042.48047,0.14881933839565087,0.07873965653909817,0.04516545585018406,73.5,5.25,86.1,-837.40234,38.08594,599.60937,-0.2647304937449487,0.02851152412765417,0.14788663444338515,57.15,25.35,21.6
-972.65625,-5.37109,-249.02344,0.09139660974163587,0.0182526533173567,0.004396658918698916,-1.65,23.25,24.75,-87.40234,7.32422,1001.95312,0.21383616915801848,0.025980098580561592,0.016520588567677526,73.5,4.5,85.5,-842.28516,28.32031,627.92969,-0.28284997844037824,0.030643269276040042,0.14055904411181214,55.65,26.7,23.25
-972.65625,-3.41797,-250.97656,0.05649002470174927,-0.017320123898016127,0.031575798695380616,-1.65,23.25,24.75,-123.53516,3.90625,989.25781,0.04902909121532391,0.12350543199057554,0.03330786344505979,72.45,4.8,86.85,-816.40625,28.32031,583.00781,-0.24874275419790506,0.07341046820105869,0.182393539084565,58.05,25.05,23.55
-950.19531,-13.67187,-239.74609,0.009725847256738402,-0.0275788201753884,-0.04250068714823912,-3.0,22.65,24.9,-90.82031,-24.41406,994.14062,0.07780712711975761,0.04729702646564473,0.08686678220100978,73.05,4.2,85.95,-802.24609,51.26953,620.11719,-0.28471521181198456,0.021183759263155976,0.1301670046795875,57.0,25.8,22.8
-928.22266,4.88281,-241.69922,0.0377045223637587,-0.038903563559878805,0.01811948469542953,-3.15,23.25,26.1,-80.07813,-25.87891,971.19141,0.03597245761407953,-0.25806892105593676,0.0648836621404404,74.25,5.25,86.55,-796.875,52.24609,622.55859,-0.2351530970431016,0.007993957039984428,0.11138132780867173,55.65,25.65,22.95
-926.75781,6.34766,-241.21094,0.05902145024884184,-0.04276719892501865,0.031309286918601076,-2.55,23.4,24.9,-100.58594,-24.90234,1032.71484,-0.10725118066675235,-0.042634030303091486,0.13283159884860724,74.25,5.25,86.55,-818.35937,47.36328,593.26172,-0.2047763395438411,0.01851916509413623,0.1325650870718277,57.0,24.3,24.6
-917.48047,-16.11328,-230.46875,0.04396624012113876,-0.0722112524720134,0.04343339110050489,-2.7,24.3,24.3,-90.82031,-60.05859,1015.625,0.0015987215948268059,-0.06914697790428695,0.1686707133078344,74.25,5.25,86.55,-800.78125,62.98828,616.69922,-0.25980098580561595,0.02744565155346123,0.11098164740996504,57.0,24.3,24.6
-922.36328,-10.25391,-241.69922,0.027712163330240767,0.0,-0.009459335479958867,-2.7,24.3,24.3,-118.16406,-55.17578,1018.55469,-0.14042570095695978,-0.13429715182150687,0.17346705262524,71.7,5.55,87.6,-823.73047,66.89453,563.96484,-0.23608580099536736,-0.026379778979268294,0.10245484134934674,55.8,25.8,23.1
-967.28516,-22.94922,-264.16016,0.03464007326310706,-0.011857592405124276,0.03543943406052046,-1.05,23.25,25.05,-119.62891,-80.07813,981.93359,-0.04170132635082572,-0.047430369620497105,0.185724325429071,72.15,6.0,85.8,-815.91797,41.50391,566.89453,-0.29071059232551033,0.02198312006056938,0.08646710180230308,55.8,25.8,23.1
-991.69922,-23.92578,-266.11328,0.024381376985734785,-0.06208572481656829,0.015588059148336955,-3.0,23.4,24.15,-141.11328,-73.73047,981.44531,0.09899088638291359,0.02931088492506757,0.10085611975451993,72.15,5.25,86.1,-821.28906,51.75781,599.12109,-0.33947317176405467,0.02331550441154185,0.0972588216332344,56.1,25.65,22.95
-1000.0,-33.69141,-274.90234,-0.01771980429672283,-0.00746093348642536,-0.02011788668896304,-1.8,22.65,24.9,-134.76562,-17.08984,1017.57812,0.09352835489002174,0.03264167126957355,0.1276355791324949,72.15,5.25,86.1,-833.49609,52.24609,571.77734,-0.31722353992670577,0.015188378749630253,0.06421746996495417,56.55,26.55,23.55
-979.00391,-19.53125,-256.83594,0.011724423783197109,-0.06395095818817463,-0.006261892290305255,-1.8,22.65,24.6,-124.02344,-46.38672,1024.90234,0.09152977836356303,-0.0283781809728018,0.14175808530793224,72.9,5.55,87.15,-809.57031,31.73828,589.35547,-0.30696484364933346,-0.007727445263204894,0.1406922127337393,56.7,26.4,21.9
-951.66016,-2.92969,-250.0,0.027712163330240767,-0.10152213739708096,0.008926486459324997,-1.8,22.65,24.6,-110.83984,-22.46094,1010.74219,0.057689065897869374,-0.02851152412765417,0.1353630243956998,72.3,4.95,87.0,-820.3125,25.87891,613.76953,-0.3077642044467469,0.008526806060618296,0.13349761649116829,56.4,26.4,22.95
-955.56641,18.06641,-236.32812,-0.07607506237007844,-0.03210864771601448,0.002398082392240209,-2.4,23.7,26.1,-99.60938,-36.13281,1033.69141,0.08073805853263168,-0.05902145024884184,0.17333388400331284,72.6,4.65,86.7,-813.47656,17.08984,587.40234,-0.2848483804339117,-0.019984718067035872,0.10964926305899256,56.55,27.0,24.15
-933.59375,-10.25391,-250.97656,-0.06461715036366086,-0.09885754322806121,0.07940584871458442,-2.7,24.0,26.1,-99.60938,-28.80859,1015.625,0.07780712711975761,-0.10392039432224637,0.1700030976588069,72.9,5.55,86.1,-826.66016,23.92578,625.0,-0.27259110763008076,-0.03330786344505979,0.08513471745133061,56.4,26.1,24.3
-932.12891,-0.97656,-235.83984,-0.06981317007977318,-0.11870909267316991,0.017586461141870464,-1.35,22.2,25.05,-91.79688,-52.24609,996.58203,0.05275955795853659,-0.0381042027624654,0.185724325429071,73.05,4.95,86.25,-817.38281,-3.41797,625.0,-0.20784078864449274,0.005462531492891852,0.061419532641082054,56.4,26.1,24.3
-924.31641,11.71875,-235.83984,-0.1115144964305989,-0.03983609297921937,-0.0652833425391471,-2.1,21.75,24.75,-91.30859,-6.34766,1068.35938,-0.167871352510421,-0.05982081104625525,0.22782550671152862,72.15,5.25,86.85,-844.23828,-0.97656,582.03125,-0.21383616915801848,0.018918845492842937,0.10884990226157916,56.4,26.1,24.3
-947.75391,-2.92969,-242.1875,-0.0835359958565038,-0.09379486666680127,-0.04489894407340452,-2.1,21.75,24.75,-81.54297,-129.88281,1003.41797,-0.022649312236055614,-0.10978260621384492,0.1957166844625889,72.15,5.25,86.85,-840.33203,4.88281,596.67969,-0.1641408857672083,-0.024781057384441488,0.07674125454556469,57.15,26.4,22.95
-940.91797,10.74219,-241.21094,-0.04916225983725108,0.013323145378023914,-0.02558041818185489,-1.8,23.4,25.65,-110.35156,-38.08594,1062.01172,-0.01212410418190381,-0.08939820774810235,0.2314226302998889,72.45,4.8,86.85,-838.37891,-2.44141,594.72656,-0.17360022124716717,-0.02091724748637644,0.06115319539722772,57.15,26.4,22.95
-971.67969,15.625,-237.79297,-0.16160946022011574,-0.03743801058697916,-0.07274427602557246,-2.1,24.75,24.0,-121.58203,-33.20313,1036.13281,-0.028644692749581334,-0.08220361150553133,0.20091270417870125,73.5,5.25,86.85,-811.52344,-14.64844,587.40234,-0.09166312151841538,-0.03703833018827246,0.04902909121532391,56.55,27.0,23.55
-970.70312,17.57813,-249.02344,-0.1196416220925105,-0.08873201557261612,-0.02704597115475453,-3.0,22.65,25.2,-114.25781,-45.41016,1053.22266,0.08340282723457662,-0.07647474276878514,0.1807948174897382,71.7,7.5,86.55,-799.80469,-24.90234,563.47656,-0.1103154552344788,-0.005329188338039486,0.026379778979268294,56.1,24.9,24.0
-977.53906,24.90234,-267.57812,-0.0928621627145355,-0.0291777163031404,-0.010525208054151804,-2.1,23.7,26.85,-101.07422,11.71875,1013.18359,0.05968764242432808,-0.05649002470174927,0.19078717652325616,71.4,5.25,87.15,-801.75781,-43.94531,563.47656,-0.11897542991702426,0.0015987215948268059,0.06941348968106648,56.4,25.65,23.25
-1008.30078,29.78516,-278.32031,-0.1200413024912172,0.01065855120900417,-0.06168604441786158,-2.1,23.7,26.85,-131.34766,-6.83594,1011.23047,-0.07394331722169258,-0.055690663904335864,0.2143690181786523,72.6,7.35,88.05,-839.84375,-44.43359,549.80469,-0.09752533341001395,0.09979024718032699,0.03703833018827246,56.4,24.9,23.25
