IMU1_AccX,IMU1_AccY,IMU1_AccZ,IMU1_AccX,IMU1_AccY,IMU1_AccZ,IMU1_MagX,IMU1_MagY,IMU1_MagZ,IMU2_AccX,IMU2_AccY,IMU2_AccZ,IMU2_GyrX,IMU2_GyrY,IMU2_GyrZ,IMU2_MagX,IMU2_MagY,IMU2_MagZ,IMU3_AccX,IMU3_AccY,IMU3_AccZ,IMU3_GyrX,IMU3_GyrY,IMU3_GyrZ,IMU3_MagX,IMU3_MagY,IMU3_MagZ
-825.68359,106.93359,-522.94922,-0.078073464,0.022649312236055614,-0.003996979,-15.3,29.4,13.65,-413.08594,81.05469,939.94141,-0.026779459,-0.086333759,0.088998527,85.05,3.75,76.5,-946.28906,101.5625,387.20703,-0.139892852,-0.018519165,0.04183467,59.25,23.1,10.35
-830.07812,98.63281,-521.48437,-0.032641671,-0.017986142,0.04956194,-15.3,29.4,13.65,-408.69141,71.77734,940.91797,-0.005862212,-0.123105752,0.063151597,85.05,3.75,76.5,-935.05859,117.67578,371.58203,-0.180927986,0.014921867,0.001732065,59.25,23.1,10.35
-842.28516,98.14453,-524.41406,-0.056356856,-0.060220491,0.029177716,-14.25,27.15,15.45,-402.83203,81.54297,941.40625,0.007194422,-0.115511475,0.08620059,86.25,5.25,76.2,-917.96875,86.91406,353.02734,-0.172667692,0.013056634,0.077407272,59.25,23.1,10.35
-834.47266,92.77344,-517.08984,-0.078606488,-0.049428772,0.015588059148336955,-14.25,27.15,15.45,-432.12891,71.77734,930.66406,0.003730467,-0.138693636,0.079006168,86.25,5.25,76.2,-925.29297,78.125,356.93359,-0.219565038,0.016520588567677526,0.028644692749581334,59.85,24.75,10.05
-843.26172,89.35547,-509.76562,-0.032375159,-0.021849951,-0.041168477,-14.25,27.15,15.45,-416.99219,73.24219,934.57031,0.000133169,-0.158811697,0.098990886,86.25,5.25,76.2,-934.57031,83.00781,343.75,-0.173866733,0.015721227770264124,0.032108648,59.85,24.75,10.05
-832.03125,108.88672,-503.90625,-0.041168477,-0.039303244,-0.016520589,-14.25,27.15,15.45,-400.39062,88.37891,924.80469,-0.01638742,-0.152816142,0.077673784,86.25,5.25,76.2,-940.91797,63.47656,349.12109,-0.218765677,0.021583439661862675,0.002664594,59.85,25.05,10.5
-839.84375,106.93359,-504.88281,-0.06461715,-0.010258871,0.001332384,-14.55,28.95,13.35,-408.69141,92.77344,920.89844,-0.059154619,-0.095127076,0.081670762,88.2,4.65,76.35,-930.66406,67.38281,343.26172,-0.217966316,-0.011591081,0.071411892,59.85,25.05,10.5
-832.03125,106.44531,-523.4375,-0.070745874,0.042634030303091486,-0.028911205,-14.55,28.95,13.35,-408.69141,86.42578,931.64062,-0.065016831,-0.156546784,0.090197569,88.2,4.65,76.35,-921.38672,50.29297,359.375,-0.198914302,-0.0223828,0.059421130647548545,60.15,24,10.8
-836.42578,117.67578,-519.53125,-0.06981317,-0.025580418,-0.049695283,-14.4,28.5,13.95,-398.92578,74.21875,923.33984,-0.053558919,-0.167071992,0.090996929,86.25,4.8,75.75,-918.94531,53.71094,344.23828,-0.156813121,-0.074742678,0.024647714,60.15,24,10.8
-825.68359,118.16406,-527.34375,-0.107650861,-0.005462531,-0.03837054,-14.4,28.5,13.95,-416.01562,74.21875,893.55469,-0.062485405,-0.143090295,0.10405356294417353,86.25,4.8,75.75,-928.71094,63.96484,348.63281,-0.124304793,0.009059655,0.034373736019252726,59.4,23.25,10.05
-845.70312,124.02344,-539.0625,-0.057555897,-0.05435828,0.064750319,-14.4,27.3,15,-404.78516,74.70703,865.23437,-0.061686044,-0.093528355,0.12856810855183548,86.25,4.8,75.75,-905.76172,45.41016,340.82031,-0.121373687,-0.038503883,0.025180738,59.4,23.25,10.05
-845.70312,121.58203,-540.52734,-0.057555897,-0.07540887,0.073010788,-14.4,27.3,15,-417.96875,69.82422,860.83984,-0.062618748,-0.067415088,0.08660027,86.25,4.8,75.75,-918.45703,43.45703,359.86328,-0.090330737,-0.118176069,0.077274104,59.4,23.25,10.05
-837.40234,113.28125,-549.80469,-0.027312483,-0.023182161,0.029577396701847107,-14.55,28.95,13.35,-420.89844,48.82813,889.64844,-0.080871402,-0.019318526,0.03663865,87.3,4.8,75.45,-913.57422,35.64453,361.81641,-0.058222089,-0.138160787,0.028511524,59.4,23.25,10.05
-838.86719,126.95313,-543.45703,-0.1012558,0.008526806,-0.006528404,-14.55,28.95,13.35,-412.59766,31.73828,905.76172,-0.049295603,-0.053558919,0.030776438,87.3,4.8,75.45,-904.78516,35.64453,352.05078,-0.062885086,-0.083269484,0.040768797,59.25,23.85,8.85
-840.82031,105.46875,-539.0625,-0.12323892,0.029843734,0.010125527655445103,-14.55,28.95,13.35,-418.94531,28.80859,917.48047,-0.030509926,-0.026646291,0.070612531,86.55,5.55,76.95,-905.27344,42.48047,346.67969,-0.011591081,-0.094327716,0.05475796,59.25,23.85,8.85
-834.96094,112.30469,-558.59375,-0.117110197,-0.010658551,-0.034906585,-14.55,28.95,13.35,-417.96875,24.90234,903.80859,-0.063418109,-0.043033711,0.031176118,86.55,5.55,76.95,-904.78516,24.41406,344.23828,0.031309286918601076,-0.062751917,0.027179139776681696,59.25,23.85,8.85
-834.47266,111.81641,-549.80469,-0.06981317,-0.000799361,0.087399631,-14.55,28.95,13.35,-421.875,25.87891,912.10937,-0.046897346,0.020251229843815406,0.007594102,85.65,4.95,76.35,-907.22656,47.36328,348.14453,0.016254251,-0.079938698,0.036372138,59.25,23.85,8.85
-833.98437,102.05078,-540.52734,-0.039569756,-0.037304667,0.053692262,-14.1,28.8,13.2,-437.98828,31.25,889.16016,-0.003463955,0.057422729,0.023315504,85.65,4.95,76.35,-940.42969,46.875,347.16797,0.026113267,-0.11377941,0.076474743,59.25,23.85,8.85
-841.79687,125,-540.52734,-0.035572777,-0.033840712,0.026646290756047828,-14.1,28.8,13.2,-435.05859,24.41406,916.01562,0.027179139776681696,0.045298624,0.029177716,85.65,4.95,76.35,-924.80469,57.12891,363.28125,0.0223828,-0.12283924,0.013855994398657782,60.3,23.85,10.65
-834.96094,120.11719,-553.22266,-0.054891303,0.023715184810248553,0.068880466,-14.1,28.8,12.15,-455.07812,29.78516,913.57422,0.034107224242473186,0.067415088,0.034640073,85.65,4.95,76.35,-933.10547,76.66016,361.32812,0.046231154,-0.090730418,0.011457912006417574,60.3,23.85,10.65
-831.05469,121.09375,-544.43359,-0.095526757,0.024514545607661954,0.017719804,-14.1,28.8,12.15,-458.98437,58.59375,912.59766,0.016653931722529894,0.070612531,0.001732065,87.15,4.2,76.65,-944.33594,64.45313,360.83984,0.030909606519894377,-0.051960197,0.054624791,60.15,25.5,10.5
-835.44922,113.76953,-553.71094,-0.107251181,0.042367519,0.03104295,-16.5,29.55,13.95,-449.21875,30.76172,918.45703,0.017719804,0.054624791,-0.023448673,87.15,4.2,76.65,-934.08203,80.56641,359.375,0.047163858,-0.067814768,0.055823833,60.15,25.5,10.5
-837.40234,116.21094,-559.08203,-0.095793269,0.050094964,0.015321547371557422,-16.5,29.55,13.95,-444.82422,55.66406,922.85156,0.034506905,0.010658551,0.054891303,85.35,3.45,76.35,-945.3125,70.80078,368.65234,0.037171498810199634,-0.013989338,0.035705946,59.25,24.9,9.6
-838.37891,113.76953,-554.19922,-0.04183467,-0.009459335,0.079405849,-16.5,29.55,13.95,-440.42969,63.47656,921.38672,0.053558918755949994,0.044499264,-0.003730467,85.35,3.45,76.35,-959.47266,62.5,355.95703,-0.012790122,-0.022649312,0.017186780743163762,59.25,24.9,9.6
-823.24219,129.39453,-574.70703,-0.055823833,0.051427174,0.012523785,-16.5,29.55,13.95,-463.86719,47.36328,921.38672,0.022516143614128445,0.010258871,-0.043833071,85.95,5.4,74.25,-961.91406,89.35547,355.95703,0.03877022,-0.026646291,0.017719804,59.4,24.3,9.75
-836.42578,118.16406,-556.64062,-0.048496242,0.026512948,0.007327765,-13.35,27.3,13.5,-470.21484,69.33594,930.17578,-0.001332384,0.041035309,-0.022782481,85.95,5.4,74.25,-957.03125,84.96094,369.62891,0.013989337553510148,-0.032375159,0.013189976756096747,59.4,24.3,9.75
-842.77344,123.04688,-572.75391,-0.114845283,0.015321547371557422,0.001598722,-13.35,27.3,13.5,-455.56641,66.89453,924.80469,0.000666192,0.041035309,-0.046097985,84.9,5.4,76.35,-960.44922,78.61328,348.63281,0.029977077100553806,-0.04263403,0.019185357269622467,60,24.6,10.95
-833.00781,125.97656,-553.22266,-0.110182287,0.09046408,-0.042500687,-14.1,30.6,13.95,-444.33594,78.61328,924.80469,0.019052014,0.033574201,0.027045971,84.9,5.4,76.35,-970.70312,80.07813,379.88281,0.061286364,-0.025980099,0.000666192,60,24.6,10.95
-837.89062,115.72266,-572.26562,-0.071545235,-0.01505521,-0.014655355,-14.1,30.6,13.95,-442.87109,62.5,908.69141,-0.020917247,0.031309286918601076,-0.040635454,85.5,4.8,76.5,-969.23828,73.73047,356.44531,0.069546658,-0.03797086,-0.004529828,59.85,23.7,9.45
-835.44922,124.51172,-557.61719,-0.052759558,0.013589657,0.0223828,-12.6,28.5,12.9,-455.07812,48.33984,911.13281,0.038503883,0.014255674797364485,-0.03703833,85.5,4.8,76.5,-955.56641,89.84375,360.83984,0.053692262,-0.055024472,0.043300222,59.85,23.7,9.45
-852.53906,129.39453,-561.52344,-0.055157815,0.031442630073453444,0.007194422,-12.6,28.5,12.9,-462.89062,61.52344,901.36719,-0.001065873,0.013323145378023914,-0.045964817,85.8,4.8,75.75,-968.26172,81.05469,365.72266,0.057955578,-0.018785677,0.075675382,59.85,23.7,9.45
-847.65625,119.62891,-562.5,-0.090197569,0.044365921,0.003996979,-15,28.65,14.1,-437.98828,55.17578,911.13281,0.015854571,0.002398082,-0.01079172,85.8,4.8,75.75,-964.35547,75.68359,355.46875,0.044499264,-0.076874423,0.033441032,59.85,23.7,9.45
-836.91406,114.25781,-563.47656,-0.089264865,0.048362899,0.001065873,-15,28.65,14.1,-448.24219,36.62109,914.0625,-0.029044373,0.010791719830931338,0.023315504,85.8,4.8,75.75,-965.33203,73.24219,361.32812,0.043699902877284424,-0.070346019,0.032241991,59.85,25.05,9
-838.37891,120.60547,-555.17578,-0.076075062,0.047297026,0.006661573,-15,28.65,14.1,-459.96094,31.73828,893.55469,-0.012523785,-0.005995381,-0.054225111,85.8,4.8,75.75,-967.28516,65.42969,366.21094,0.069013809,-0.067947937,0.050894325,59.85,25.05,9
-847.16797,113.76953,-553.71094,-0.057289385,0.024514545607661954,-0.018252653,-15,28.65,14.1,-454.10156,29.78516,902.34375,-0.0167871,-0.003597298,-0.023715185,85.8,4.8,75.75,-948.73047,66.40625,360.83984,0.085268061,-0.101921818,0.015588059148336955,60,25.65,9.9
-829.10156,116.69922,-552.73437,-0.077007592,0.055690663904335864,-0.072477764,-13.8,30.6,12.9,-435.54687,25.39063,921.875,0.001998402,-0.059154619,-0.05902145,86.25,4.5,77.25,-952.14844,54.6875,376.95312,0.099257224,-0.124038281,0.048762579438544375,60,25.65,9.9
-840.33203,105.95703,-550.29297,-0.003330786,0.005995381,0.022116463215421746,-13.8,30.6,12.9,-442.87109,23.4375,909.66797,0.008393637,-0.005462531,-0.051693685,86.25,4.5,77.25,-941.40625,53.71094,373.53516,0.070079682,-0.059687642,0.027845331952167932,58.95,25.35,11.7
-833.49609,122.55859,-553.71094,-0.04743037,0.033041352,0.030110245722480975,-14.1,28.8,13.95,-427.24609,32.71484,930.17578,0.015188378749630253,0.037704522,-0.083802508,86.25,5.55,77.55,-949.21875,75.68359,374.02344,0.11044862385640596,-0.092462482,0.033840712,58.95,25.35,11.7
-820.80078,107.91016,-563.47656,0.023715184810248553,0.062352237,-0.005728869,-14.1,28.8,13.95,-428.71094,31.25,931.64062,0.005462531,0.029310885,-0.071145554,86.25,5.55,77.55,-951.17187,71.77734,365.23437,0.098857543,-0.082203612,-0.050228132,60.3,24.6,11.4
-838.37891,111.81641,-567.38281,-0.015321547,0.047696706864351436,-0.052493046,-15.15,28.05,13.95,-430.66406,12.69531,928.22266,0.013722825776730615,0.011324568851565207,-0.081537594,85.8,3.3,75.75,-937.5,71.77734,374.51172,0.11138132780867173,-0.078739657,-0.015854571,60.3,24.6,11.4
-849.12109,125.97656,-562.5,0.012390441425758144,0.063551278,-0.052226709,-15.15,28.05,13.95,-418.45703,20.01953,898.4375,0.040768797,0.011990761027051442,-0.121506855,85.8,3.3,75.75,-936.03516,61.52344,360.83984,0.11684385930156357,-0.115911155,0.017186780743163762,60.3,24.6,11.4
-843.75,112.79297,-547.85156,0.071145554,0.073277125,-0.016920443,-13.95,28.95,13.65,-421.875,33.69141,907.22656,0.029044373148288036,0.038503883,-0.106718157,85.8,3.3,75.75,-918.94531,62.98828,372.07031,0.12257272803830976,-0.11937511,0.007194422,59.7,25.35,10.65
-858.39844,127.44141,-555.66406,0.041035309,0.061686044,-0.050228132,-13.95,28.95,13.65,-420.89844,44.92188,910.64453,0.059421130647548545,0.012790121824464847,-0.102055161,85.8,3.3,75.75,-940.91797,71.28906,386.23047,0.1777305429220118,-0.144689191,0.06461715,59.7,25.35,10.65
-847.65625,141.60156,-557.12891,0.04956194,0.052759558,-0.003463955,-13.95,28.95,13.65,-409.17969,29.29688,942.38281,0.012390441425758144,0.035306265,-0.093395186,85.8,4.8,76.95,-920.89844,75.68359,372.07031,0.173467053,-0.125237322,0.10085611975451993,59.7,25.65,10.95
-841.79687,138.67187,-541.99219,0.029977077100553806,0.065016831,-0.044898944,-13.95,28.95,13.65,-400.87891,48.82813,942.87109,0.025313906405075356,0.13776110678794004,-0.107917373,85.8,4.8,76.95,-935.05859,70.80078,389.16016,0.19025415296969708,-0.122705897,0.057023048,59.7,25.65,10.95
-846.67969,118.16406,-564.45312,0.024381376985734785,0.10352071392353968,-0.063018429,-13.05,29.85,13.5,-421.875,45.41016,938.96484,0.082070443,0.15921137782787553,-0.135895873,85.65,4.95,75.6,-920.89844,80.56641,379.39453,0.18505813325358475,-0.175199117,0.048629411,59.7,25.65,10.95
-832.51953,137.69531,-540.52734,0.045565136,0.08060489,-0.021716608,-13.05,29.85,13.5,-414.0625,36.13281,906.25,0.04183467,0.057422729,-0.13922666,85.65,4.95,75.6,-920.41016,79.58984,387.69531,0.19278557851678965,-0.15041806,0.061419532641082054,59.7,25.65,10.95
-839.84375,142.08984,-525.87891,0.069013809,-0.001732065,0.013722825776730615,-14.55,29.4,14.4,-397.94922,62.5,919.43359,0.032375159492794015,0.03104295,-0.130300173,85.65,4.95,75.6,-932.12891,70.3125,395.01953,0.1942511314896893,-0.095526757,0.07540887,59.25,23.4,10.35
-846.67969,117.67578,-517.57812,0.076474743,0.035972458,-0.017186781,-14.55,29.4,14.4,-398.92578,36.13281,934.57031,0.036771818,0.070079682,-0.084068845,85.65,4.95,75.6,-915.52734,95.70313,390.13672,0.1991806394290221,-0.093128674,0.074076486,59.25,23.4,10.35
-833.98437,129.39453,-509.76562,0.096459461,-0.017719804,0.008127126,-14.55,28.2,13.65,-396.97266,34.17969,936.52344,0.043433391,0.10951609443706539,-0.152816142,86.25,4.5,76.5,-911.62109,80.07813,391.60156,0.17866307234135234,-0.058088746,0.059687642,59.25,23.4,10.35
-846.19141,108.88672,-515.13672,0.10285452174805344,0.035039753661813756,0.000932704,-14.55,28.2,13.65,-397.94922,50.29297,945.80078,0.057689065897869374,0.043833071,-0.128967789,86.25,4.5,76.5,-926.75781,95.21484,395.50781,0.15228329336208404,-0.082070443,0.0167871,59.25,23.4,10.35
-835.9375,109.375,-506.34766,0.040102605,0.062219067971420655,-0.037438011,-14.55,28.2,13.65,-389.64844,59.57031,940.91797,0.04822973,0.029444054,-0.160810099,86.55,5.25,75.45,-906.25,74.21875,395.99609,0.1763981585710393,-0.059687642,0.074609509,60.9,24.3,9.75
-826.66016,118.16406,-513.67187,0.045964817,0.057555897,-0.05475796,-14.55,28.2,13.65,-404.78516,47.85156,932.61719,0.070346019,0.12470447318669564,-0.185058133,86.55,5.25,75.45,-926.26953,91.30859,402.83203,0.1957166844625889,-0.062618748,0.052359878,60.9,24.3,9.75
-836.42578,109.86328,-500,0.04956194,0.083003147,-0.078606488,-14.55,28.2,13.65,-406.73828,53.71094,915.52734,0.025447249559927724,0.073676805,-0.133097936,86.85,5.55,76.2,-923.82812,83.98438,399.41406,0.22649312236055613,-0.018252653,0.084601868,59.25,23.85,10.65
-836.91406,108.39844,-492.67578,0.080338378,0.044898944,-0.051427174,-15.6,27.15,14.1,-400.87891,55.17578,926.75781,0.065816192,0.017719804,-0.120974006,86.85,5.55,76.2,-919.43359,106.44531,413.57422,0.22396169681346356,0.002398082,0.033840712,59.25,23.85,10.65
-823.73047,110.35156,-507.8125,0.1353630243956998,0.024248034,-0.01079172,-15.6,27.15,14.1,-379.88281,72.75391,946.28906,0.026646290756047828,0.003996979,-0.165206758,86.85,5.55,76.2,-926.26953,94.23828,401.85547,0.18998781572584275,0.027179139776681696,0.050627813,58.35,25.5,11.55
-839.84375,102.05078,-513.18359,0.092062802,0.053292581512095656,-0.013323145,-14.25,28.95,13.05,-390.625,63.96484,955.56641,0.050894325,0.021716608283789844,-0.153882015,86.85,5.55,76.2,-919.43359,94.23828,410.64453,0.21423584955672517,-0.018652334,0.080072041,58.35,25.5,11.55
-820.3125,111.81641,-495.60547,0.077673784,0.079938698,-0.096192949,-14.25,28.95,13.05,-403.32031,55.17578,928.71094,0.048362899,0.057955578,-0.149352187,84.9,4.65,75.6,-920.41016,115.23438,396.48437,0.2295573969282826,0.008793318,0.041301645952119014,59.1,24.75,11.85
-814.94141,93.26172,-505.85937,0.081137739,0.092595651,-0.068480786,-14.85,28.8,13.95,-397.94922,85.9375,924.31641,0.072344596,0.086333759,-0.081803931,84.9,4.65,75.6,-918.45703,94.23828,405.27344,0.24088214,0.002664594,0.014389017952216851,59.1,24.75,11.85
-819.33594,88.37891,-512.20703,0.076075062,0.073010788,-0.068614129,-14.85,28.8,13.95,-401.85547,60.54688,916.99219,0.060886684,0.030776438,-0.102055161,85.05,4.8,75.75,-912.10937,124.51172,412.59766,0.21836599669864454,0.005062851,0.012790121824464847,59.1,24.75,11.85
-835.9375,89.84375,-515.625,0.14095872451051883,0.046497666,-0.035439434,-13.35,29.25,16.35,-412.10937,59.57031,916.50391,0.039569755735365045,-0.019718206,-0.100589608,85.05,4.8,75.75,-911.62109,96.67969,399.41406,0.20464317092191392,-0.006261892,-0.01505521,59.1,24.75,11.85
-840.82031,94.72656,-514.64844,0.073676805,0.077807127,-0.043033711,-13.35,29.25,16.35,-370.11719,77.63672,929.6875,0.010525208054151804,-0.001732065,-0.104053563,85.35,4.2,74.25,-912.10937,102.53906,400.87891,0.17733086252330507,0.011724423783197109,0.024248034,59.25,26.4,10.35
-816.89453,88.37891,-518.06641,0.132165407,0.05475796,-0.008659975,-13.35,29.25,16.35,-384.76562,74.70703,927.24609,0.045964817,0.031309286918601076,-0.106984669,85.35,4.2,74.25,-917.96875,114.74609,389.64844,0.20997235925995342,-0.029444054,0.013323145378023914,59.25,26.4,10.35
-830.56641,79.10156,-532.22656,0.078606488,0.0900644,-0.07500919,-13.35,29.25,16.35,-403.32031,93.26172,926.26953,0.027712163330240767,0.023582016188321384,-0.117509877,86.25,4.05,76.5,-921.38672,120.11719,414.55078,0.1841256038342442,-0.010525208,0.050094964,59.25,26.4,10.35
-832.03125,88.37891,-544.92187,0.10405356294417353,0.075142358,-0.086999951,-15.3,28.95,13.05,-409.66797,90.82031,923.33984,0.061952556,0.029177716,-0.089531376,86.25,4.05,76.5,-924.80469,134.27734,388.67187,0.2161010829283315,-0.030776438,0.067681425,59.25,26.4,10.35
-826.66016,92.28516,-523.92578,0.10978260621384492,0.10711783751189999,-0.069280321,-15.3,28.95,13.05,-412.10937,84.96094,936.03516,0.025713587,0.040768797,-0.076874423,85.5,4.5,75.45,-901.36719,126.46484,414.0625,0.17626498994911213,-0.048096562,0.068214448,59.25,26.4,10.35
-834.96094,81.54297,-528.32031,0.1099157748357721,0.12990049290280797,-0.043166879,-14.55,29.4,15.45,-419.92187,76.66016,931.15234,0.045431793,0.046631009,-0.107517692,85.5,4.5,75.45,-906.25,145.99609,411.13281,0.14855282661887137,-0.096459461,0.0223828,58.95,25.65,9.9
-830.07812,88.86719,-529.78516,0.084468525,0.041168477,-0.002131745,-14.55,29.4,15.45,-415.52734,90.33203,933.59375,0.016120908168970823,0.001199041,-0.073410468,87.15,3.45,75.6,-905.76172,117.67578,416.99219,0.1569464640575625,-0.092862163,0.031309286918601076,58.95,25.65,9.9
-844.72656,83.00781,-527.83203,0.15215012474015688,0.047830050019203804,-0.042767199,-13.8,28.8,13.5,-407.71484,97.16797,924.80469,0.023048992634762316,0.051827029,-0.121640199,87.15,3.45,75.6,-902.34375,146.97266,424.80469,0.1353630243956998,-0.087133294,-0.032241991,59.4,25.5,10.05
-840.82031,94.72656,-543.94531,0.14015918918018025,0.045032112695331694,-0.042367519,-13.8,28.8,13.5,-401.85547,81.05469,937.01172,-0.0111914,0.036904987,-0.111114816,87.15,3.45,75.6,-913.57422,133.78906,407.22656,0.1763981585710393,-0.029177716,0.019718206290256335,59.4,25.5,10.05
-835.9375,98.14453,-539.55078,0.094194547,0.11271371215964421,-0.077274104,-13.8,28.8,13.5,-422.36328,83.49609,933.10547,-0.022915824,0.061819213039788753,-0.120041302,87.15,3.45,75.6,-912.10937,114.74609,407.22656,0.1370949146124538,-0.018652334,0.012390441425758144,59.1,24.75,10.5
-820.3125,93.75,-533.20312,0.10418690609902591,0.11337972980220523,-0.051960197,-13.8,28.8,13.5,-422.85156,84.96094,903.80859,-0.006528404,0.039436413,-0.103787051,87.15,3.45,75.6,-905.27344,144.04297,409.17969,0.14575488929499925,-0.072078084,0.017186780743163762,59.1,24.75,10.5
-824.21875,86.42578,-539.55078,0.079006168,0.11950845347058334,-0.099923416,-14.85,29.55,13.2,-438.96484,70.3125,903.80859,-0.006261892,0.050627813,-0.09179629,86.55,3.3,75.75,-916.01562,137.69531,416.01562,0.16027725040206847,-0.040102605,0.009459335,60.6,25.05,11.25
-814.94141,96.67969,-539.0625,0.11870909267316991,0.050761156,-0.073810149,-14.85,29.55,13.2,-434.08203,66.89453,901.36719,-0.013456314,0.043300222,-0.048362899,86.55,3.3,75.75,-907.71484,139.16016,407.22656,0.13922665976083967,-0.02757882,0.034640073,60.6,25.05,11.25
-805.66406,96.67969,-541.50391,0.14908567563950523,0.084601868,-0.025580418,-15.15,27.3,16.35,-431.15234,70.80078,910.64453,0.00985919,0.035439434,-0.068614129,86.7,4.2,76.05,-923.33984,133.78906,402.83203,0.1460214010717788,-0.083136315,0.002398082,59.25,25.35,9.9
-820.80078,102.53906,-538.57422,0.10924958266028587,0.045165456,-0.047963219,-15.15,27.3,16.35,-435.05859,64.45313,919.92187,0.004663171,0.020117887,-0.057422729,86.7,4.2,76.05,-931.64062,130.85937,400.39062,0.10898307088350632,-0.067947937,-0.023848353,59.25,25.35,9.9
-803.71094,93.26172,-528.32031,0.049961795,0.1464210814704855,-0.104320075,-14.85,27.75,13.95,-432.61719,67.38281,920.41016,-0.012523785,0.042367519,-0.047696707,85.8,4.05,75.15,-917.48047,130.85937,407.22656,0.10205516095064003,-0.087799312,0.083402827,58.35,24.3,8.4
-805.66406,89.84375,-534.66797,0.031176118,0.1248376418086228,-0.110315455,-14.85,27.75,13.95,-437.98828,59.08203,940.91797,-0.058222089,0.028777861371508503,-0.039702924,85.8,4.05,75.15,-926.26953,129.39453,405.76172,0.11204751998415798,-0.065816192,0.044365921,58.35,24.3,8.4
-816.40625,87.40234,-532.71484,0.012390441425758144,0.10312103352483297,-0.072611107,-13.5,28.2,14.7,-434.57031,66.89453,943.35937,-0.011324569,0.021583439661862675,-0.023981697,87.15,3.45,76.35,-925.78125,110.35156,429.6875,0.14682076186919218,-0.104320075,0.044499264,58.35,24.3,8.4
-810.05859,85.9375,-529.78516,0.070612531,0.11457894553125055,0.018652334,-13.5,28.2,14.7,-420.41016,59.57031,911.62109,0.007327765,0.038104203,-0.048362899,87.15,3.45,76.35,-929.19922,124.51172,422.36328,0.14668759324726502,-0.061686044,0.03877022,58.35,24.3,8.4
-811.03516,77.14844,-538.08594,0.033041352,0.073010788,0.004263316,-13.5,28.2,14.7,-436.52344,78.125,929.6875,-0.018252653,-0.016120908,-0.075542039,86.7,2.7,75.6,-942.38281,108.39844,409.17969,0.10565245907192554,-0.029044373,0.025047394628295826,59.25,24.9,9.6
-814.45312,70.3125,-547.36328,0.045831473,0.091929633,-0.018652334,-13.5,28.2,14.7,-433.10547,69.82422,934.57031,-0.019984718,-0.05475796,-0.065549854,86.7,2.7,75.6,-941.40625,125,407.71484,0.083003147,0.036238969,0.081137739,59.25,24.9,9.6
-833.00781,83.00781,-548.33984,0.003330786,0.1163108357480045,-0.029843734,-16.2,28.8,13.5,-416.99219,68.84766,941.40625,-0.03144263,-0.028911205,-0.02757882,86.4,3.45,76.05,-947.26562,121.09375,399.41406,0.12030781426799673,-0.019052014,0.063950958,58.5,25.35,10.35
-828.125,75.19531,-563.47656,-0.00039968,0.13696174599052663,-0.032241991,-16.2,28.8,13.5,-423.33984,68.84766,922.36328,-0.01638742,-0.01079172,0.004396659,86.4,3.45,76.05,-935.54687,110.35156,388.67187,0.13429715182150687,0.003463955,0.066215872,58.5,25.35,10.35
-827.14844,84.96094,-559.57031,0.001865233,0.10831705324094529,-0.088998527,-15.3,26.7,14.1,-418.94531,63.96484,918.94531,-0.077140935,0.008793318,-0.005329188,86.4,3.45,76.05,-939.94141,115.23438,400.39062,0.068081105,-0.056090344,0.043699902877284424,60.15,24,10.05
-833.49609,57.12891,-558.10547,0.077140935,0.066482384,-0.023182161,-15.3,26.7,14.1,-437.01172,33.20313,895.99609,-0.011857592,-0.019851375,-0.006661573,86.4,3.45,76.05,-948.73047,135.25391,402.83203,0.072344596,-0.006395061,0.042367519,60.15,24,10.05
-830.56641,66.40625,-586.91406,0.015454890526409788,0.071545235,-0.048096562,-15,27.45,13.65,-437.5,65.42969,909.66797,-0.019185357,-0.082869804,-0.07500919,86.25,4.5,74.7,-945.80078,123.53516,421.875,0.063551278,0.016653931722529894,0.02198312,60.9,25.8,11.25
-836.91406,69.33594,-585.9375,0.038637052,0.057689065897869374,-0.004396659,-15,27.45,13.65,-425.78125,57.12891,925.29297,-0.047030689,-0.041701326,-0.044765775,86.25,4.5,74.7,-940.91797,131.34766,391.60156,0.12590351438281575,-0.022782481,0.03184231,60.9,25.8,11.25
-826.66016,58.10547,-588.86719,0.014389017952216851,0.059154619,-0.02544725,-15.15,27.3,14.25,-433.59375,58.59375,920.89844,-0.094993908,-0.010924888,-0.005995381,87.3,4.05,75.15,-938.47656,108.88672,383.78906,0.095393588,0.020917247,0.04183467,60.9,25.8,11.25
-837.40234,63.47656,-589.84375,0.017053612121236593,0.065149999,-0.059421131,-15.15,27.3,14.25,-448.24219,74.70703,912.10937,-0.044499264,-0.017186781,0.005862212,87.3,4.05,75.15,-928.71094,119.14063,400.39062,0.11737670832219745,0.044898944,0.008793318,60.6,24.3,9.45
-825.68359,62.98828,-581.05469,-0.012656953,0.10765086106545904,-0.024514546,-15.15,27.3,14.25,-438.96484,80.56641,916.50391,-0.086866782,-0.032508503,-0.033973881,85.8,3.75,75.75,-930.66406,115.72266,405.27344,0.075941894,0.003463955,-0.015588059,60.6,24.3,9.45
-840.33203,55.66406,-589.84375,0.047830050019203804,-0.003463955,0.029843734,-15.15,27.3,14.25,-440.91797,72.26563,916.50391,-0.109649263,-0.054891303,-0.058088746,85.8,3.75,75.75,-944.82422,130.85937,413.57422,0.13283159884860724,-0.001598722,0.028911205,60.75,26.1,8.85
-833.49609,61.52344,-579.10156,0.034506905,0.032108648,0.015188378749630253,-15.15,27.3,14.25,-451.17187,63.47656,909.66797,-0.089264865,-0.071678403,0.020117887,85.8,3.75,75.75,-927.73437,112.79297,413.57422,0.10685150026804564,0.018119485,0.03877022,60.75,26.1,8.85
-828.125,79.10156,-577.14844,-0.009192998,0.018252653,-0.016254251,-15.45,28.05,13.2,-455.07812,72.75391,918.94531,-0.081137739,-0.099656904,0.034906585,85.8,3.75,75.75,-940.42969,108.88672,389.16016,0.11164783958545127,0.012656953202537678,0.032641671,60.75,26.1,8.85
-825.68359,83.49609,-575.19531,-0.012257273,0.073010788,-0.052359878,-15.45,28.05,13.2,-429.19922,55.66406,930.66406,-0.115911155,-0.036771818,-0.009459335,85.65,4.2,74.85,-942.38281,115.23438,392.08984,0.1049862668964393,0.093261843,0.008659975,60.75,26.1,8.85
-827.14844,60.05859,-555.17578,0.055957176,0.10085611975451993,-0.048362899,-13.95,27.9,12.6,-443.35937,66.40625,929.6875,-0.09046408,-0.089131696,0.025980098580561592,85.65,4.2,74.85,-935.54687,116.21094,382.8125,0.071411892,0.10565245907192554,0.037304667,60.15,25.05,10.8
-830.56641,83.49609,-563.96484,-0.001998402,0.069280321,-0.041701326,-13.95,27.9,12.6,-426.26953,55.17578,930.66406,-0.121240344,-0.070612531,0.023715184810248553,86.25,4.05,76.2,-949.70703,117.1875,378.41797,0.1236386006125027,0.049428772,0.041301645952119014,60.15,25.05,10.8
-819.33594,74.21875,-559.57031,-0.005462531,-0.011324569,0.036105626,-15.15,28.5,12.9,-451.66016,71.77734,911.13281,-0.138960148,-0.061019852,0.03663865,86.25,4.05,76.2,-937.5,118.16406,391.60156,0.11537830632866394,0.076075062,0.031176118,60.15,25.05,10.8
-819.33594,75.68359,-567.38281,0.040768797,0.021050590641228807,-0.00519602,-15.15,28.5,12.9,-429.19922,48.33984,922.36328,-0.153615678,-0.092462482,0.027045971,86.25,4.05,76.2,-932.61719,105.95703,390.625,0.068081105,0.046231154,0.000266512,60.15,25.05,10.8
-823.73047,75.68359,-577.63672,0.015854571,0.029177716,-0.067947937,-15.15,28.5,12.9,-423.33984,48.82813,926.75781,-0.140292532,-0.12283924,0.031575798695380616,86.25,4.05,76.2,-939.45312,114.25781,381.34766,0.069146978,0.040235773,-0.013456314,61.35,26.1,10.35
-835.44922,79.58984,-577.14844,-0.045565136,0.062085725,0.021316927885083145,-15.15,28.5,12.9,-431.64062,56.64063,944.33594,-0.137894275,-0.050361476,0.056090344,85.8,4.8,75.45,-938.96484,93.75,377.44141,0.098058182,0.025180738,-0.003730467,61.35,26.1,10.35
-838.86719,74.70703,-568.84766,-0.04263403,0.07540887,0.002531426,-14.4,27.75,13.5,-417.48047,48.33984,940.91797,-0.182660051,-0.127369067,0.007594102,85.8,4.8,75.45,-940.91797,99.12109,370.11719,0.17253452320589946,0.011058231607710873,0.014122506175437317,61.35,26.1,10.95
-833.00781,72.26563,-568.84766,-0.037304667,0.060353835,0.012124104,-14.4,27.75,13.5,-415.52734,37.10938,939.94141,-0.152816142,-0.099257224,0.011990761027051442,85.95,4.2,75.6,-938.47656,106.44531,369.62891,0.14881933839565087,0.084068845,-0.001732065,61.35,26.1,10.95
-847.65625,55.66406,-563.47656,-0.029577397,0.04183467,0.061019852,-15.15,27.3,13.5,-423.33984,50.78125,917.96875,-0.122039879,-0.090197569,0.019851374912183504,85.95,4.2,75.6,-932.61719,97.16797,382.8125,0.1374945950111605,0.037304667,0.004929508,60.3,24.9,10.35
-844.72656,74.21875,-564.94141,-0.003730467,0.056090344,0.060620172,-15.15,27.3,13.5,-416.99219,16.11328,922.85156,-0.161742803,-0.078339976,0.034640073,85.35,3.15,75.6,-947.75391,88.86719,376.95312,0.1220398790176759,0.061286364,-0.001199041,60.3,24.9,10.35
-837.89062,73.73047,-559.08203,-0.024381377,0.012923464979317213,0.08020521,-14.85,28.8,13.95,-425.29297,29.78516,910.64453,-0.182660051,-0.107650861,0.058222089,85.35,3.15,76.05,-943.35937,84.47266,379.39453,0.17826339194264562,0.023448673033469015,0.03877022,60,26.4,10.35
-847.65625,83.00781,-576.17187,-0.078073464,0.066615552,0.030909606519894377,-14.85,28.8,13.95,-420.89844,61.03516,917.48047,-0.078872825,-0.104852924,0.04183467,85.35,3.15,76.05,-947.26562,85.44922,377.92969,0.15028489136855053,-0.010125528,0.015055210127703087,60,26.4,10.35
-831.05469,68.35938,-561.03516,-0.097658502,0.052359878,0.055690663904335864,-14.4,28.05,13.2,-409.66797,10.74219,907.22656,-0.058088746,-0.142424277,0.085534398,85.35,3.15,76.05,-945.3125,108.88672,358.88672,0.13616238519311322,0.026912627999902163,0.033707544,60,26.4,10.35
-857.91016,60.05859,-544.43359,-0.093261843,0.048496242194690044,0.036505307,-14.4,28.05,13.2,-414.0625,24.41406,917.96875,-0.072477764,-0.075941894,-0.015454891,85.35,3.15,76.05,-945.80078,90.82031,364.74609,0.15667995228078296,0.024248034,0.009326167,60,26.4,10.35
-849.12109,64.45313,-556.64062,-0.045964817,0.003996979,0.034240393,-14.4,28.05,13.2,-411.13281,20.50781,918.45703,-0.074342998,-0.030643269,-0.02584693,85.95,3.15,76.05,-942.87109,92.77344,375,0.14375648730146573,0.027179139776681696,0.025313906405075356,59.7,25.65,9.6
-857.91016,48.82813,-546.38672,-0.045032113,0.001199041,0.053558918755949994,-14.4,28.05,13.2,-409.17969,42.48047,909.17969,-0.031176118,-0.023582016,-0.005462531,85.95,3.15,76.05,-931.64062,96.19141,367.1875,0.14162474215307985,0.024914226006368657,0.017719804,59.7,25.65,9.6
-839.84375,62.01172,-555.66406,-0.057422729,0.0167871,0.039969436134071744,-15.6,28.2,13.35,-421.38672,38.57422,918.94531,-0.070879043,-0.087799312,0.032508503,85.8,4.05,76.5,-920.89844,91.30859,383.30078,0.1390934911389125,-0.022915824,-0.007327765,59.7,25.65,9.6
-845.21484,76.66016,-541.50391,-0.10258801,0.043433391,0.020650910242522108,-15.6,28.2,13.35,-424.31641,29.29688,944.33594,-0.060886684,-0.188122582,0.006395061,85.8,4.05,76.5,-920.41016,101.07422,391.11328,0.16853754468590723,-0.019984718,-0.026512948,59.7,25.65,9.6
-840.82031,79.58984,-539.0625,-0.09139661,0.027712163330240767,0.087399631,-13.5,28.65,12.6,-410.64453,31.25,942.87109,-0.135629362,-0.201045873,-0.000799361,86.25,4.05,76.2,-912.59766,101.5625,390.625,0.16480707794269456,-0.029177716,-0.05302607,59.7,25.65,9.6
-837.89062,83.49609,-546.875,-0.092995331,0.097125653,0.080738059,-13.5,28.65,12.6,-405.27344,7.8125,945.80078,-0.11897543,-0.182127027,-0.006794741,86.25,4.05,76.2,-930.66406,104.98047,391.60156,0.1682710329091277,0.060087322823034785,-0.04183467,59.85,24.75,9
-828.125,80.07813,-545.41016,-0.067947937,0.054491623,0.10831705324094529,-16.5,28.5,12.9,-399.41406,13.67187,954.10156,-0.116310836,-0.05902145,-0.008659975,86.25,3.75,75.45,-928.71094,122.55859,383.30078,0.24048245991406628,0.037837691,-0.016254251,59.85,24.75,9
-825.68359,87.89063,-525.39062,-0.071545235,0.048762579438544375,0.10205516095064003,-16.5,28.5,12.9,-417.96875,36.62109,935.05859,-0.105519116,-0.098857543,0.010392039432224637,86.25,3.75,75.45,-921.875,94.23828,368.16406,0.22449472036702264,0.037304667,-0.054091942,60,26.1,11.4
-815.42969,87.89063,-531.73828,-0.077940296,0.036505307,0.08580091,-16.5,28.5,12.9,-413.57422,36.62109,928.22266,-0.074209829,-0.147753466,0.013722825776730615,85.65,4.2,76.05,-923.33984,144.04297,389.16016,0.25260638956304493,-0.002797937,-0.047163858,60,26.1,11.4
-818.84766,103.02734,-543.94531,-0.130033662,0.11444560237639817,0.024114865,-16.5,28.5,12.9,-407.22656,40.52734,926.26953,-0.108317053,-0.140692213,-0.02624661,85.65,4.2,76.05,-902.34375,97.16797,364.25781,0.23861722654245995,-0.052493046,-0.014788698,60,24.9,11.7
-805.66406,103.02734,-545.89844,-0.15468155,0.068081105,0.039303244,-14.55,29.4,12.6,-405.76172,18.55469,916.99219,-0.088598847,-0.112846881,-0.005728869,85.35,2.4,75.6,-903.32031,122.55859,374.02344,0.23715167356956032,-0.006661573,-0.005062851,60,24.9,11.7
-824.21875,114.25781,-529.78516,-0.133897471,0.056756536,0.027845331952167932,-14.55,29.4,12.6,-416.99219,32.71484,927.24609,-0.03797086,-0.119508453,-0.012257273,85.35,2.4,75.6,-901.36719,140.625,368.16406,0.24927560321853892,0.036372138,-0.056490025,59.1,24,9.75
-820.3125,102.05078,-543.45703,-0.137494595,0.15001838,0.03184231,-15.3,27.9,12.3,-411.13281,19.04297,922.36328,-0.077673784,-0.149485531,-0.027978501,85.35,2.4,75.6,-918.94531,133.78906,366.21094,0.22036439869217805,0.041967838,-0.055557495,59.1,24,9.75
-819.82422,102.53906,-544.92187,-0.103520714,0.054225111,0.094460884,-15.3,27.9,12.3,-382.8125,27.34375,913.57422,-0.069946339,-0.081670762,-0.054225111,85.35,2.4,75.6,-908.20312,145.99609,373.53516,0.24980862677209797,-0.005462531,0.028245012350874635,59.7,24.15,9.9
-818.84766,106.44531,-534.17969,-0.100722777,0.062352237,0.058754938,-16.5,28.5,14.25,-394.53125,19.53125,944.82422,-0.005329188,-0.057023048,0.034906585,85.65,3.15,75.3,-920.41016,145.01953,380.85937,0.22635995373862897,0.008260294,-0.050094964,59.7,24.15,9.9
-830.56641,108.88672,-539.0625,-0.079272506,0.054491623,0.039436413,-16.5,28.5,14.25,-397.94922,30.27344,919.92187,-0.017186781,-0.075675382,-0.036505307,85.65,3.15,75.3,-909.66797,124.51172,387.69531,0.2027779375503076,0.006528404,-0.0223828,59.85,23.25,11.25
-816.40625,108.39844,-545.89844,-0.160943268,0.1476202971995308,-0.047297026,-14.25,29.4,14.4,-412.59766,22.46094,946.28906,-0.003064275,-0.064084301,-0.019585038,85.95,3.15,75.3,-884.76562,149.41406,404.29687,0.18878859999679742,0.036238969,-0.078073464,59.85,23.25,11.25
-823.24219,104.00391,-550.78125,-0.176398159,0.12963398112602842,-0.068480786,-14.25,29.4,14.4,-375.48828,24.41406,946.28906,0.005862212,-0.117776389,-0.007860614,85.95,3.15,75.3,-910.64453,161.62109,413.08594,0.19318525891549634,0.14215776570663893,-0.091130098,59.85,23.25,11.25
-822.75391,100.09766,-553.71094,-0.159477715,0.12910113210539456,-0.029710565,-14.25,29.4,14.4,-386.71875,24.41406,935.54687,-0.050094964,-0.069280321,-0.022649312,85.5,3,77.25,-927.73437,153.32031,375.97656,0.22675963413733566,0.14828631484209184,-0.033307863,59.85,23.25,11.25
-836.42578,108.88672,-548.82812,-0.162542164,0.11058196701125833,0.030643269276040042,-14.25,29.4,14.4,-382.8125,25.39063,935.54687,-0.059554299,-0.108450222,-0.031575799,85.5,3,77.25,-925.29297,154.29687,394.04297,0.15654678365885577,0.1273690673557154,-0.044099583,58.5,24.6,9.3
-830.56641,77.63672,-552.73437,-0.165872951,0.11391275335576431,0.039569755735365045,-14.25,29.4,14.4,-393.55469,28.32031,923.82812,-0.033041352,-0.08660027,-0.057422729,85.5,3,77.25,-921.875,166.50391,407.71484,0.17706435074652552,0.09046408,-0.051427174,58.5,24.6,9.3
-844.23828,68.35938,-558.10547,-0.121506855,0.11790973187575651,0.053958599,-15.15,27.75,13.95,-408.20312,20.01953,921.38672,-0.003863635,-0.068081105,-0.023981697,85.5,3,77.25,-928.71094,145.50781,404.78516,0.17093562707814744,0.064883662,-0.005862212,60.6,24.3,10.05
-823.73047,83.98438,-546.875,-0.126303195,0.075941894,0.027045971,-15.15,27.75,13.95,-396.97266,20.99609,941.40625,0.006528404,-0.11724354,-0.019718206,86.4,4.2,76.05,-933.59375,173.82812,413.57422,0.13522968124084744,0.1460214010717788,-0.035306265,60.6,24.3,10.05
-822.26562,85.44922,-551.26953,-0.077274104,0.094993908,0.083402827,-15.9,27.75,15,-383.30078,21.97266,946.77734,-0.037438011,-0.099656904,-0.037438011,86.4,4.2,76.05,-937.01172,148.92578,401.36719,0.13776110678794004,0.15055122861240486,-0.021849951,60.15,24,9.45
-820.3125,84.96094,-549.31641,-0.13403064,0.083136315,0.045165456,-15.9,27.75,15,-392.08984,20.01953,944.82422,0.041301645952119014,-0.074209829,0.045165456,85.95,3.45,76.65,-929.19922,154.78516,395.50781,0.14109189313244602,0.12430479278798894,-0.008659975,60.15,24,9.45
-816.40625,90.33203,-547.36328,-0.105785628,0.10631847671448658,-0.005062851,-15.45,29.25,15.3,-418.45703,42.96875,957.03125,-0.033973881,-0.087666143,-0.058355258,85.95,3.45,76.65,-944.82422,150.39062,412.10937,0.1009892883764471,0.15055122861240486,-0.007727445,60.75,24.15,9.3
-807.12891,92.28516,-547.85156,-0.116177667,0.072611107,-0.037837691,-15.45,29.25,15.3,-377.92969,25.87891,948.24219,-0.068214448,-0.101921818,-0.009592679,85.95,3.45,76.65,-909.17969,162.59766,403.32031,0.11830941227446322,0.12710255557893585,-0.010658551,60.75,24.15,9.3
-799.31641,94.72656,-539.0625,-0.1124472,0.1374945950111605,-0.001865233,-15.3,29.4,14.1,-377.92969,35.64453,966.30859,-0.092329314,-0.029044373,0.031309286918601076,85.95,3.45,76.65,-941.89453,136.71875,407.22656,0.12470447318669564,0.17519911737491917,-0.034373736,60.75,24.15,9.3
-794.92187,100.58594,-562.98828,-0.058355258,0.026113267,-0.046764177,-15.3,29.4,14.1,-396.97266,33.69141,970.70312,-0.079272506,0.016653931722529894,-0.026512948,86.4,3.45,76.65,-917.48047,147.46094,402.83203,0.11604432397122498,0.14881933839565087,-0.014389018,60,24.6,10.65
-800.78125,109.86328,-553.71094,-0.078073464,0.034240393,0.010525208054151804,-15.3,29.4,14.1,-413.08594,34.66797,943.35937,-0.054225111,-0.038637052,-0.019318526,86.4,3.45,76.65,-948.24219,158.20312,427.24609,0.1313660458757076,0.1799954566923248,-0.038237371,60,24.6,10.65
-808.59375,103.02734,-554.6875,-0.073943317,0.072877445,-0.007860614,-15.3,29.4,14.1,-406.25,20.99609,954.10156,-0.067281745,-0.108450222,-0.005329188,85.5,3.45,76.65,-928.71094,176.26953,399.41406,0.12910113210539456,0.092195971,-0.017320124,59.7,24.9,9.3
-802.24609,114.25781,-548.33984,-0.102055161,0.10858339048479962,-0.077407272,-16.2,28.5,13.2,-392.57812,29.78516,945.3125,-0.077940296,-0.166006119,0.008793318,85.5,1.8,76.95,-935.05859,165.52734,410.64453,0.10365388254546684,0.1021883295725672,-0.017453293,59.7,24.9,9.3
-811.52344,107.91016,-555.17578,-0.110315455,0.1236386006125027,-0.034373736,-16.2,28.5,13.2,-405.76172,21.48438,942.38281,-0.04743037,-0.117909732,0.024781057384441488,85.5,1.8,76.95,-915.52734,128.90625,397.94922,0.077940296,0.026246610357341126,-0.027445652,59.7,24.9,9.3
-797.36328,105.95703,-555.17578,-0.10778403,0.089797888,-0.02065091,-15.9,29.55,14.25,-394.04297,48.82813,968.26172,-0.109782606,-0.18226037,0.022249632,85.8,2.55,76.2,-918.45703,174.80469,408.69141,0.047963219,-0.004263316,-0.004663171,59.7,24.9,9.3
-812.5,108.88672,-550.78125,-0.027845332,0.057289385,0.020784078864449274,-15.9,29.55,14.25,-388.67187,45.41016,956.05469,-0.093128674,-0.181727347,-0.017719804,85.8,2.55,76.2,-916.99219,138.18359,420.89844,0.086733614,0.048496242194690044,0.016120908168970823,58.05,25.5,8.7
-808.10547,93.75,-563.47656,-0.049828452,0.062219067971420655,0.015854571,-14.85,27.75,14.25,-365.72266,31.25,982.42187,-0.137894275,-0.172667692,-0.039036732,85.8,2.55,76.2,-908.20312,177.24609,419.92187,0.047830050019203804,0.060753515,-0.028245012,58.05,25.5,8.7
-808.10547,106.44531,-558.59375,-0.050228132,0.039836093,-0.029977077,-14.85,27.75,14.25,-385.74219,23.92578,955.56641,-0.079539017,-0.148286315,0.002398082,85.8,2.55,76.2,-882.32422,160.15625,411.62109,0.015588059148336955,0.088732016,-0.042767199,58.05,25.5,8.7
-814.94141,104.49219,-552.73437,-0.091130098,0.059554299,-0.030643269,-14.85,27.75,14.25,-385.25391,20.01953,946.28906,-0.107251181,-0.122439559,0.05342575,86.25,3.3,77.25,-918.94531,129.39453,380.85937,-0.013855994,0.078073464,-0.034107224,58.05,25.5,8.7
-805.66406,103.51563,-554.19922,-0.069680001,0.071145554,-0.048096562,-14.85,27.75,14.25,-392.57812,-6.83594,924.80469,-0.105652459,-0.16680548,0.015321547371557422,86.25,3.3,77.25,-907.71484,151.85547,392.57812,-0.014788698,0.067148576,-0.046631009,59.4,25.5,10.05
-804.6875,95.21484,-556.64062,-0.085934078,0.057289385,-0.059421131,-15.45,28.8,13.5,-386.23047,-1.46484,937.98828,-0.078206808,-0.142424277,0.050627813,85.35,2.4,77.7,-909.17969,144.04297,385.74219,0.022249632,0.007594102,-0.081803931,59.4,25.5,10.05
-808.59375,101.5625,-556.64062,-0.023715185,0.0167871,-0.019585038,-15.45,28.8,13.5,-366.69922,-1.95312,945.80078,-0.091529778,-0.154015358,0.021183759263155976,85.35,2.4,77.7,-879.39453,148.4375,394.04297,0.014921867,0.042767199,-0.067947937,58.5,23.85,8.55
-815.42969,97.65625,-555.66406,-0.040235773,0.003064275,-0.008127126,-15.15,30.6,13.2,-365.72266,-5.85937,950.19531,-0.084202188,-0.147220442,0.039436413,85.35,3.15,77.4,-896.48437,139.64844,396.48437,0.006528404,0.019851374912183504,-0.05475796,58.5,23.85,8.55
-818.84766,96.67969,-560.05859,-0.055157815,0.017186780743163762,-0.037837691,-15.15,30.6,13.2,-373.04687,1.95312,956.54297,-0.080072041,-0.173067372,0.027712163330240767,85.35,3.15,77.4,-885.25391,177.73437,375.97656,0.013855994398657782,0.020917247,-0.015454891,59.7,24.15,9.9
-812.01172,82.03125,-549.80469,-0.043433391,0.000133169,-0.012257273,-15.6,27.15,13.65,-367.1875,-13.67187,938.96484,-0.083402827,-0.173467053,0.026779459377974997,85.05,4.05,77.25,-885.74219,122.07031,372.55859,0.041301645952119014,0.025846929958634426,-0.021716608,59.7,24.15,9.9
-805.17578,80.56641,-559.57031,-0.102055161,0.052226708937902724,-0.02757882,-15.6,27.15,13.65,-362.30469,-9.27734,930.17578,-0.096725798,-0.120174646,-0.016653932,85.05,4.05,77.25,-884.76562,148.92578,373.04687,0.019718206290256335,0.022649312236055614,-0.022516144,59.85,23.7,9.45
-811.03516,87.40234,-561.52344,-0.075941894,0.006128724,-0.061419533,-15.3,28.2,15.15,-358.88672,-16.11328,922.85156,-0.026512948,-0.133897471,0.006261892,86.25,3,77.55,-891.11328,144.04297,375,0.013189976756096747,0.046764177,-0.017053612,59.85,23.7,9.45
-806.64062,73.73047,-551.75781,0.028911205,-0.013589657,-0.036105626,-15.3,28.2,15.15,-379.88281,15.13672,912.10937,-0.002664594,-0.127901916,-0.000799361,86.25,3,77.55,-876.46484,139.64844,396.48437,0.00985919,-0.017053612,-0.028111844,59.7,23.1,9.3
-826.66016,85.9375,-569.33594,0.030509926121187674,-0.04356656,-0.058355258,-15.3,28.2,15.15,-374.51172,8.30078,918.94531,-0.009725847,-0.191186857,-0.028378181,85.05,3.3,75.75,-892.57812,139.16016,367.67578,0.007327765,0.000799361,0.040369117,59.7,23.1,9.3
-813.96484,98.14453,-570.3125,0.022116463215421746,0.002931106,-0.082070443,-15.3,28.2,15.15,-354.00391,9.76562,924.31641,-0.049428772,-0.180261794,0.03317452,85.05,3.3,75.75,-889.16016,133.30078,365.72266,0.028378181,0.025180738,0.009592679,59.7,25.35,10.35
-812.5,87.89063,-563.96484,0.014255674797364485,0.008526806,-0.06381779,-15.3,29.7,13.35,-363.76953,0.48828,929.6875,-0.041168477,-0.092595651,-0.005329188,85.05,3.3,75.75,-892.08984,134.76562,347.65625,-0.025580418,0.05302607,-0.083669164,59.7,25.35,10.35
-829.10156,107.42188,-553.71094,-0.022249632,-0.009725847,-0.014389018,-15.3,29.7,13.35,-371.58203,11.23047,935.54687,-0.025580418,-0.078739657,-0.06941349,85.05,3.3,75.75,-895.99609,140.625,356.93359,-0.001332384,0.032375159492794015,-0.065683023,59.7,25.35,10.35
-815.42969,92.77344,-549.31641,0.003330786,-0.069280321,-0.04223435,-15.3,29.7,12.6,-385.25391,17.57813,933.10547,-0.009059655,-0.106584988,-0.015454891,85.5,3.75,76.95,-912.10937,144.04297,353.02734,-0.0055957,0.059820811,-0.003463955,59.7,25.35,10.35
-801.75781,101.5625,-554.19922,0.031442630073453444,-0.036505307,0.012390441425758144,-15.3,29.7,12.6,-354.49219,19.53125,933.10547,-0.02624661,-0.071278723,0.007327765,85.5,3.75,76.95,-899.41406,138.67187,367.1875,-0.016520589,-0.000532849,0.005062851,59.7,25.35,10.35
-809.57031,103.02734,-547.36328,0.026246610357341126,-0.052359878,0.009725847,-16.5,28.5,13.5,-357.42187,9.76562,960.9375,-0.000133169,-0.039436413,-0.027978501,84.9,3.45,78.45,-914.0625,143.06641,356.44531,-0.027445652,-0.012124104,0.019318525891549636,57.45,24.6,9.6
-812.5,115.72266,-547.36328,0.018252653,-0.058355258,-0.005062851,-16.5,28.5,13.5,-373.53516,22.46094,951.66016,-0.019318526,-0.060220491,0.002398082,84.9,3.45,78.45,-901.85547,126.95313,343.26172,-0.052493046,0.021316927885083145,-0.061686044,57.45,24.6,9.6
-808.10547,83.49609,-553.22266,0.006528404,0.025313906405075356,-0.044898944,-15.9,29.25,13.95,-375.48828,11.71875,936.03516,0.00519602,-0.052093366,-0.003197618,84.75,1.5,75.75,-914.0625,133.78906,340.33203,-0.051027493,0.016653931722529894,-0.05475796,59.7,24.6,9.9
-820.80078,89.84375,-539.0625,-0.044499264,-0.020117887,-0.002664594,-15.9,29.25,13.95,-371.09375,23.92578,933.10547,-0.014788698,-0.02757882,-0.000532849,84.75,1.5,75.75,-926.26953,135.25391,345.70312,-0.039436413,0.013456313999951081,-0.043033711,59.7,24.6,9.9
-811.03516,99.12109,-543.94531,-0.000266512,-0.041568158,-0.044632432,-15.9,29.25,13.95,-370.11719,12.69531,956.05469,-0.007460933,-0.008793318,-0.026113267,84.75,1.5,75.75,-947.75391,135.25391,334.96094,-0.046364497,0.018252653,0.003330786,59.4,23.7,9.75
-819.33594,94.72656,-543.94531,0.044099583275991124,-0.041035309,0.000133169,-15.9,29.25,13.95,-361.81641,-7.8125,958.49609,0.032641671,-0.004130147,0.028511524,84.75,1.5,75.75,-928.71094,137.20703,333.49609,-0.077807127,-0.008659975,-0.014255675,59.4,23.7,9.75
-820.3125,97.65625,-541.50391,0.030110245722480975,-0.03837054,-0.028644693,-15.9,29.25,13.95,-371.09375,9.76562,959.96094,-0.026512948,-0.0167871,-0.005329188,84.6,1.95,77.4,-920.89844,139.16016,342.77344,-0.064750319,-0.011990761,-0.038237371,61.05,24.9,8.85
-812.01172,94.72656,-539.55078,0.031975479094087315,-0.042500687,-0.04822973,-16.5,29.55,13.5,-368.65234,23.4375,932.12891,-0.026113267,-0.04956194,-0.032241991,84.6,1.95,77.4,-928.71094,122.07031,348.63281,-0.073010788,-0.000799361,-0.061552876,61.05,24.9,8.85
-815.91797,106.93359,-554.6875,-0.008926486,-0.002131745,-0.076208231,-16.5,29.55,13.5,-372.07031,4.39453,912.59766,-0.008659975,-0.04916226,-0.008393637,85.65,3.15,78.45,-921.38672,117.67578,345.70312,-0.117776389,-0.069146978,-0.001598722,59.4,24.75,9.75
-814.45312,97.16797,-563.47656,0.006928084,-0.005062851,-0.018519165,-17.1,27.9,14.1,-361.81641,10.25391,909.66797,-0.002931106,-0.011724424,-0.004396659,85.65,3.15,78.45,-904.78516,126.46484,353.02734,-0.110848479,-0.065949535,-0.014389018,59.4,24.75,9.75
-802.73437,90.33203,-567.87109,0.003330786,-0.013056634,-0.075941894,-17.1,27.9,14.1,-376.95312,17.57813,910.15625,0.021050590641228807,-0.010125528,-0.009592679,85.65,3.15,78.45,-926.75781,118.65234,350.58594,-0.091929633,-0.049428772,-0.058754938,59.4,24,8.4
-814.94141,89.35547,-566.89453,0.05302607,-0.078739657,-0.015721228,-15,28.2,12,-378.41797,17.57813,919.43359,0.013722825776730615,0.009992359,0.001598722,85.65,3.15,78.45,-921.875,125,354.00391,-0.125104154,-0.036372138,-0.039036732,59.4,24,8.4
-820.80078,71.77734,-567.38281,0.061419532641082054,-0.021849951,0.001732065,-15,28.2,12,-360.83984,5.37109,917.48047,0.013456313999951081,-0.003863635,-0.022915824,85.65,3.15,78.45,-923.82812,122.07031,349.60937,-0.127901916,-0.050894325,-0.086467102,59.4,24,8.4
-818.84766,74.21875,-566.89453,0.075675382,-0.054891303,-0.010258871,-15,28.2,12,-376.95312,12.20703,927.24609,0.019052014,0.036771818,-0.033707544,85.65,3.9,77.1,-919.43359,128.41797,347.65625,-0.089797888,-0.069546658,-0.06461715,59.4,24,8.4
-817.87109,83.49609,-570.80078,0.09179629,0.013722825776730615,-0.055290984,-15,28.2,12,-393.55469,11.23047,933.59375,0.047297026,-0.012390441,-0.009592679,85.65,3.9,77.1,-912.59766,133.78906,356.44531,-0.074876021,-0.082203612,-0.074476341,58.2,23.85,9.3
-821.28906,76.66016,-578.125,0.043033711,-0.009592679,-0.061819213,-14.85,31.05,13.5,-388.18359,18.55469,931.64062,0.048895923,0.006661573,0.011724423783197109,84.9,3.15,77.1,-925.78125,136.23047,367.67578,-0.106718157,-0.047563538,-0.107917373,58.2,23.85,9.3
-819.82422,78.61328,-590.33203,0.057289385,-0.011324569,-0.045964817,-14.85,31.05,13.5,-382.8125,11.23047,933.10547,0.028378181,0.005728869,-0.051427174,84.9,3.15,77.1,-934.57031,131.34766,342.77344,-0.094860565,-0.04783005,-0.082869804,58.2,23.85,9.3
-814.94141,78.61328,-575.68359,0.097525333,-0.004130147,-0.032108648,-14.25,28.95,12.6,-394.53125,33.69141,959.96094,0.050761156,0.010658551,-0.057555897,84.15,2.4,77.1,-928.22266,143.06641,364.74609,-0.107917373,-0.091263441,-0.064883662,58.2,23.85,9.3
-818.84766,79.10156,-579.10156,0.097658502,-0.040901966,-0.012790122,-14.25,28.95,12.6,-394.53125,18.06641,968.75,-0.004529828,0.014255674797364485,0.001332384,84.15,2.4,77.1,-941.40625,129.88281,366.69922,-0.061286364,-0.12883462,-0.071278723,59.25,24.15,9.9
-818.84766,75.68359,-579.10156,0.095127076,-0.060087323,-0.011457912,-14.55,29.4,13.05,-404.78516,27.34375,961.91406,0.001465553,0.014389017952216851,0.051160836,84.15,2.4,77.1,-939.94141,125.48828,378.41797,-0.087399631,-0.12883462,-0.108983071,59.25,24.15,9.9
-834.47266,79.58984,-578.61328,0.025846929958634426,0.008393637,-0.058088746,-14.55,29.4,13.05,-398.92578,2.44141,944.33594,-0.027045971,0.008926486,0.013056634,84.15,2.4,77.1,-924.31641,120.60547,374.02344,-0.052226709,-0.061153195,-0.087399631,59.7,24.15,9.6
-829.58984,94.72656,-575.19531,0.044499264,0.028245012350874635,-0.066482384,-15.3,28.65,13.35,-409.17969,-3.90625,938.96484,-0.000799361,-0.002797937,0.022782481,84.6,3.15,78.15,-934.08203,125.97656,355.46875,-0.084202188,-0.064750319,-0.082736635,59.7,24.15,9.6
-840.33203,70.3125,-575.19531,0.05902145,0.001199041,-0.013323145,-15.3,28.65,13.35,-398.92578,12.20703,935.05859,-0.035972458,-0.022516144,-0.002664594,84.6,3.15,78.15,-936.52344,120.11719,360.83984,-0.078606488,-0.041434989,-0.115111795,59.7,24.15,9.6
-843.75,71.28906,-565.91797,0.040901965553412314,0.050894325,-0.030509926,-15.3,28.65,13.35,-406.73828,-13.18359,940.42969,0.013722825776730615,0.055557495,0.020650910242522108,83.55,2.4,78.15,-961.91406,128.41797,356.44531,-0.092195971,-0.094327716,-0.138960148,61.05,25.65,9.6
-829.58984,59.08203,-589.35547,0.065683023,-0.007594102,-0.029177716,-15.3,28.65,13.35,-413.57422,1.95312,937.98828,-0.020917247,-0.002531426,-0.013323145,83.55,2.4,78.15,-968.26172,123.04688,378.41797,-0.096859141,-0.161343123,-0.045565136,61.05,25.65,9.6
-830.56641,77.63672,-580.56641,0.099124055,-0.0111914,0.035705946,-15.9,28.5,13.95,-408.20312,-5.37109,940.91797,-0.006928084,0.028777861371508503,0.007194422,84.75,3,78.6,-937.5,115.23438,393.55469,-0.094327716,-0.171868331,-0.088199167,59.85,24,10.8
-822.75391,69.82422,-583.98437,0.06941349,-0.004396659,0.015987739547043658,-15.9,28.5,13.95,-415.52734,5.85937,913.08594,-0.030509926,-0.138960148,0.062352237,84.75,3,78.6,-936.03516,111.81641,398.4375,-0.069680001,-0.137627938,-0.126702875,59.85,24,10.8
-829.10156,69.33594,-587.89062,0.018918845492842937,0.031309286918601076,-0.002398082,-15.9,28.8,13.5,-361.32812,-43.45703,953.125,0.007860614,0.012656953202537678,-0.020517567,85.05,1.8,78,-943.35937,117.1875,394.04297,-0.103920394,-0.174399757,-0.08620059,59.85,24,10.8
-836.91406,66.89453,-583.49609,0.028245012350874635,0.039569755735365045,-0.004396659,-15.9,28.8,13.5,-406.25,-3.41797,958.00781,0.008393637,0.079805529,-0.026779459,85.05,1.8,78,-948.24219,119.14063,405.76172,-0.107384349,-0.194117963,0.004663171,59.85,24,10.8
-839.84375,69.82422,-578.61328,0.051693685,0.047030689,-0.073010788,-15.6,27.9,14.4,-412.59766,-2.44141,963.86719,-0.023715185,0.045431793,0.007594102,85.05,2.55,77.55,-948.73047,113.76953,404.29687,-0.072611107,-0.173067372,-0.024248034,60.9,24.3,10.05
-833.98437,82.03125,-593.26172,0.043699902877284424,-0.018252653,0.001598722,-15.6,27.9,14.4,-409.17969,-19.04297,946.77734,0.033973881087620825,-0.02158344,-0.031176118,85.05,2.55,77.55,-952.14844,107.42188,402.83203,-0.083535996,-0.154947888,-0.108716734,60.9,24.3,10.05
-838.37891,71.77734,-572.26562,0.081137739,-0.040768797,0.003064275,-15.15,29.55,12.9,-403.32031,-17.57813,935.54687,0.058355258,0.045032112695331694,-0.029177716,84.6,3.15,77.7,-948.24219,125.97656,400.39062,-0.055290984,-0.153748846,-0.050094964,60.9,24.3,10.05
-842.77344,65.42969,-576.17187,0.067015233,-0.014255675,0.010258871,-15.15,29.55,12.9,-406.25,-22.94922,953.61328,0.063284766,0.017719804,-0.045165456,84.6,3.15,77.7,-938.47656,113.76953,407.71484,-0.108050541,-0.169070394,-0.09139661,60.9,24.3,10.05
-835.44922,70.3125,-562.98828,0.034773416417959425,0.031708967317307775,-0.055424152,-15.15,29.55,12.9,-395.01953,-15.625,954.10156,0.10538594729514601,0.033441032,-0.012124104,84.6,3.15,77.7,-943.35937,117.1875,398.92578,-0.109915775,-0.140559044,-0.01638742,61.05,23.85,10.95
-843.26172,73.73047,-561.52344,0.007194422,0.018385996472209065,-0.046097985,-15.15,29.55,12.9,-380.37109,-24.41406,951.66016,0.056889705,0.010125527655445103,-0.005728869,84.6,3.15,77.7,-938.47656,103.02734,401.36719,-0.08660027,-0.139359828,-0.08486838,61.05,23.85,10.95
-840.82031,71.77734,-569.33594,0.040901965553412314,-0.003597298,-0.033574201,-15.3,28.95,12.6,-377.44141,0,957.03125,0.094460884,0.022249632,-0.004796339,84.45,3.3,78,-940.91797,110.83984,395.99609,-0.117776389,-0.149219019,-0.014921867,60.15,24.75,10.8
-839.84375,55.66406,-550.78125,0.072611107,-0.025980099,-0.051160836,-15.3,28.95,12.6,-370.11719,10.74219,961.42578,0.071678403,-0.000133169,-0.024781057,84.45,3.3,78,-938.96484,110.35156,395.50781,-0.078073464,-0.128168428,-0.032908183,60.15,24.75,10.8
-822.75391,59.57031,-548.33984,0.075808551,-0.034373736,-0.008659975,-15.9,28.5,13.5,-372.07031,-6.83594,949.21875,0.036904987,0.007860614,-0.047696707,85.05,3.3,76.95,-948.24219,91.79688,405.27344,-0.057822409,-0.1943843,-0.010658551,59.4,24.75,9.75
-828.61328,61.52344,-545.41016,0.039436413,-0.056090344,0.023582016188321384,-15.9,28.5,13.5,-366.21094,0,933.59375,0.065683023,0.061686044,0.00519602,85.05,3.3,76.95,-931.64062,96.19141,416.50391,-0.061552876,-0.178663072,-0.009192998,59.4,24.75,9.75
-826.17187,73.24219,-545.41016,0.071278723,-0.050228132,0.015321547371557422,-15.45,26.55,12.45,-364.74609,5.37109,935.05859,0.032908183,0.065816192,-0.007993957,84.45,1.05,76.95,-914.55078,83.49609,414.0625,-0.046364497,-0.145088872,-0.04356656,59.4,24.3,9.75
-817.87109,84.96094,-535.64453,0.027445652,0.008393637,-0.072744276,-15.45,26.55,12.45,-359.375,-16.11328,949.21875,0.045698304870817934,0.084468525,0.042367519,84.45,1.05,76.95,-902.34375,103.51563,396.97266,-0.019984718,-0.120307814,-0.033973881,59.4,24.3,9.75
-815.42969,76.17188,-549.31641,0.006661573,-0.001598722,-0.04396624,-15.45,26.55,12.45,-354.98047,-14.16016,951.17187,0.084601868,0.071678403,0.037704522,84.45,1.05,76.95,-914.0625,90.33203,399.90234,-0.045565136,-0.086467102,-0.070079682,58.95,24.15,11.4
-835.44922,71.28906,-536.13281,0.053958599,0.030243414,-0.034773416,-15.45,26.55,12.45,-352.05078,-3.41797,943.84766,0.08020521,0.055157815,0.029310885,84.45,1.05,76.95,-916.50391,80.07813,407.22656,-0.100589608,-0.109382926,-0.05342575,58.95,24.15,11.4
-819.82422,56.64063,-533.20312,0.041568158,-0.037438011,-0.034506905,-15.45,26.55,12.45,-367.1875,-11.23047,937.98828,0.04916226,0.056756536,0.037704522,85.35,3.15,77.4,-921.875,64.45313,426.26953,-0.073943317,-0.133364448,-0.066882064,59.7,23.4,11.4
-817.38281,62.98828,-545.41016,0.042101007,0.020517567,-0.041434989,-14.55,28.65,13.65,-363.76953,-2.92969,947.26562,0.062485405,0.063151597,-0.009459335,85.35,3.15,77.4,-901.36719,78.125,417.48047,-0.082070443,-0.148019978,-0.079006168,59.7,23.4,11.4
-817.38281,44.92188,-544.43359,0.05995398,0.031975479094087315,0.021849951438642212,-14.55,28.65,13.65,-363.76953,-10.25391,939.94141,0.060886684,0.039969436134071744,0.020117887,85.65,3.45,76.65,-884.76562,78.125,425.78125,-0.051427174,-0.185191476,-0.071811572,59.7,23.4,11.4
-811.52344,41.99219,-549.80469,0.027845331952167932,0.044898944,-0.074342998,-15.9,28.5,13.5,-387.20703,-14.64844,932.61719,0.094727396,0.051427174,0.009192998,85.65,3.45,76.65,-884.27734,83.49609,421.875,-0.101655481,-0.085667741,-0.09179629,59.7,23.4,11.4
-818.84766,64.94141,-549.31641,0.024781057384441488,0.057156217,-0.020917247,-15.9,28.5,13.5,-378.90625,10.25391,962.89062,0.12377176923442987,0.095393588,-0.014255675,85.65,3.45,76.65,-886.71875,68.84766,418.45703,-0.060620172,-0.036904987,-0.080338378,58.5,23.85,11.4
-824.70703,42.48047,-556.64062,0.037837691,0.044898944,0.029444054,-16.35,28.2,12.3,-378.41797,3.90625,951.66016,0.060753515,0.037304667,-0.009725847,85.65,3.45,76.65,-921.38672,92.28516,405.27344,-0.098058182,-0.044232752,-0.058754938,58.5,23.85,10.65
-817.87109,53.22266,-553.22266,0.10818371008609293,0.03104295,0.029977077100553806,-16.35,28.2,12.3,-359.86328,-27.34375,941.40625,0.060487003221741484,0.009326167,0.031575798695380616,85.65,3.45,76.65,-919.92187,62.98828,411.62109,-0.047297026,-0.134163809,-0.032908183,59.85,23.25,10.65
-826.17187,48.82813,-549.31641,0.09739199,0.011724423783197109,0.004796339,-14.55,28.95,13.05,-391.60156,-4.88281,933.10547,0.088065823,0.024248034,0.002264914,84.75,3.3,78,-917.48047,52.24609,436.52344,-0.055557495,-0.15081774,-0.029044373,59.85,23.25,11.85
-823.73047,50.29297,-551.26953,0.096459461,0.008127126,0.011591080628344743,-14.55,28.95,13.05,-369.14062,-12.69531,941.89453,0.05342575,0.053159238,-0.005995381,84.75,3.3,78,-904.78516,73.24219,447.75391,-0.082203612,-0.189321624,-0.04356656,59.85,23.25,11.85
-827.14844,59.57031,-570.3125,0.1049862668964393,0.039303244,-0.066615552,-14.55,28.95,13.05,-390.625,-19.04297,931.64062,0.060220491,0.040901965553412314,-0.025980099,85.5,3,77.55,-885.25391,89.84375,413.57422,0.012390441425758144,-0.208373638,-0.025713587,59.25,24.9,10.35
-817.87109,48.33984,-562.01172,0.074476341,0.046231154,-0.033840712,-14.55,28.95,13.05,-375.48828,-12.69531,948.24219,0.072744276,0.092195971,-0.007194422,85.5,3,77.55,-891.60156,88.37891,437.5,-0.066215872,-0.130966365,-0.040768797,59.25,24.9,10.35
-828.125,46.875,-566.89453,0.071145554,0.093661524,-0.010924888,-14.25,28.2,14.7,-371.58203,-15.13672,953.125,0.089398208,0.052493046,-0.03877022,85.5,3.75,78.3,-910.15625,97.16797,415.52734,-0.103653883,-0.068747298,0.018385996472209065,60.15,22.5,11.25
-834.47266,39.55078,-561.03516,0.095526757,-0.006928084,-0.002398082,-14.25,28.2,14.7,-386.23047,-4.88281,945.3125,0.087399631,0.025447249559927724,-0.026646291,85.5,3.75,78.3,-929.6875,74.70703,422.85156,-0.085268061,-0.121640199,-0.016120908,60.15,22.5,11.25
-818.84766,38.57422,-553.71094,0.13483000084214075,-0.035572777,-0.001332384,-14.1,27.3,13.2,-372.07031,-18.06641,941.89453,0.074476341,0.030643269276040042,-0.01598774,85.5,3.75,78.3,-913.08594,96.19141,424.80469,-0.105252604,-0.103520714,0.024781057384441488,60.6,24.3,10.05
-824.21875,47.36328,-560.54687,0.1228392398150893,0.006128724,0.002664594,-14.1,27.3,13.2,-375.97656,-32.22656,934.08203,0.071545235,-0.001065873,-0.062485405,85.5,3.75,78.3,-924.31641,105.46875,431.15234,-0.089131696,-0.132431918,-0.01638742,60.6,24.3,10.05
-815.42969,49.31641,-550.29297,0.098457863,0.031176118,-0.044232752,-15.3,27.45,13.65,-389.64844,-18.55469,887.69531,0.056623193,0.025580418,-0.030243414,85.5,4.05,76.95,-923.33984,104.00391,435.05859,-0.075941894,-0.183459412,-0.014921867,60,24.9,12.45
-809.57031,54.19922,-561.03516,0.093661524,0.046764177,-0.02757882,-15.3,27.45,13.65,-375,-0.97656,924.31641,0.14002602055825306,0.025313906405075356,-0.006928084,85.5,4.05,76.95,-916.50391,119.62891,422.36328,-0.096192949,-0.102854522,-0.008793318,60,24.9,12.45
-823.24219,56.15234,-555.66406,0.068347617,0.035839288992152364,0.031309286918601076,-15.3,27.45,13.65,-374.51172,8.30078,925.29297,0.16027725040206847,0.059154619,-0.019052014,85.8,3,77.55,-925.29297,121.09375,424.31641,-0.113113393,-0.131232703,0.051294005,60,24.9,12.45
-822.75391,61.03516,-564.45312,0.092728994,-0.000532849,0.0167871,-15.3,27.45,13.65,-362.30469,24.90234,961.91406,0.1370949146124538,0.046764177,-0.020517567,85.8,3,77.55,-929.6875,101.5625,408.69141,-0.096592629,-0.111248159,0.019318525891549636,60,24.9,12.45
-818.35937,61.52344,-563.96484,0.088199167,-0.021183759,0.049828452,-15.3,27.9,14.4,-342.28516,37.59766,958.49609,0.16120977982140902,0.057023048,-0.021050591,84,4.5,78.6,-917.48047,98.14453,431.64062,-0.109249583,-0.171468651,0.034506905,60.9,22.95,11.85
-832.03125,62.98828,-563.47656,0.10152213739708096,0.002531426,-0.030243414,-15.3,27.9,14.4,-386.71875,18.06641,956.54297,0.14575488929499925,0.1458882324498516,-0.042767199,84,4.5,78.6,-925.29297,130.85937,437.5,-0.101788649,-0.1943843,0.040102605,60.9,22.95,11.85
-827.14844,71.77734,-565.42969,0.04916226,0.033307863,-0.035439434,-14.85,28.5,13.5,-393.06641,27.83203,935.54687,0.10938292581513821,0.10352071392353968,0.013989337553510148,84.75,4.5,78,-897.94922,92.28516,445.3125,-0.054491623,-0.213969338,-0.030643269,60.9,22.95,11.85
-823.24219,70.80078,-563.96484,0.064750319,0.013456313999951081,-0.01079172,-14.85,28.5,13.5,-384.27734,14.16016,961.42578,0.088732016,0.060886684,-0.011724424,84.75,4.5,78,-919.43359,111.32813,444.33594,-0.07500919,-0.153082654,-0.004929508,60.9,22.95,11.85
-821.77734,69.33594,-555.17578,0.036238969,0.048362899,0.019984718067035872,-16.35,28.95,12.6,-364.25781,20.01953,960.44922,0.11897542991702426,0.033574201,0.022249632,84.45,4.05,76.95,-916.01562,95.21484,422.85156,-0.071545235,-0.133364448,0.001065873,60.6,23.7,12.3
-833.98437,59.08203,-571.77734,0.092728994,-0.027045971,0.013589657,-16.35,28.95,12.6,-375.97656,23.92578,941.40625,0.11084847878803786,0.083003147,0.029710565323774273,84.45,4.05,76.95,-929.19922,103.02734,403.32031,-0.088465504,-0.113912753,0.009992359,60.6,23.7,12.3
-816.40625,62.98828,-559.08203,0.063551278,-0.017320124,0.052892727,-16.35,28.65,12.3,-395.01953,11.71875,943.84766,0.1430902951259795,0.080072041,0.037304667,85.8,3.75,77.55,-919.92187,70.3125,422.85156,-0.091663122,-0.160410419,0.009059655,60.75,24.15,10.65
-837.89062,55.17578,-566.40625,0.040768797,-0.01079172,0.043166879,-16.35,28.65,12.3,-394.53125,39.55078,939.94141,0.09179629,0.055557495,0.024781057384441488,85.8,3.75,77.55,-931.64062,90.82031,441.40625,-0.083669164,-0.134696832,-0.029577397,60.75,24.15,10.65
-828.61328,45.41016,-565.91797,0.007860614,0.007727445,-0.040901966,-16.35,28.65,12.3,-393.55469,18.06641,929.6875,0.071411892,0.071012211,0.024781057384441488,85.8,3.75,77.55,-929.19922,91.30859,453.125,-0.108450222,-0.168804056,0.026113267,59.4,22.95,12.9
-823.24219,51.26953,-564.94141,-0.000932704,-0.028911205,-0.008127126,-16.35,28.65,12.3,-395.99609,23.92578,930.17578,0.082070443,0.081937274,0.05342575,85.8,3.75,77.55,-896.97266,96.19141,443.35937,-0.095926437,-0.172134843,0.023182161256689485,59.4,22.95,12.9
-828.61328,34.17969,-562.5,0.033707544,0.047563538,-0.02584693,-17.1,27.45,12.6,-384.76562,9.76562,935.05859,0.076474743,0.012257272803830977,0.017986141540577164,86.4,3.45,77.4,-904.29687,100.58594,427.73437,-0.108849902,-0.072477764,-0.019851375,59.7,23.4,11.7
-825.19531,37.59766,-566.89453,0.062885086,-0.048096562,-0.015321547,-17.1,27.45,12.6,-378.90625,12.69531,941.40625,0.11977496524736285,0.093261843,-0.014522187,86.4,3.45,77.4,-912.10937,84.96094,417.96875,-0.123105752,-0.04783005,0.034640073,59.7,23.4,11.7
-811.52344,41.99219,-554.19922,0.04183467,-0.02624661,0.0167871,-16.8,27.9,13.05,-403.80859,27.34375,939.94141,0.1528161423827179,0.10205516095064003,0.015454890526409788,85.5,2.55,77.25,-915.52734,94.72656,414.55078,-0.121906536,-0.080871402,-0.056623193,59.7,23.4,11.7
-825.19531,41.01563,-571.77734,0.060087322823034785,-0.030243414,0.005462531,-16.8,27.9,13.05,-410.15625,19.53125,944.33594,0.1276355791324949,0.083136315,0.048762579438544375,85.5,2.55,77.25,-928.71094,79.58984,416.99219,-0.085534398,-0.04183467,-0.002264914,59.7,23.4,11.7
-825.68359,46.875,-577.63672,0.058888281626914674,-0.067548256,0.040768797,-16.95,27.3,13.95,-405.27344,11.23047,945.3125,0.11018228661255162,0.05475796,0.013989337553510148,85.8,3.3,78,-943.35937,77.14844,434.57031,-0.109116414,-0.045831473,0.009326167,59.7,23.4,11.7
-812.5,51.26953,-560.05859,0.036372138,0.022782481,-0.038637052,-16.95,27.3,13.95,-396.97266,6.34766,934.08203,0.11231385722801229,0.051560516762416485,0.008260294,85.8,3.3,78,-923.82812,71.77734,428.22266,-0.092329314,-0.076474743,0.05302607,61.8,24.6,12.75
-812.98828,47.85156,-560.54687,0.032908183,0.015721227770264124,-0.05302607,-15.9,28.5,13.2,-394.04297,12.69531,925.78125,0.094993908,-0.005728869,0.001732065,85.05,4.05,77.25,-913.57422,78.61328,436.03516,-0.065016831,-0.108983071,0.011724423783197109,61.8,24.6,12.75
-814.45312,61.03516,-558.10547,0.02757882,-0.001332384,-0.014522187,-15.9,28.5,13.2,-401.85547,24.90234,934.08203,0.078739657,0.058888281626914674,0.008260294,85.05,4.05,77.25,-898.92578,103.02734,431.64062,-0.084468525,-0.094727396,0.043166879,61.8,24.6,12.75
-801.26953,52.73438,-564.45312,0.072611107,-0.024514546,0.042767199,-15.9,28.5,13.2,-404.29687,21.97266,939.45312,0.10818371008609293,0.052626389336609423,0.052493046,85.5,2.25,78.3,-934.57031,72.26563,407.22656,-0.066482384,-0.071145554,0.057555897,61.8,24.6,12.75
-823.24219,54.19922,-569.82422,0.087133294,-0.009326167,0.025447249559927724,-15.9,28.5,13.2,-392.57812,9.27734,931.64062,0.089398208,0.077940296,0.044765775,85.5,2.25,78.3,-921.38672,117.67578,427.73437,-0.061552876,-0.094993908,0.036771818,59.7,25.35,13.5
-810.54687,59.57031,-553.71094,0.046497666,-0.046364497,-0.0167871,-15.9,28.5,13.2,-399.41406,24.90234,916.01562,0.1077840296873862,0.006794741,0.023182161256689485,86.7,3.15,77.1,-933.10547,95.21484,449.21875,-0.046764177,-0.104053563,0.018785676870915768,59.7,25.35,13.5
-817.87109,54.19922,-566.89453,0.036105626,0.065283343,-0.024647714,-15.45,28.5,13.2,-408.20312,20.99609,922.85156,0.10325420214676014,0.03663865,-0.009725847,86.7,3.15,77.1,-905.27344,94.23828,438.47656,-0.035839289,-0.139093491,0.045565136,59.85,24.3,12.9
-821.77734,65.91797,-559.57031,0.007194422,0.015721227770264124,-0.081537594,-15.45,28.5,13.2,-396.97266,34.17969,937.01172,0.1135130729570576,0.073410468,0.00519602,86.7,3.15,77.1,-908.20312,96.67969,449.70703,-0.055290984,-0.081404251,0.025180738,59.85,24.3,12.9
-824.70703,50.78125,-575.68359,-0.0055957,0.036771818,-0.011058232,-15.3,27.15,13.35,-382.8125,27.34375,953.125,0.1358958734163337,0.06381779,0.000133169,86.7,3.15,77.1,-899.41406,105.95703,430.66406,-0.05342575,-0.020117887,0.05342575,60,23.1,11.7
-820.3125,62.98828,-557.12891,-0.001732065,-0.0111914,-0.010125528,-15.3,27.15,13.35,-369.14062,25.87891,968.75,0.1897213039490632,0.1370949146124538,-0.02717914,86.7,3.15,77.1,-909.17969,118.16406,417.96875,-0.062485405,0.007194422,0.005462531,60,23.1,11.7
-828.61328,61.03516,-566.89453,0.049029091,-0.002131745,0.011324568851565207,-16.05,28.95,13.05,-399.41406,43.94531,958.98437,0.23168914207666846,0.14002602055825306,0.018918845492842937,86.25,1.8,77.25,-928.22266,105.95703,415.03906,-0.073010788,0.001065873,0.034107224242473186,59.1,24.75,13.95
-838.37891,64.45313,-568.84766,0.026779459377974997,0.017852972918649995,0.007727445,-16.05,28.95,13.05,-415.03906,72.26563,947.75391,0.12177336724089637,0.049029091,0.014389017952216851,86.25,1.8,77.25,-925.78125,116.69922,425.78125,-0.074209829,0.017053612121236593,0.038637052,59.1,24.75,13.95
-824.70703,58.59375,-568.35937,-0.04822973,0.046631009,-0.033973881,-16.05,28.95,13.05,-402.83203,59.57031,938.47656,0.07967236,0.011990761027051442,0.044232752,85.8,4.05,77.55,-911.62109,108.39844,427.24609,-0.061153195,-0.023048993,0.03663865,60.15,24,12.6
-837.89062,57.12891,-572.26562,-0.028644693,-0.009192998,-0.055690664,-16.05,28.95,13.05,-382.32422,57.12891,916.01562,0.12110717506541013,0.036904987,0.017320123898016127,85.8,4.05,77.55,-913.08594,115.23438,442.38281,-0.096192949,0.004130147,0.048496242194690044,60.15,24,12.6
-822.26562,51.26953,-564.94141,-0.016120908,0.041168477,-0.013323145,-15.9,26.55,12.15,-384.27734,58.10547,926.75781,0.12470447318669564,0.082603292,0.022649312236055614,85.8,3,78,-921.875,124.51172,457.51953,-0.082203612,0.023715184810248553,0.088199167,59.85,25.5,12.9
-819.33594,52.73438,-561.52344,-0.003996979,-0.017186781,0.009192998,-15.9,26.55,12.15,-390.13672,52.24609,952.63672,0.1228392398150893,0.074609509,0.032641671,85.8,3,78,-939.94141,111.32813,436.03516,-0.073143956,0.008127126,-0.005862212,59.85,25.5,12.9
-821.77734,58.59375,-559.08203,-0.009326167,0.020517567,0.021316927885083145,-15.9,27,13.5,-378.90625,52.24609,944.82422,0.14442267947695198,0.082336955,0.011058231607710873,85.8,3,78,-928.22266,105.46875,417.48047,-0.057422729,-0.017852973,-0.0167871,59.85,25.5,12.9
-818.84766,57.12891,-554.6875,0.002797937,-0.038503883,-0.012124104,-15.9,27,13.5,-401.36719,62.98828,930.66406,0.1200413024912172,0.068880466,0.052359878,85.8,3,78,-918.45703,103.02734,429.19922,-0.099790247,0.039036732,0.06461715,59.85,25.5,12.9
-843.26172,40.52734,-557.61719,-0.033574201,0.013323145378023914,0.006661573,-15.45,28.05,12.45,-410.64453,62.01172,933.10547,0.12696938695700868,0.071411892,0.068214448,84.9,3.9,78.15,-917.48047,116.21094,436.03516,-0.049828452,0.030376757499260505,0.017320123898016127,60.15,22.95,12.3
-832.51953,51.75781,-557.61719,-0.045565136,-0.028911205,0.005728869,-15.45,28.05,12.45,-410.64453,59.08203,921.875,0.067681425,0.009725847,0.075808551,84.9,3.9,78.15,-913.57422,111.32813,434.57031,-0.064084301,0.037171498810199634,0.009192998,60.15,22.95,12.3
-831.05469,37.59766,-554.19922,0.003996979,0.02198312,0.041035309,-15.45,28.8,13.95,-399.90234,50.29297,935.05859,0.075275702,-0.042500687,0.071811572,86.4,2.4,77.7,-911.13281,117.67578,445.3125,-0.040635454,0.016254251,0.036238969,59.7,23.85,12.45
-829.10156,58.59375,-558.59375,0.034506905,-0.003330786,0.047696706864351436,-15.45,28.8,13.95,-385.25391,39.0625,942.87109,0.08580091,-0.011857592,0.076741255,86.4,2.4,77.7,-911.62109,123.53516,433.10547,-0.070612531,0.081670762,-0.02025123,59.7,23.85,12.45
-817.87109,57.12891,-563.96484,-0.003863635,-0.046897346,0.05342575,-15.45,28.8,13.95,-393.06641,52.73438,947.26562,0.1103154552344788,0.013323145378023914,0.060220491,86.4,2.4,77.7,-907.71484,121.09375,419.43359,-0.066215872,0.10392039432224637,0.002264914,59.7,23.85,12.45
-824.70703,59.08203,-557.61719,-0.041568158,0.024647714,-0.041301646,-15.45,28.8,13.95,-392.57812,68.35938,949.21875,0.12510415358540233,0.030776438,0.050361476,86.4,2.4,77.7,-926.26953,111.32813,429.19922,-0.073543637,0.079272506,-0.020917247,59.7,24.9,13.05
-799.31641,57.12891,-562.01172,-0.073676805,0.039836093,-0.018785677,-14.85,28.05,13.5,-403.80859,71.28906,946.28906,0.077673784,-0.022116463,0.077940296,85.35,2.4,76.05,-925.29297,116.21094,425.78125,-0.09605978,0.077807127,0.019185357269622467,59.7,24.9,13.05
-818.84766,61.52344,-554.6875,-0.06981317,0.029977077100553806,0.024514545607661954,-14.85,28.05,13.5,-400.87891,66.89453,941.40625,0.070079682,-0.036904987,0.085134717,85.35,2.4,76.05,-910.64453,101.5625,428.71094,-0.116577348,0.065016831,-0.013722826,61.65,24,12.3
-811.03516,67.87109,-553.71094,-0.023048993,-0.007460933,0.080072041,-16.5,27.75,12.9,-395.99609,65.91797,935.54687,0.059421130647548545,-0.058222089,0.087666143,84.9,4.65,77.1,-906.73828,105.46875,441.89453,-0.117509877,0.05342575,-0.003463955,61.65,24,12.3
-814.94141,76.66016,-544.92187,-0.02717914,0.015188378749630253,0.12430479278798894,-16.5,27.75,12.9,-383.78906,66.40625,929.19922,0.081670762,-0.073143956,0.088732016,84.9,4.65,77.1,-920.41016,112.79297,426.26953,-0.133764128,0.11577798672737065,-0.006128724,60.6,24.75,13.95
-819.82422,81.54297,-549.31641,-0.033041352,-0.024914226,0.08486838,-16.05,27.45,12.6,-377.92969,80.07813,944.33594,0.088732016,-0.012523785,0.087532974,84.9,4.2,76.35,-908.20312,109.86328,427.73437,-0.114312434,0.058088746,-0.045298624,60.6,24.75,13.95
-829.10156,81.54297,-550.78125,-0.037304667,-0.008926486,0.071278723,-16.05,27.45,12.6,-382.32422,90.33203,955.07812,0.066082703,0.001998402,0.12563700260603622,84.9,4.2,76.35,-917.48047,118.16406,412.10937,-0.140159189,0.077673784,-0.02757882,58.95,23.4,12.45
-828.61328,80.07813,-547.85156,-0.082603292,0.039702924,0.024248034,-16.2,27.3,12.45,-371.09375,65.91797,941.89453,0.062885086,0.035173096816666125,0.077540615,84.9,4.2,76.35,-919.92187,126.95313,404.29687,-0.11337973,0.04223435,-0.018652334,58.95,23.4,12.45
-828.61328,80.07813,-555.66406,-0.071278723,0.019052014,-0.004663171,-16.2,27.3,12.45,-409.66797,76.66016,927.73437,0.020117887,0.016254251,0.1009892883764471,84.9,4.2,76.35,-908.69141,110.35156,412.10937,-0.169470074,0.013189976756096747,-0.004529828,58.95,23.4,12.45
-832.03125,79.58984,-561.03516,-0.106584988,0.042900542,0.014655355196071187,-16.2,27.3,12.45,-391.60156,70.3125,931.15234,0.025313906405075356,-0.093661524,0.12230621626153024,85.5,4.5,77.55,-909.17969,130.85937,417.48047,-0.120307814,0.016254251,0.022249632,58.95,23.4,12.45
-835.44922,84.47266,-555.66406,-0.003730467,-0.013056634,0.061686044,-16.2,27.3,12.45,-366.69922,73.73047,928.71094,-0.005995381,-0.051427174,0.11990813386929003,85.5,4.5,77.55,-877.92969,140.13672,439.94141,-0.173733564,0.014389017952216851,0.001865233,61.05,24.6,10.95
-838.86719,86.91406,-556.64062,-0.076208231,-0.013722826,0.071811572,-16.05,28.2,13.35,-373.53516,81.05469,954.58984,0.037704522,-0.067148576,0.12870145170668787,86.4,3.15,78.15,-884.27734,147.46094,433.59375,-0.179595776,0.020384398,-0.068347617,61.05,24.6,10.95
-821.28906,87.40234,-542.48047,-0.065016831,-0.04263403,0.043699902877284424,-16.05,28.2,13.35,-361.81641,81.05469,947.26562,0.010258871,-0.035173097,0.1329647674705344,86.4,3.15,78.15,-897.46094,151.36719,455.07812,-0.163474694,0.042367519,-0.018252653,61.05,24.6,10.95
-828.61328,81.05469,-543.94531,-0.110715136,0.030110245722480975,0.027845331952167932,-15.6,27.9,13.65,-371.58203,78.61328,945.80078,0.037571179,-0.007594102,0.173467053,85.8,4.8,77.25,-894.04297,158.20312,433.10547,-0.244212927,0.097125653,-0.011324569,61.05,24.6,10.95
-810.05859,82.51953,-540.52734,-0.115644644,0.027312483,-0.018785677,-15.6,27.9,13.65,-378.41797,76.66016,959.47266,0.003330786,-0.026512948,0.1220398790176759,85.8,4.8,77.25,-887.69531,144.04297,426.26953,-0.210905063,0.1184425808963904,-0.015188379,59.7,23.85,13.05
-813.47656,94.23828,-534.66797,-0.140026021,0.039836093,0.000532849,-14.85,27,12.9,-391.60156,80.07813,934.57031,-0.009992359,-0.002398082,0.12923430072732173,85.35,4.2,77.1,-891.11328,154.78516,438.96484,-0.21423585,0.11298004940349854,-0.034240393,59.7,23.85,13.05
-812.01172,79.58984,-527.34375,-0.076741255,-0.057289385,0.019984718067035872,-14.85,27,12.9,-387.69531,58.59375,948.73047,0.056356856079822104,0.010791719830931338,0.11324656118027807,85.35,4.2,77.1,-894.53125,149.41406,450.68359,-0.262598749,0.045165456,-0.040235773,61.95,23.25,11.85
-804.6875,101.07422,-531.25,-0.132565087,-0.018385996,0.039303244,-14.85,27,12.9,-383.30078,78.125,947.75391,0.034107224242473186,-0.024914226,0.10152213739708096,86.25,3.75,78,-889.16016,153.32031,441.40625,-0.235819289,0.083136315,0.001332384,61.95,23.25,11.85
-817.38281,93.75,-532.22656,-0.135496193,0.020517567,0.036904987,-14.85,27,12.9,-356.44531,47.85156,960.44922,0.072877445,-0.034906585,0.085134717,86.25,3.75,78,-904.78516,144.04297,446.77734,-0.238217546,0.10392039432224637,-0.088998527,61.35,23.4,12
-810.05859,101.5625,-534.66797,-0.153482335,0.026646290756047828,-0.04223435,-14.85,27,12.9,-303.71094,190.42969,955.07812,0.26579636631914166,0.13856046758535343,0.079805529,86.7,3.9,76.35,-897.94922,131.34766,429.6875,-0.259934154,0.094327716,-0.051427174,61.35,23.4,12
-808.59375,91.79688,-542.48047,-0.186390518,0.04956194,-0.013589657,-16.35,28.2,14.4,-387.69531,88.37891,948.73047,-0.004529828,0.19518383544195508,0.17360022124716717,86.7,3.9,76.35,-885.25391,125,442.38281,-0.260866684,0.089531376,-0.04223435,59.7,24.6,13.8
-809.57031,95.70313,-531.73828,-0.184125604,0.035572777,-0.0223828,-16.35,28.2,14.4,-422.85156,130.85937,964.84375,-0.094727396,-0.12883462,0.17493260559813967,86.7,3.9,76.35,-912.59766,148.4375,431.15234,-0.235419609,0.14668759324726502,0.009725847,59.7,24.6,13.8
-805.17578,100.09766,-547.85156,-0.103254202,-0.015321547,-0.012390441,-15.9,27.75,11.85,-375.48828,51.26953,973.14453,-0.108450222,-0.318022901,0.19998017475936067,86.7,3.9,76.35,-908.69141,126.46484,444.82422,-0.248742754,0.14455584809887914,-0.027445652,59.7,24.6,13.8
-810.05859,101.07422,-548.82812,-0.1180429,0.014921867,0.041434989,-15.9,27.75,11.85,-322.26562,80.56641,947.75391,0.011990761027051442,-0.166672311,0.1432236382808319,86.7,3.9,76.35,-907.71484,124.51172,451.17187,-0.27458951,0.10871673363965198,0.026912627999902163,59.1,23.25,12.9
-819.82422,115.23438,-542.48047,-0.140292532,0.017453292519943295,0.0223828,-15,28.2,13.35,-357.42187,79.58984,887.20703,-0.004663171,-0.000266512,0.16200914061882243,86.55,4.8,77.55,-893.55469,112.79297,464.35547,-0.281517594,0.10352071392353968,0.030110245722480975,59.1,23.25,12.9
-807.12891,114.74609,-547.85156,-0.157079633,0.054891303,-0.03837054,-15,28.2,13.35,-396.97266,67.87109,928.22266,0.069280321,-0.03663865,0.097791671,86.55,4.8,77.55,-904.78516,107.42188,450.19531,-0.289111871,0.1021883295725672,-0.013323145,60.3,23.4,12.75
-824.70703,104.98047,-547.36328,-0.180927986,0.03797086,0.001598722,-15.6,28.65,14.1,-345.21484,118.16406,969.23828,0.047030689,-0.042900542,0.1325650870718277,85.8,4.05,77.25,-893.55469,101.5625,470.70312,-0.260333835,0.12217304763960307,-0.003330786,60.3,23.4,12.75
-813.47656,94.72656,-533.69141,-0.165739607,0.021583439661862675,0.020384398,-15.6,28.65,14.1,-376.95312,83.98438,971.19141,0.095926437,-0.025180738,0.14921901879435762,85.8,4.05,77.25,-895.99609,96.67969,451.66016,-0.285647741,0.18332624303683076,-0.070346019,60.3,23.4,12.75
-826.17187,100.58594,-537.59766,-0.191053514,-0.033041352,0.023182161256689485,-15.6,28.65,14.1,-361.32812,147.46094,965.33203,0.031975479094087315,-0.077807127,0.1430902951259795,85.35,3.9,76.65,-885.74219,106.44531,468.75,-0.297105653,0.20650840429352027,-0.022249632,60.3,23.4,12.75
-820.80078,107.91016,-525.87891,-0.141225062,-0.009592679,0.012523785,-15.6,28.65,14.1,-391.11328,91.30859,993.16406,-0.06981317,-0.207307765,0.17479943697621247,85.35,3.9,76.65,-886.71875,87.40234,477.05078,-0.336009217,0.2612665387785156,-0.011457912,60.6,24.3,13.65
-821.28906,105.95703,-536.62109,-0.140425701,-0.025580418,0.043166879,-16.5,28.8,13.2,-331.05469,86.91406,966.30859,-0.035039754,-0.189588135,0.15827867387560976,85.35,3.9,76.65,-876.95312,83.00781,468.75,-0.32148703,0.2198315496715442,-0.0111914,60.6,24.3,13.65
-824.21875,103.02734,-550.78125,-0.205975555,0.006794741,-0.003197618,-16.5,28.8,13.2,-358.39844,93.26172,946.28906,-0.104719755,-0.136961746,0.21996471829347133,85.35,3.9,76.65,-875.97656,104.49219,465.33203,-0.337741107,0.34760029742596626,-0.025980099,61.2,24.3,12.6
-818.84766,104.98047,-535.15625,-0.250874499,0.009059655,-0.038237371,-16.95,28.8,12.9,-358.39844,84.96094,945.3125,-0.074609509,-0.104053563,0.21077189459029202,85.05,5.55,77.25,-921.38672,77.14844,418.45703,-0.289911232,0.23541960881988114,-0.06421747,61.2,24.3,12.6
-808.10547,103.51563,-533.20312,-0.264597325,-0.002264914,-0.048496242,-16.95,28.8,12.9,-412.10937,100.09766,960.44922,-0.175199117,-0.147886634,0.23448690486761536,85.05,5.55,77.25,-912.59766,83.49609,405.76172,-0.283116316,0.11178100820737844,-0.058488601,59.85,24.3,13.65
-810.05859,102.05078,-539.55078,-0.180528306,-0.053692262,0.017186780743163762,-16.05,27.9,12,-363.76953,42.96875,923.82812,-0.077940296,-0.125104154,0.19718223743548857,86.25,5.25,76.2,-898.4375,79.10156,437.5,-0.286846782,0.046231154,-0.026113267,59.85,24.3,13.65
-795.89844,95.70313,-543.45703,-0.17066929,-0.049428772,0.00039968,-16.05,27.9,12,-371.09375,45.89844,914.0625,-0.003463955,-0.110448624,0.19478415504324836,86.25,5.25,76.2,-886.23047,62.01172,437.5,-0.286713614,0.052626389336609423,-0.023848353,59.7,25.65,13.5
-790.52734,94.23828,-548.33984,-0.153082654,-0.072744276,0.012790121824464847,-16.2,28.5,12.45,-382.32422,60.05859,930.17578,0.013189976756096747,-0.114978626,0.1898544725709904,86.25,5.25,76.2,-873.04687,61.03516,461.91406,-0.280984745,0.061153195,-0.028245012,59.7,25.65,13.5
-811.52344,104.49219,-548.33984,-0.215701403,-0.011591081,-0.047963219,-16.2,28.5,12.45,-364.74609,82.51953,960.9375,0.011457912006417574,-0.147886634,0.1593445464498027,86.25,5.25,76.2,-870.11719,61.03516,454.10156,-0.26939349,0.1077840296873862,-0.023981697,61.95,23.7,12.9
-803.22266,106.93359,-551.26953,-0.181993859,0.026379778979268294,-0.025180738,-16.2,28.5,12.45,-363.76953,83.98438,960.9375,-0.024381377,-0.183326243,0.19958031982772878,85.8,4.05,77.25,-876.46484,70.80078,442.87109,-0.288179167,0.13789427540986718,-0.025313906,61.95,23.7,12.9
-815.91797,103.02734,-543.94531,-0.228091844,-0.024114865,0.022649312236055614,-16.2,28.5,12.45,-376.46484,62.5,971.67969,-0.066482384,-0.201312385,0.2165007633270382,85.8,4.05,77.25,-895.99609,62.01172,451.66016,-0.279519192,0.16680547993622805,-0.002931106,60.6,23.7,12.3
-803.22266,112.30469,-546.38672,-0.168670713,-0.04183467,0.029044373148288036,-16.05,28.95,14.1,-378.41797,78.61328,925.78125,-0.102854522,-0.237951034,0.17826339194264562,86.4,4.95,78.15,-896.97266,69.82422,431.64062,-0.275655382,0.1849249646316576,0.021316927885083145,60.6,23.7,12.3
-815.91797,118.65234,-559.57031,-0.170136266,-0.02198312,0.079139337,-16.05,28.95,14.1,-383.30078,55.17578,912.59766,-0.087666143,-0.161742803,0.19678255703678188,86.4,4.95,78.15,-913.08594,73.73047,413.57422,-0.263264941,0.066082703,0.027978501,60.6,23.7,12.3
-815.91797,125.48828,-556.15234,-0.098591031,-0.04783005,0.041434989,-15.9,29.25,13.95,-394.53125,60.05859,899.90234,-0.072078084,-0.13363096,0.19798159823290198,85.95,4.95,79.2,-893.06641,62.01172,421.875,-0.282849978,0.048762579438544375,0.000532849,60.6,23.7,12.3
-819.33594,125.97656,-579.58984,-0.233554375,0.01638742,-0.005728869,-15.9,29.25,13.95,-380.37109,36.13281,900.39062,-0.047297026,-0.162542164,0.194650812,85.95,4.95,79.2,-903.80859,51.75781,440.91797,-0.275655382,0.06461715,-0.045298624,58.8,25.05,12.3
-824.21875,131.34766,-564.94141,-0.22542725,-0.04956194,-0.03703833,-15.45,28.8,13.95,-388.18359,65.91797,907.22656,-0.057156217,-0.136695234,0.16081009942270233,85.95,4.95,79.2,-897.46094,63.96484,437.98828,-0.283649339,0.042500687,-0.085001549,58.8,25.05,12.3
-817.87109,127.44141,-570.3125,-0.210372214,0.001065873,-0.012257273,-15.45,28.8,13.95,-396.48437,77.14844,928.71094,-0.08580091,-0.160010739,0.20810712588834707,85.95,4.95,79.2,-905.76172,54.6875,431.15234,-0.267794768,0.028111843728947466,0.001598722,58.8,25.05,12.3
-812.98828,126.95313,-581.54297,-0.155480911,-0.065149999,-0.004130147,-15.45,28.8,13.95,-372.07031,58.10547,937.5,-0.094460884,-0.216633932,0.19891430218516776,84.15,5.7,77.7,-907.22656,62.5,444.33594,-0.265263343,0.06941349,-0.025180738,58.8,25.05,12.3
-835.44922,121.58203,-573.24219,-0.18186069,-0.061686044,0.017852972918649995,-15.45,28.8,13.95,-373.53516,58.59375,933.10547,-0.071411892,-0.192519067,0.2055758748741797,84.15,5.7,77.7,-905.76172,77.63672,423.82812,-0.249275603,0.078339976,-0.042767199,58.8,25.05,12.3
-806.15234,124.51172,-575.19531,-0.185857669,-0.060087323,0.026912627999902163,-16.35,29.4,13.65,-381.83594,44.43359,938.96484,-0.07967236,-0.168404376,0.20530936309740017,84,4.8,78,-895.50781,55.66406,419.92187,-0.25300607,0.041434989,0.011857592405124276,60.6,25.5,13.65
-812.98828,121.09375,-583.00781,-0.228624868,0.019451694513476805,-0.048629411,-16.35,29.4,13.65,-387.69531,31.73828,929.6875,-0.09046408,-0.137094915,0.1771975193684527,84,4.8,78,-910.64453,53.71094,421.38672,-0.233421207,0.013855994398657782,-0.044099583,60.6,25.5,13.65
-812.98828,120.60547,-591.30859,-0.266196047,-0.005728869,-0.019984718,-17.85,28.65,13.35,-392.08984,33.69141,928.22266,-0.023715185,-0.121906536,0.1897213039490632,85.05,4.5,78.3,-920.41016,54.6875,422.85156,-0.223162336,-0.031708967,-0.045698305,59.7,24.6,13.05
-827.63672,126.46484,-583.49609,-0.227292483,-0.010258871,-0.0055957,-17.85,28.65,13.35,-389.64844,38.57422,936.52344,-0.062618748,-0.104053563,0.16653896815944855,85.05,4.5,78.3,-914.0625,51.75781,422.36328,-0.237684523,0.014788698350923554,-0.005062851,59.7,24.6,13.05
-836.91406,136.23047,-597.16797,-0.202245089,-0.016520589,-0.047696707,-15.45,29.85,13.5,-390.625,65.42969,943.84766,-0.048496242,-0.109516094,0.15001838,85.65,4.95,78.9,-928.22266,45.41016,408.20312,-0.196649388,0.024381376985734785,0.020117887,60.3,24.9,13.5
-835.44922,115.72266,-588.86719,-0.167471672,-0.009059655,-0.00039968,-15.45,29.85,13.5,-431.64062,40.52734,960.9375,-0.055424152,-0.151084252,0.14282395788212518,85.65,4.95,78.9,-949.70703,51.26953,404.78516,-0.21463553,0.039969436134071744,0.018119485,60.3,24.9,13.5
-821.77734,144.04297,-583.49609,-0.169869755,-0.061153195,0.04956194,-14.55,29.7,11.55,-382.8125,30.27344,967.77344,0.015321547371557422,-0.124437961,0.13842729896342626,85.35,5.7,77.7,-958.00781,30.76172,396.97266,-0.189321624,0.011058231607710873,-0.001998402,59.1,23.7,11.85
-830.07812,126.95313,-574.70703,-0.180661474,-0.049695283,0.023448673033469015,-14.55,29.7,11.55,-393.55469,62.98828,950.68359,-0.016120908,-0.08100457,0.10405356294417353,85.35,5.7,77.7,-944.33594,54.19922,392.57812,-0.187722727,-0.012257273,0.006794741,59.1,23.7,11.85
-827.14844,124.02344,-575.68359,-0.211171575,0.036372138,-0.041568158,-14.55,29.7,11.55,-404.78516,56.15234,950.19531,-0.094194547,-0.120440983,0.066215872,84,4.8,79.05,-947.26562,47.85156,392.57812,-0.212903465,-0.00039968,-0.004796339,59.1,23.7,11.85
-837.89062,123.53516,-566.40625,-0.185058133,0.023981696587028086,-0.075941894,-14.55,29.7,11.55,-383.78906,61.52344,961.91406,-0.089398208,-0.200513024,0.11337972980220523,84,4.8,79.05,-933.59375,60.05859,386.23047,-0.225294081,0.002664594,0.027845331952167932,59.1,23.7,11.85
-818.84766,114.74609,-568.35937,-0.184791796,0.011990761027051442,-0.009326167,-14.55,29.7,11.55,-381.34766,37.10938,951.17187,-0.076341574,-0.130167005,0.13776110678794004,84,4.8,79.05,-953.61328,40.03906,393.06641,-0.213169977,0.023182161256689485,-0.036372138,60,23.4,12.75
-812.98828,130.85937,-566.89453,-0.149485531,-0.047963219,0.051560516762416485,-17.1,29.4,13.65,-379.39453,38.08594,950.68359,-0.052226709,-0.109249583,0.13229857529504815,84,4.8,79.05,-976.07422,40.03906,381.34766,-0.19824811,0.019984718067035872,0.001998402,60,23.4,12.75
-817.87109,126.95313,-569.33594,-0.158145505,-0.046631009,0.025447249559927724,-17.1,29.4,13.65,-370.60547,54.19922,944.82422,0.012523785,-0.048895923,0.08020521,84,4.8,79.05,-949.21875,41.01563,375.48828,-0.189055112,-0.021450271,-0.045964817,60,23.4,12.75
-808.10547,126.95313,-569.82422,-0.126836218,-0.072078084,0.03104295,-15.15,31.05,13.2,-383.78906,45.89844,942.38281,-0.012390441,0.018652334,0.12057432604477626,83.55,5.4,78.45,-935.54687,44.43359,383.30078,-0.213436489,0.03663865,-0.012656953,60,23.4,12.75
-820.3125,126.95313,-562.98828,-0.163075013,0.0223828,0.002264914,-15.15,31.05,13.2,-380.37109,67.38281,957.03125,-0.001465553,0.008393637,0.095127076,83.55,5.4,78.45,-942.87109,27.83203,392.57812,-0.171335307,-0.0167871,0.025447249559927724,62.1,24.15,12.75
-817.87109,128.41797,-566.40625,-0.162009141,-0.008260294,-0.041434989,-16.05,30.15,13.65,-369.14062,55.66406,959.96094,-0.048362899,-0.036771818,0.06421747,84.75,4.8,78.6,-937.01172,46.875,390.625,-0.192385898,0.026512948,-0.002131745,62.1,24.15,12.75
-820.3125,134.27734,-568.35937,-0.15041806,0.000266512,-0.047297026,-16.05,30.15,13.65,-376.46484,59.57031,964.35547,-0.048362899,-0.044632432,0.07540887,84.75,4.8,78.6,-945.80078,54.19922,395.50781,-0.16680548,-0.019851375,0.055290983505629165,59.7,23.4,12.45
-810.05859,109.86328,-579.58984,-0.128967789,-0.026512948,0.001598722,-15.9,29.25,12.15,-383.30078,41.99219,945.80078,-0.032108648,-0.029177716,0.092062802,83.85,4.95,78.15,-937.01172,35.15625,375,-0.101522137,-0.020784079,-0.08100457,59.7,23.4,12.45
-818.35937,133.30078,-566.40625,-0.098591031,-0.025313906,-0.012523785,-15.9,29.25,12.15,-381.34766,49.31641,932.61719,-0.071278723,0.003330786,0.044632432,83.85,4.95,78.15,-938.47656,39.0625,370.11719,-0.11857575,-0.034906585,0.05902145,59.1,25.8,12.3
-825.19531,143.06641,-571.28906,-0.068347617,-0.036372138,0.028511524,-15.9,29.25,12.15,-389.16016,52.73438,938.47656,-0.052359878,-0.031176118,0.057822409,83.85,4.95,78.15,-926.75781,30.27344,388.18359,-0.089664545,-0.078473145,-0.010125528,59.1,25.8,12.3
-824.21875,147.46094,-573.24219,-0.131099534,0.027712163330240767,0.011058231607710873,-15.9,29.25,12.15,-387.69531,27.83203,924.80469,-0.055157815,-0.066482384,0.074209829,83.85,4.95,78.15,-933.10547,25.87891,396.97266,-0.059554299,-0.084068845,0.039569755735365045,59.25,24.9,13.5
-822.75391,136.71875,-567.87109,-0.132565087,0.015588059148336955,-0.007727445,-15,28.65,14.4,-391.11328,16.60156,937.01172,-0.117509877,-0.024514546,0.083136315,84.6,5.4,77.7,-924.80469,30.27344,383.78906,-0.074476341,-0.089398208,0.029444054,59.25,24.9,13.5
-833.00781,146.97266,-569.33594,-0.120840663,0.005329188,-0.036505307,-15,28.65,14.4,-400.87891,31.25,930.66406,-0.084601868,-0.000133169,0.009459335,84.6,5.4,77.7,-921.875,25.39063,396.97266,-0.04916226,-0.084468525,0,59.25,24.9,13.5
-819.33594,136.23047,-573.73047,-0.04743037,-0.021849951,0.063418109,-15.6,30.15,14.1,-379.39453,14.64844,908.69141,-0.070612531,0.021849951438642212,0.031309286918601076,83.55,4.95,78.15,-915.03906,28.80859,399.90234,-0.046231154,-0.05862177,0.012390441425758144,60.15,24.75,12.6
-813.47656,135.74219,-577.63672,-0.064883662,-0.013056634,0.028511524,-15.6,30.15,14.1,-395.50781,19.53125,917.96875,-0.027445652,0.043833071,0.047297026,83.55,4.95,78.15,-917.48047,25.87891,392.08984,-0.013989338,-0.071278723,0.00039968,60.15,24.75,12.6
-810.05859,153.32031,-571.28906,-0.059554299,0.012790121824464847,0.036105626,-16.2,30.3,12.15,-377.44141,19.04297,926.26953,-0.045431793,0.040901965553412314,0.026646290756047828,83.55,4.95,78.15,-926.75781,29.29688,404.29687,0.002797937,-0.025713587,0.025713587,59.7,24.9,12.75
-810.54687,145.50781,-573.73047,-0.087532974,0.047163858,0.002131745,-16.2,30.3,12.15,-375.97656,7.32422,927.24609,-0.011058232,0.03317452,0.029977077100553806,83.55,4.95,78.15,-927.73437,20.01953,402.34375,0.002531426,-0.090863761,-0.0055957,59.7,24.9,12.75
-805.66406,150.87891,-569.33594,-0.078339976,0.047430369620497105,-0.083136315,-16.2,30.3,12.15,-379.39453,-1.46484,935.54687,0.008260294,0.044499264,-0.027045971,83.85,6.9,77.7,-929.19922,31.73828,416.50391,0.035439434,-0.057023048,0.003730467,59.7,24.9,12.75
-806.15234,139.64844,-570.80078,-0.05342575,0.052493046,-0.043833071,-16.2,30.3,12.15,-386.71875,-12.20703,931.15234,0.020117887,0.049961795,-0.012124104,83.85,6.9,77.7,-921.38672,27.34375,413.57422,0.015854571,-0.044499264,0.048362899,59.7,24.9,12.75
-813.47656,148.92578,-569.33594,-0.071012211,-0.002797937,0.001065873,-15,30.15,13.35,-381.34766,-10.74219,934.08203,0.049961795,0.077673784,-0.07967236,85.35,6.9,79.95,-921.875,26.85547,415.03906,0.1013889687751538,-0.078206808,0.063151597,60.9,24.75,13.35
-802.73437,130.85937,-575.19531,-0.030110246,-0.000666192,0.023315504,-15,30.15,13.35,-376.95312,-1.46484,938.47656,0.005462531,0.088065823,-0.092062802,85.35,6.9,79.95,-918.45703,26.85547,419.92187,0.078739657,-0.048096562,0.046764177,60.9,24.75,13.35
-810.05859,117.67578,-571.77734,0.013189976756096747,0.030376757499260505,-0.060487003,-14.55,31.65,14.4,-379.39453,-2.44141,936.52344,0.067148576,0.076341574,-0.093661524,84.75,7.05,78.6,-924.80469,23.4375,416.50391,0.088598847,-0.050894325,0.025846929958634426,60.6,22.95,13.65
-807.12891,125.97656,-578.125,-0.022782481,0.083269484,-0.005995381,-14.55,31.65,14.4,-384.27734,6.34766,934.57031,0.043033711,0.093928035,-0.04396624,84.75,7.05,78.6,-913.08594,20.50781,422.85156,0.11671051614671123,-0.041301646,0.014389017952216851,60.6,22.95,13.65
-816.89453,131.34766,-571.28906,-0.014522187,0.099124055,-0.07021285,-15,28.95,14.1,-370.11719,12.20703,930.66406,0.023182161256689485,0.017186780743163762,-0.066615552,84.75,7.05,78.6,-921.875,14.16016,424.31641,0.099257224,-0.031708967,0.062751917,59.25,23.85,12
-816.89453,123.04688,-583.49609,-0.008659975,0.038237371,-0.071145554,-15,28.95,14.1,-385.74219,15.13672,944.82422,0.038104203,0.039569755735365045,-0.118442581,84.75,7.05,78.6,-924.80469,22.46094,437.01172,0.13389747142280017,-0.012656953,0.056756536,59.25,23.85,12
-836.42578,122.07031,-587.40234,0.033973881087620825,-0.005462531,-0.030243414,-16.2,31.05,12.15,-369.62891,28.32031,937.01172,0.078339976,0.06461715,-0.130566685,83.85,5.7,78.9,-928.22266,33.20313,424.80469,0.13403064004472734,-0.036105626,0.052626389336609423,59.25,24.6,14.85
-831.05469,123.53516,-581.54297,0.039436413,0.015588059148336955,-0.036105626,-16.2,31.05,12.15,-360.83984,38.57422,950.19531,0.072211252,0.055823833,-0.101655481,83.85,5.7,78.9,-912.59766,29.29688,437.98828,0.12710255557893585,-0.105785628,0.085934078,59.25,24.6,14.85
-825.68359,130.85937,-580.07812,0.060886684,0.013456313999951081,-0.050894325,-16.2,31.05,12.15,-377.44141,40.52734,952.63672,0.034640073,0.10365388254546684,-0.073010788,84.75,6,78.3,-926.75781,34.66797,428.71094,0.12017464564606957,-0.063284766,0.031309286918601076,58.95,24.6,12.75
-817.87109,132.8125,-578.125,0.037438011,0.061419532641082054,0.022516143614128445,-16.2,31.05,12.15,-369.62891,65.91797,955.56641,0.051693685,0.060487003221741484,-0.07500919,84.75,6,78.3,-916.50391,35.64453,434.08203,0.17693100759167316,-0.035173097,0.051960197161123184,58.95,24.6,12.75
-821.28906,119.14063,-562.5,0.074742678,0.025447249559927724,-0.051160836,-17.4,30.15,13.35,-370.11719,41.50391,949.70703,0.089264865,0.074076486,-0.077940296,83.25,4.8,79.35,-917.96875,47.36328,446.28906,0.16733850348978713,-0.035306265,0.026512948,60.75,24.9,12.45
-832.51953,123.04688,-563.47656,0.076075062,0.018519165,-0.033307863,-17.4,30.15,13.35,-372.07031,48.33984,945.3125,0.05902145,0.079805529,-0.096459461,83.25,4.8,79.35,-905.76172,46.38672,441.40625,0.1728008604497538,-0.056490025,0.061686044,60.75,24.9,12.45
-817.87109,127.44141,-557.12891,0.10591879631577987,0.011457912006417574,0.009326167,-16.05,29.7,12.6,-369.14062,47.36328,951.66016,0.056090344,0.075275702,-0.076075062,84.45,4.5,77.55,-939.94141,45.89844,448.24219,0.18279321948327173,-0.017852973,0.040502285,60.75,24.9,12.45
-819.82422,130.85937,-566.40625,0.14122506175437316,0.004663171,-0.038503883,-16.05,29.7,12.6,-371.58203,40.03906,948.73047,0.043433391,0.11231385722801229,-0.107384349,84.45,4.5,77.55,-928.71094,35.15625,437.98828,0.2412818207114797,0.034906585,0.063551278,60.75,24.9,12.45
-816.89453,126.95313,-563.47656,0.1358958734163337,-0.022116463,-0.045032113,-16.8,29.4,13.65,-385.25391,29.78516,953.125,0.064084301,0.092728994,-0.162142484,84,4.5,78,-914.55078,43.94531,447.26562,0.25114083659014524,0.006528404,0.024514545607661954,61.2,25.5,12.3
-819.82422,124.02344,-555.17578,0.1260366830047429,0.05902145,-0.08060489,-16.8,29.4,13.65,-369.62891,32.22656,956.05469,0.020384398,0.080471721,-0.11724354,84,4.5,78,-908.20312,40.03906,434.08203,0.2800520411165061,-0.04263403,0.053825431,61.2,25.5,12.3
-803.22266,122.55859,-555.66406,0.098591031,0.010525208054151804,-0.085667741,-16.8,29.4,13.65,-366.21094,21.97266,956.54297,0.034373736019252726,0.10605213947063225,-0.11377941,86.25,5.25,78,-912.10937,47.85156,437.5,0.2603338348262498,-0.025180738,0.060753515,61.2,25.5,12.3
-805.17578,117.67578,-554.19922,0.12030781426799673,0.018119485,-0.01638742,-16.8,29.4,13.65,-364.74609,36.62109,930.17578,0.034506905,0.1204409828899239,-0.124970985,86.25,5.25,78.6,-927.24609,59.08203,441.89453,0.3050996102777272,-0.003330786,0.044632432,61.2,25.5,12.3
-816.40625,99.60938,-552.73437,0.173467053,0.011857592405124276,-0.016254251,-16.8,29.4,13.65,-364.74609,19.04297,936.03516,0.067015233,0.12696938695700868,-0.127102556,86.25,5.25,78.6,-917.96875,37.59766,440.91797,0.3333446226286018,-0.009192998,-0.012390441,61.2,25.5,12.3
-808.59375,118.65234,-568.84766,0.16813786428720054,0.024381376985734785,-0.015588059,-15.9,29.85,13.2,-365.23437,39.0625,948.24219,0.059554299,0.10551911591707318,-0.146954105,86.25,5.25,78.6,-915.52734,55.66406,440.91797,0.32734924211507604,0.012656953202537678,0.034373736019252726,59.4,24.3,13.65
-805.66406,118.16406,-551.26953,0.15055122861240486,-0.008127126,-0.028245012,-15.9,29.85,13.2,-366.69922,32.71484,971.19141,0.050228132,0.1317657262744143,-0.13443032,86.25,5.25,78.6,-918.94531,65.91797,439.45312,0.3058989710751406,0.014655355196071187,0.017453292519943295,59.4,24.3,13.65
-807.12891,100.58594,-557.12891,0.1337641282679478,0.036105626,-0.02158344,-15.9,30.3,13.95,-370.60547,21.48438,953.61328,0.083535996,0.074742678,-0.128568109,84.6,6.9,79.2,-896.48437,62.01172,444.82422,0.3718483312568487,-0.010924888,0.047963219,60,24.6,13.05
-814.94141,107.42188,-552.24609,0.11711019654541792,-0.012656953,-0.05475796,-15.9,30.3,13.95,-363.76953,29.29688,930.66406,0.11084847878803786,0.044365921,-0.148552827,84.6,6.9,79.2,-903.32031,71.77734,441.40625,0.3181562438789715,0.061686044,0.047430369620497105,60,24.6,13.05
-820.80078,117.1875,-544.92187,0.12297240843701647,0.017586461141870464,-0.067148576,-15.3,28.2,14.1,-356.44531,58.59375,968.26172,0.055557495,0.057289385,-0.15001838,84.6,4.65,76.35,-909.66797,69.33594,437.98828,0.29603978066354975,0.037438011,-0.017852973,58.95,23.85,12.75
-819.82422,113.28125,-554.6875,0.15374884633498367,0.043833071,-0.052892727,-15.3,28.2,14.1,-350.09766,45.89844,945.3125,0.10485292374158693,0.057955578,-0.166006119,84.6,4.65,76.35,-911.62109,59.57031,432.12891,0.30669833187255396,0.028378181,0.091663122,58.95,23.85,12.75
-821.28906,120.11719,-550.78125,0.16400771714528115,-0.056756536,0.029577396701847107,-16.8,30.15,13.65,-353.02734,57.12891,974.12109,0.085667741,0.076208231,-0.216500763,85.5,5.25,78.6,-902.34375,82.03125,430.66406,0.32974732450731625,0.026912627999902163,0.068347617,60.15,24,14.7
-821.77734,108.88672,-545.89844,0.18545781365229144,-0.018385996,0.026779459377974997,-16.8,30.15,13.65,-356.44531,58.10547,969.72656,0.094061204,0.074476341,-0.204110322,85.5,5.25,78.6,-903.80859,78.61328,427.73437,0.29350835511645723,0.059287962,0.004263316,60.15,24,14.7
-805.66406,102.05078,-554.6875,0.14655442462533785,-0.03144263,0.023848353432175718,-16.8,30.15,13.65,-354.98047,64.45313,946.77734,0.070079682,0.076474743,-0.186257349,85.5,5.25,78.6,-902.34375,77.14844,420.89844,0.27805363912297265,0.020251229843815406,0.067281745,60.15,24,14.7
-807.61719,114.25781,-529.78516,0.13309793609246157,0.002931106,0.010258871,-16.8,30.15,13.65,-365.72266,68.35938,933.59375,0.073143956,0.1033873707686873,-0.193451771,85.5,5.25,78.6,-888.67187,78.61328,439.45312,0.341338405,0.022649312236055614,0.056889705,60.15,24,14.7
-804.19922,110.83984,-540.03906,0.15774582485497587,0.021050590641228807,-0.005329188,-15.6,29.7,13.65,-369.14062,62.01172,928.22266,0.070079682,0.13269825569375487,-0.211038232,84.45,4.8,78.3,-898.4375,78.125,434.57031,0.2881791667784177,0.063684446,0.035572777,61.05,25.35,12.75
-804.19922,95.70313,-537.10937,0.16280850141623585,0.023848353432175718,-0.030243414,-15.6,29.7,13.65,-360.35156,73.73047,936.03516,0.065683023,0.097791671,-0.182526882,84.45,4.8,78.3,-883.78906,78.61328,433.10547,0.34080555611502716,0.007727445,0.065016831,61.05,25.35,12.75
-805.66406,101.5625,-544.43359,0.23368754407020198,-0.056090344,0.089931057,-14.25,28.65,14.4,-347.16797,88.37891,942.87109,0.052359878,0.12417144963313657,-0.191986218,85.35,4.95,78.9,-902.34375,87.40234,436.52344,0.3461347444530666,0.059421130647548545,0.07500919,61.05,25.35,12.75
-804.19922,102.05078,-533.20312,0.20704142784707935,-0.046231154,0.039169901,-14.25,28.65,14.4,-357.42187,91.30859,945.3125,0.07021285,0.16520675834140125,-0.178663072,85.35,4.95,78.9,-888.67187,101.07422,432.61719,0.35292948576400573,0.015055210127703087,0.090996929,61.05,25.35,12.75
-801.75781,99.60938,-547.85156,0.16907039370654112,-0.017186781,0.082070443,-15.9,29.85,14.55,-360.35156,82.03125,939.94141,0.042367519,0.1548147189091766,-0.142690615,85.35,4.95,78.9,-896.97266,92.77344,428.22266,0.3563936152633641,0.030909606519894377,0.016254251,59.4,24,12.3
-809.08203,112.79297,-540.52734,0.1252373222073295,0.011324568851565207,0.006128724,-15.9,29.85,14.55,-369.14062,81.54297,939.94141,0.054624791,0.16547327011818078,-0.138693636,85.35,4.95,78.9,-894.53125,104.98047,433.59375,0.3538621897162715,0.020517567,0.074476341,59.4,24,12.3
-812.98828,101.5625,-543.45703,0.11218068860608514,-0.026379779,-0.050494644,-16.2,29.25,14.25,-359.375,83.00781,939.45312,0.043833071,0.12790191637634926,-0.173866733,84.75,3.75,78.3,-882.32422,99.60938,445.3125,0.34107189335888144,-0.008526806,0.083802508,57.9,24.9,12.45
-814.45312,110.35156,-542.96875,0.15654678365885577,-0.002931106,-0.027845332,-16.2,29.25,14.25,-358.39844,84.47266,941.40625,0.044232752,0.11471211415317771,-0.161875972,84.75,3.75,78.3,-899.41406,92.28516,432.12891,0.28031855289328567,0.056490025,0.089131696,57.9,24.9,12.45
-817.38281,103.51563,-546.38672,0.1496186991930643,-0.023448673,-0.002931106,-16.2,29.25,14.25,-363.28125,94.23828,930.66406,0.030110245722480975,0.1945176432664688,-0.138160787,84,4.05,77.55,-890.625,104.49219,431.64062,0.28711329420422477,0.04822973,0.05302607,60,25.35,14.1
-810.54687,94.23828,-554.19922,0.19238589811808296,-0.040502285,0.03317452,-16.2,29.25,14.25,-362.30469,74.21875,933.10547,0.026779459377974997,0.2050428513206206,-0.121640199,84,4.05,77.55,-893.06641,112.30469,423.33984,0.3184225811228259,0.037304667,0.04396624,60,25.35,14.1
-815.42969,109.375,-556.15234,0.182393539,-0.060487003,0.033973881087620825,-16.8,28.65,13.05,-372.07031,60.05859,932.12891,0.002797937,0.21543489075284528,-0.148819338,84.45,3.75,77.55,-908.20312,111.81641,426.26953,0.2863139334068114,0.054891303,0.037304667,58.8,25.5,13.95
-818.35937,106.93359,-561.52344,0.14122506175437316,0.021183759263155976,-0.023315504,-16.8,28.65,13.05,-388.67187,90.33203,936.52344,0.010791719830931338,0.22782550671152862,-0.11857575,84.45,3.75,77.55,-901.36719,113.28125,428.22266,0.29057742370358314,0.08580091,0.076474743,58.8,25.5,13.95
-812.5,83.49609,-544.92187,0.10898307088350632,0.001598722,-0.013855994,-15.3,30.15,13.65,-397.46094,86.42578,937.98828,0.002931106,0.21516837897606572,-0.132831599,84.45,3.75,77.55,-900.39062,124.02344,439.94141,0.27498919,0.068081105,0.004663171,58.8,25.5,13.95
-822.75391,86.42578,-550.78125,0.1228392398150893,-0.037171499,-0.021716608,-15.3,30.15,13.65,-395.50781,78.61328,957.03125,-0.009326167,0.1540153581117632,-0.125637003,84.45,3.75,77.55,-894.04297,129.88281,437.01172,0.2343537362456882,0.043300222,0.022915824012835147,61.65,25.5,12.9
-812.01172,90.33203,-554.19922,0.18758955880067732,-0.077274104,0.010658551,-15.15,29.55,12.15,-394.53125,95.21484,956.54297,-0.037704522,0.1281684281531288,-0.127502236,83.25,5.25,75.75,-902.83203,140.625,429.6875,0.2279586753334558,0.092595651,0.068880466,61.65,25.5,12.9
-816.89453,82.03125,-559.08203,0.18385909205746465,-0.058754938,0.000932704,-15.15,29.55,12.15,-354.98047,73.24219,960.9375,-0.055823833,0.1605435876459228,-0.11897543,83.25,5.25,75.75,-912.10937,148.4375,434.57031,0.24034911675921392,0.12710255557893585,0.017986141540577164,60.75,24.9,12.45
-827.14844,86.42578,-550.78125,0.16533992696332844,-0.033041352,0.008260294,-15.15,29.55,12.15,-366.21094,83.00781,941.40625,0.005062851,0.1978484296109748,-0.097925014,84.15,4.2,77.1,-916.50391,136.71875,421.38672,0.23635213823922172,0.040102605,0.011457912006417574,60.75,24.9,12.45
-815.91797,79.58984,-546.38672,0.11937511031573096,0.011724423783197109,-0.08660027,-15.15,29.55,12.15,-389.16016,84.47266,928.71094,-0.015588059,0.23488675979924725,-0.136695234,84.15,4.2,77.1,-905.27344,151.85547,410.64453,0.23408722446890867,0.062751917,0.072744276,60.75,24.9,12.45
-828.125,72.75391,-549.31641,0.11244720038286467,0.015188378749630253,-0.061952556,-15,29.4,15.15,-399.41406,90.82031,928.71094,-0.031309287,0.1458882324498516,-0.114045922,85.35,4.65,76.65,-892.08984,156.25,431.64062,0.22129710264444383,0.055557495,0.060886684,60.75,24.9,12.45
-808.10547,67.87109,-559.57031,0.13962634015954636,-0.0111914,-0.028245012,-15,29.4,15.15,-382.32422,92.77344,963.86719,-0.052759558,0.10698466888997281,-0.087133294,85.35,4.65,76.65,-906.25,154.29687,433.59375,0.20917299846254003,0.039702924,-0.00519602,60,24.9,12.75
-814.45312,65.42969,-548.33984,0.13616238519311322,-0.073410468,-0.033707544,-15.9,29.85,13.95,-380.37109,89.84375,965.82031,-0.103920394,0.098591031,-0.062751917,85.35,4.65,76.65,-916.50391,161.62109,418.45703,0.17693100759167316,0.057822409,0.049961795,60,24.9,12.75
-824.70703,73.24219,-561.52344,0.1771975193684527,-0.060753515,-0.025580418,-15.9,29.85,13.95,-390.625,88.37891,956.54297,-0.049828452,0.09046408,-0.104719755,85.5,3.75,77.25,-910.15625,147.94922,419.92187,0.1877227274226045,0.05862177,0.041434989,61.2,24.75,11.85
-828.125,80.07813,-561.52344,0.17426641342265342,-0.082603292,-0.015588059,-15.3,27.9,13.05,-390.13672,74.21875,954.10156,-0.060487003,0.10951609443706539,-0.040102605,85.5,3.75,77.25,-920.89844,149.90234,416.99219,0.1795957762936181,0.11471211415317771,0.075941894,61.2,24.75,11.85
-817.87109,90.82031,-557.12891,0.15308265415949743,-0.003197618,-0.067947937,-15.3,27.9,13.05,-398.92578,82.51953,950.19531,-0.067548256,0.10964926305899256,-0.05302607,85.65,3.15,77.7,-939.94141,149.41406,395.01953,0.162275652,0.13309793609246157,-0.015721228,60.3,24.15,12
-825.19531,67.87109,-558.59375,0.1366952342137471,-0.050761156,-0.018519165,-15,28.65,14.4,-406.25,96.19141,941.89453,-0.092728994,0.10058960797774039,-0.069946339,85.65,3.15,77.7,-919.43359,137.20703,399.90234,0.164540566,0.1418912539298594,0.018519165,60.3,24.15,12
-823.73047,83.49609,-562.5,0.1260366830047429,-0.03663865,-0.049961795,-15,28.65,14.4,-395.50781,84.47266,928.71094,-0.116843859,0.051027493,-0.005862212,84.45,4.05,76.2,-913.08594,150.87891,406.25,0.16307501319301537,0.061552876,0.015321547371557422,58.95,25.65,12
-815.91797,88.86719,-549.31641,0.14948553057113714,-0.059820811,0.033441032,-15,28.65,14.4,-397.94922,74.21875,914.0625,-0.102321673,0.055823833,-0.013456314,84.45,4.05,76.2,-924.31641,154.78516,415.52734,0.13229857529504815,0.066615552,0.045431793,58.95,25.65,12
-827.14844,75.68359,-565.42969,0.12696938695700868,-0.083935676,0.019052014,-15,28.65,14.4,-426.26953,71.28906,917.96875,-0.079539017,0.033441032,-0.05475796,84.45,4.05,76.2,-922.36328,147.94922,403.32031,0.1200413024912172,0.086999951,0.010658551,60,26.7,11.7
-834.96094,84.47266,-568.84766,0.11990813386929003,-0.08486838,0.013722825776730615,-15,28.65,14.4,-400.39062,59.57031,924.80469,-0.088998527,0.039569755735365045,-0.023715185,84.45,4.05,76.2,-924.80469,135.74219,394.04297,0.11124815918674456,0.044898944,0.042767199,60,26.7,11.7
-819.82422,78.125,-569.33594,0.068214448,-0.013589657,0.031176118,-16.2,29.55,15.3,-410.15625,73.73047,943.35937,-0.114978626,0.064750319,-0.020917247,85.65,3.45,78.15,-929.6875,111.32813,405.76172,0.15161710118659782,0.053692262,0.034906585,59.85,25.05,11.55
-836.91406,84.47266,-594.23828,0.046097985,0.031176118,-0.011724424,-16.2,29.55,15.3,-418.45703,69.82422,940.42969,-0.059820811,0.070612531,-0.030110246,85.65,3.45,78.15,-930.17578,125,426.75781,0.20131238457740794,0.088732016,0.023715184810248553,59.85,25.05,11.55
-823.73047,85.44922,-582.51953,0.036904987,-0.043433391,0.019052014,-14.4,28.5,13.95,-430.66406,55.66406,924.80469,-0.069680001,0.10551911591707318,-0.039969436,85.35,3.15,76.35,-926.26953,116.21094,409.66797,0.17026943490266122,0.085268061,0.04956194,59.85,25.05,11.55
-827.14844,92.28516,-576.66016,0.061686044,-0.070612531,0.030776438,-14.4,28.5,13.95,-430.17578,73.24219,914.0625,-0.072211252,0.057422729,-0.008526806,85.35,3.15,76.35,-925.29297,111.32813,406.25,0.15508123068595617,0.034640073,0.03104295,59.85,25.05,11.55
-829.10156,82.51953,-588.86719,0.085134717,-0.044632432,0.041035309,-15.15,27.75,12.9,-437.5,89.35547,931.64062,-0.082603292,0.12710255557893585,-0.018652334,85.05,3,76.95,-926.26953,106.44531,417.48047,0.16693882309108043,0.076474743,0.057023048,59.4,24.75,11.25
-805.17578,94.72656,-572.75391,0.056889705,-0.068480786,0.034640073,-15.15,27.75,12.9,-422.36328,65.91797,932.12891,-0.121773367,0.068747298,-0.038104203,85.05,3,76.95,-938.96484,111.32813,417.96875,0.12803525953120162,0.04396624,0.039569755735365045,59.4,24.75,11.25
-813.47656,109.86328,-578.125,0.036105626,-0.019718206,0.015721227770264124,-14.4,28.05,12.9,-427.73437,56.64063,960.9375,-0.092995331,0.05902145,-0.003730467,85.05,3,76.95,-939.45312,105.95703,416.50391,0.12057432604477626,0.069280321,0.047830050019203804,59.4,24.75,11.25
-833.98437,102.53906,-569.33594,-0.012523785,-0.004796339,-0.016920443,-14.4,28.05,12.9,-427.73437,60.05859,953.61328,-0.081137739,0.057689065897869374,0.015721227770264124,85.05,3,76.95,-928.71094,114.25781,421.38672,0.11444560237639817,0.12683621833508152,0.061019852,59.4,24.75,11.25
-815.42969,93.75,-581.05469,-0.027445652,-0.038503883,-0.027445652,-14.4,28.05,12.9,-421.875,58.59375,937.98828,-0.068214448,0.028111843728947466,-0.033574201,86.25,3,77.25,-916.50391,95.21484,427.24609,0.11724353970027028,0.16533992696332844,0.057156217,59.4,24.75,11.25
-817.38281,93.75,-570.80078,-0.017053612,-0.067281745,0.043300222,-14.4,28.05,12.9,-428.71094,58.10547,939.94141,-0.090597249,0.049695283,-0.002398082,86.25,3,77.25,-942.38281,100.09766,422.85156,0.15667995228078296,0.17613164679425974,-0.005862212,58.5,24.9,12
-825.68359,96.19141,-567.38281,-0.002531426,-0.068214448,0.009992359,-16.2,28.05,14.55,-413.57422,54.6875,926.26953,-0.121906536,0.015721227770264124,0.012257272803830977,85.95,4.65,77.1,-932.12891,91.30859,401.85547,0.16120977982140902,0.12590351438281575,0.015055210127703087,58.5,24.9,12
-824.21875,88.86719,-570.80078,-0.012124104,-0.094860565,0.050494644,-16.2,28.05,14.55,-406.25,48.33984,938.47656,-0.13962634,0.007993957,-0.030643269,85.95,4.65,77.1,-951.66016,115.72266,416.01562,0.14415616770017245,0.10551911591707318,0.030376757499260505,58.2,23.85,10.95
-830.07812,86.91406,-566.89453,-0.022249632,-0.061419533,-0.006661573,-15.15,28.8,14.55,-415.03906,49.31641,916.01562,-0.094061204,0.048496242194690044,-0.013855994,85.95,4.65,77.1,-931.64062,124.02344,414.0625,0.1706692898342931,0.05435828,0.008393637,58.2,23.85,10.95
-824.70703,88.37891,-569.82422,-0.089131696,-0.010525208,-0.002931106,-15.15,28.8,14.55,-410.15625,61.03516,935.05859,-0.073810149,0.001998402,-0.028245012,85.95,4.65,77.1,-932.61719,112.79297,419.43359,0.14508887165243822,0.094860565,-0.005462531,60.75,24.6,11.4
-833.98437,80.07813,-569.33594,-0.059687642,0.030110245722480975,0.013722825776730615,-15.15,28.05,15.3,-411.62109,54.19922,940.42969,-0.074076486,0.024514545607661954,-0.003863635,84.9,2.7,77.1,-928.22266,132.32422,428.71094,0.13629555381504038,0.10805054146416575,-0.003330786,60.75,24.6,11.4
-835.9375,75.68359,-561.52344,-0.071145554,-0.060620172,0.028911205,-15.15,28.05,15.3,-419.92187,33.20313,936.03516,-0.110715136,0.011990761027051442,-0.053692262,84.9,2.7,77.1,-900.87891,120.60547,433.10547,0.17173498787556082,0.1966493884148547,0.020517567,60,23.4,11.4
-831.54297,83.49609,-562.01172,-0.019585038,-0.046764177,0.021183759263155976,-15.15,28.05,15.3,-410.15625,49.31641,945.3125,-0.073810149,0.001865233,0.009592679,84.75,4.05,77.25,-918.94531,124.02344,434.08203,0.1601439072472161,0.19598319623936847,0.030110245722480975,60,23.4,11.4
-828.125,79.10156,-544.92187,-0.03184231,-0.06381779,0.008260294,-15.15,28.05,15.3,-421.875,50.78125,946.77734,-0.101921818,-0.027312483,-0.024114865,84.75,4.05,77.25,-936.03516,124.51172,435.05859,0.1807948174897382,0.20610872389481358,0.021183759263155976,60,23.4,11.4
-823.24219,96.19141,-545.89844,-0.064750319,0.023582016188321384,0.020917247,-15.15,28.05,12.45,-418.94531,54.19922,942.87109,-0.050228132,-0.057955578,-0.039436413,84.9,3.9,76.05,-924.31641,145.50781,404.78516,0.18559115680714383,0.17360022124716717,-0.005995381,60,23.4,11.4
-820.80078,102.05078,-537.10937,-0.083802508,-0.009992359,-0.0167871,-15.15,28.05,12.45,-395.50781,66.40625,945.80078,-0.079272506,-0.032508503,-0.039702924,84.9,3.9,76.05,-930.17578,104.98047,387.69531,0.1957166844625889,0.2165007633270382,-0.033973881,58.95,24.15,10.95
-820.3125,100.58594,-546.38672,-0.094194547,-0.001065873,-0.0167871,-16.2,27,14.55,-389.64844,45.41016,967.28516,-0.107517692,-0.039569756,-0.05995398,84.9,3.9,76.05,-919.92187,111.81641,379.39453,0.20451000229998678,0.22196329481993007,-0.027312483,58.95,24.15,10.95
-817.38281,113.28125,-527.83203,-0.080338378,-0.019851375,-0.037304667,-16.2,27,14.55,-381.34766,45.41016,942.87109,-0.057689066,-0.052493046,0.007727445,84.9,3.9,76.05,-930.17578,137.20703,395.01953,0.1841256038342442,0.2813844254674786,0.012656953202537678,58.95,24.15,10.95
-814.45312,108.88672,-531.25,-0.071811572,-0.030110246,0.082336955,-15,28.65,12.6,-407.71484,50.29297,934.08203,-0.033441032,-0.059421131,-0.023048993,84.45,3.75,77.25,-926.26953,98.14453,385.74219,0.182393539,0.2496752836172456,-0.054491623,58.95,24.15,10.95
-808.59375,114.74609,-527.34375,-0.056090344,-0.033574201,0.039036732,-15,28.65,12.6,-374.02344,32.22656,933.59375,-0.021849951,-0.068081105,0.023582016188321384,84.45,3.75,77.25,-914.0625,119.14063,394.53125,0.1446891912537315,0.230356758,0.005062851,60.6,25.5,10.5
-812.5,121.09375,-522.94922,-0.047563538,-0.031176118,-0.013056634,-15.15,28.05,12.15,-379.39453,18.55469,939.45312,-0.074742678,-0.042900542,0.031575798695380616,85.95,3.45,76.65,-921.38672,121.58203,395.50781,0.16587295051688747,0.29537358848806355,0.000932704,60.6,25.5,10.5
-808.10547,118.16406,-534.17969,-0.109915775,0.059421130647548545,-0.07500919,-15.15,28.05,12.15,-381.34766,20.01953,932.61719,-0.035572777,-0.086333759,-0.024381377,85.95,3.45,76.65,-925.29297,106.44531,385.74219,0.1901209843477699,0.3189556046763849,-0.043833071,59.4,26.55,9.75
-805.17578,111.32813,-531.73828,-0.107251181,0.012656953202537678,-0.076741255,-15.15,28.05,12.15,-384.27734,11.71875,925.78125,-0.02544725,-0.018385996,-0.043699903,84.9,3.15,76.05,-909.66797,97.65625,364.25781,0.13469683222021359,0.2836493392377916,-0.045165456,59.4,26.55,9.75
-820.80078,110.35156,-530.27344,-0.134830001,0.042101007,-0.057023048,-15.15,28.05,12.15,-375.48828,26.85547,945.80078,-0.037837691,-0.050761156,-0.016520589,84.9,3.15,76.05,-915.03906,106.44531,363.76953,0.17386673302394673,0.3021685043319279,-0.013456314,58.8,25.5,9.75
-814.94141,104.98047,-542.96875,-0.058088746,0.025580418,0.034640073,-15.6,28.65,12.6,-403.80859,13.18359,951.17187,-0.057156217,-0.047297026,-0.033041352,84.9,3.15,76.05,-918.94531,105.95703,355.46875,0.2067749160702998,0.2809847450687719,-0.036904987,58.8,25.5,9.75
-830.07812,90.33203,-533.20312,-0.094194547,0.011724423783197109,0.023182161256689485,-15.6,28.65,12.6,-381.83594,17.57813,922.85156,-0.068347617,-0.163874374,-0.021050591,85.05,3,76.5,-935.54687,81.05469,363.76953,0.22236297521863677,0.17386673302394673,-0.036771818,60.3,25.35,9.9
-831.54297,102.05078,-540.03906,-0.072477764,0.030643269276040042,0.051827029,-16.05,28.95,13.35,-357.42187,-3.90625,955.07812,-0.052892727,-0.137228258,-0.014921867,85.05,3,76.5,-902.83203,61.03516,384.76562,0.22289582423927062,0.16440739754398787,-0.060087323,60.3,25.35,9.9
-829.58984,97.65625,-543.45703,-0.111514496,0.024781057384441488,-0.034107224,-16.05,28.95,13.35,-367.67578,-7.8125,955.07812,-0.053825431,-0.111781008,-0.068880466,85.5,3.75,76.95,-904.29687,57.12891,392.57812,0.21223744756319168,0.085667741,-0.008659975,58.5,25.35,9.9
-828.125,86.42578,-545.89844,-0.131898895,0.074209829,-0.023315504,-15.9,28.5,12.9,-374.51172,-15.13672,919.92187,-0.000266512,-0.021716608,-0.019185357,85.5,3.75,76.95,-883.78906,86.42578,388.67187,0.20730776509093368,0.18066147433488583,-0.012656953,58.5,25.35,8.85
-826.66016,76.66016,-554.6875,-0.125770346,0.046497666,-0.057422729,-15.9,28.5,12.9,-379.88281,16.60156,926.26953,-0.010258871,-0.070346019,-0.07021285,84.6,3.15,77.1,-892.57812,57.12891,391.11328,0.2314226302998889,0.250474644,-0.040235773,58.5,25.35,8.85
-826.17187,86.42578,-541.99219,-0.091529778,-0.046497666,-0.003730467,-15.15,28.05,13.2,-384.27734,-7.8125,920.89844,-0.060220491,-0.034773416,-0.068081105,84.6,3.15,77.1,-910.15625,100.09766,376.46484,0.23981626773858006,0.23222199109730232,-0.035439434,59.25,24.6,8.85
-835.9375,94.72656,-551.26953,-0.025180738,-0.030776438,0.012923464979317213,-15.15,28.05,13.2,-391.60156,11.23047,928.22266,-0.016653932,-0.050228132,-0.102454841,84.6,3.15,77.1,-912.59766,77.63672,375,0.2131699769825322,0.18092798611166538,-0.026113267,59.25,24.6,8.85
-829.58984,106.44531,-550.78125,-0.013855994,-0.023048993,0.017986141540577164,-15.15,28.05,13.2,-379.39453,25.39063,954.58984,0.000932704,-0.050228132,-0.048762579,84.6,3.15,77.1,-930.66406,102.05078,398.92578,0.1545482071323971,0.16427405438913548,-0.057689066,59.25,24.6,8.85
-811.52344,86.42578,-546.875,-0.118442581,0.056223513,-0.017186781,-16.35,29.4,12.6,-412.10937,19.53125,970.70312,-0.075675382,-0.067415088,-0.049961795,85.95,2.7,77.4,-928.71094,104.00391,417.96875,0.15814550525368262,0.059421130647548545,-0.008926486,59.25,24.6,8.85
-833.98437,117.1875,-547.85156,-0.082736635,0.017453292519943295,-0.029577397,-16.35,29.4,12.6,-374.51172,10.25391,959.47266,-0.077807127,-0.06941349,-0.034506905,85.95,2.7,77.4,-901.36719,99.12109,420.41016,0.19598319623936847,0.08060489,-0.024514546,59.1,24.75,9.75
-835.44922,96.19141,-553.22266,-0.022249632,0.061019852,-0.040502285,-16.05,28.65,13.05,-379.88281,7.8125,961.42578,-0.047163858,-0.03837054,-0.051560517,84.9,2.4,76.35,-909.66797,116.21094,418.45703,0.18305973126005126,0.05862177,-0.012390441,59.1,24.75,9.75
-832.03125,109.375,-547.36328,-0.009459335,-0.023315504,0.032108648,-16.05,28.65,13.05,-381.34766,35.64453,967.28516,-0.041568158,-0.051294005,-0.065816192,84.9,2.4,76.35,-905.76172,134.76562,407.22656,0.18106132926651775,0.1163108357480045,-0.03104295,58.35,24.3,10.8
-823.73047,87.89063,-533.20312,-0.016520589,-0.018519165,0.020117887,-15.6,28.2,13.35,-394.04297,22.46094,972.65625,-0.076874423,-0.041301646,-0.100722777,85.8,4.05,78,-921.38672,146.97266,422.85156,0.18505813325358475,0.21303680836060507,0.025313906405075356,58.35,24.3,10.8
-807.12891,106.44531,-530.27344,-0.022249632,0.013855994398657782,-0.012257273,-15.6,28.2,13.35,-389.64844,32.71484,951.17187,-0.073810149,-0.122173048,-0.085667741,85.8,4.05,78,-918.94531,122.55859,399.90234,0.18479179600973042,0.2468775208262987,0.036105626,59.25,24.9,10.35
-813.96484,109.86328,-530.27344,-0.050094964,0.047030689,-0.032641671,-16.05,28.95,14.1,-383.30078,34.66797,942.87109,-0.042767199,-0.105252604,-0.06941349,85.8,4.05,78,-915.52734,174.31641,420.89844,0.1991806394290221,0.23768452259019418,-0.017186781,59.25,24.9,10.35
-820.3125,111.81641,-541.01562,-0.050761156,0.004130147,-0.029177716,-16.05,28.95,14.1,-380.37109,32.71484,954.10156,-0.021316928,-0.082470123,-0.079405849,85.8,4.05,78,-933.10547,155.27344,408.20312,0.21103823183414636,0.19824811000968148,-0.05475796,60.9,22.95,9.75
-807.12891,98.63281,-537.59766,-0.05435828,-0.001865233,-0.083935676,-16.05,28.95,14.1,-392.57812,13.18359,953.125,-0.03277484,-0.066882064,-0.07967236,85.35,1.65,77.7,-918.45703,159.66797,401.85547,0.2105053828135125,0.20051302377999455,0.007594102,60.9,22.95,9.75
-801.75781,96.19141,-551.26953,-0.001332384,-0.004263316,-0.05302607,-16.05,28.95,14.1,-371.09375,24.41406,942.87109,-0.039969436,-0.052493046,-0.088732016,85.35,1.65,77.7,-916.99219,171.38672,404.78516,0.20730776509093368,0.2668622388933346,-0.001199041,59.25,24.6,9.3
-801.26953,98.63281,-547.85156,0.001199041,-0.015188379,-0.013056634,-17.55,28.5,13.95,-376.95312,20.99609,943.35937,-0.057955578,-0.079539017,-0.119508453,85.8,3.3,78,-915.03906,156.73828,400.39062,0.2488759228198322,0.3222863910208909,0.038637052,59.25,24.6,9.3
-826.17187,97.16797,-540.52734,0.004529828,-0.018785677,0.036771818,-17.55,28.5,13.95,-383.78906,-12.20703,946.28906,-0.004263316,-0.055823833,-0.12976715,85.8,3.3,78,-926.26953,165.03906,416.50391,0.20864014944190615,0.3041669063254614,-0.006261892,58.95,24.15,8.85
-797.85156,102.53906,-549.31641,-0.024248034,-0.002531426,-0.094061204,-16.35,28.65,13.05,-367.67578,9.27734,939.45312,-0.022915824,-0.08486838,-0.078073464,85.8,3.3,78,-925.78125,148.4375,409.66797,0.19598319623936847,0.3140260967370522,-0.022516144,58.95,24.15,8.85
