IMU1_AccX,IMU1_AccY,IMU1_AccZ,IMU1_GyrX,IMU1_GyrY,IMU1_GyrZ,IMU1_MagX,IMU1_MagY,IMU1_MagZ,IMU2_AccX,IMU2_AccY,IMU2_AccZ,IMU2_GyrX,IMU2_GyrY,IMU2_GyrZ,IMU2_MagX,IMU2_MagY,IMU2_MagZ,IMU3_AccX,IMU3_AccY,IMU3_AccZ,IMU3_GyrX,IMU3_GyrY,IMU3_GyrZ,IMU3_MagX,IMU3_MagY,IMU3_MagZ
-607.91016,47.36328,-792.48047,-0.03064326927604,0.04849624219469,-0.0159877395470436,-26.25,30.15,9.6,-657.71484,13.67187,778.80859,0.042900542079871,0.0315757986953806,-0.0631515973907612,93.0,3.3,65.85,-992.1875,54.6875,-144.04297,0.0556906639043358,-0.0161209081689708,-0.0285115241276541,50.55,22.2,-18.15
-596.19141,41.01563,-786.13281,-0.0154548905264097,0.0211837592631559,0.0219831200605693,-27.0,28.95,9.6,-647.46094,11.71875,776.85547,0.0186523337160634,0.0660827033365605,-0.0149218669728507,93.0,4.5,65.55,-992.67578,55.17578,-141.60156,0.0766079113907123,0.0330413516682802,0.0090596550812521,50.55,22.2,-18.15
-595.70312,58.59375,-786.62109,-0.0446324322966249,0.0359724576140795,0.0137228257767306,-27.75,30.15,10.2,-660.15625,26.36719,780.76172,0.0377045223637587,0.040235773377926,-0.0337075438437664,93.3,3.15,66.0,-1012.20703,57.12891,-151.85547,0.0520933657830503,0.0355727772153728,0.0242480338308824,50.25,23.85,-16.95
-588.86719,50.29297,-789.0625,-0.0448989440734045,0.0854012292281101,-0.0378376909856858,-25.95,29.7,12.0,-646.97266,27.83203,782.71484,0.015055210127703,0.0566231933236764,-0.0310429496747467,93.45,4.05,64.35,-1007.32422,73.24219,-141.11328,0.085934078248744,0.0221164632154217,0.0321086477160144,51.9,22.95,-16.5
-590.33203,48.82813,-784.17969,0.0250473946282958,0.0129234649793172,0.0205175670876697,-26.85,30.6,9.75,-650.39062,35.64453,774.90234,0.052493046181757,0.0771409349442713,0.0199847180670358,91.95,3.3,66.6,-989.25781,71.77734,-144.04297,0.068614128883653,-0.006128723668378,0.0215834396618626,50.85,22.2,-16.8
-595.21484,48.33984,-784.17969,0.0117244237831971,0.0431668793237253,0.0476967068643514,-26.85,30.6,9.75,-641.11328,53.22266,788.08594,0.0002665117767795,0.0643506385868813,-0.0031976177225788,91.95,3.3,66.6,-999.02344,65.42969,-151.36719,0.1139127533557643,-0.0018652333716063,0.0238483534321757,51.15,22.5,-17.1
-587.89062,58.10547,-777.83203,-0.0401026047559989,0.0578224090527217,-0.0191853572696224,-27.0,30.9,10.95,-632.8125,55.17578,786.62109,-0.0023980823922402,0.0262466103573411,-0.0073277648644981,93.6,2.4,65.7,-987.79297,49.31641,-137.20703,0.0772741035661985,0.0031976177225788,0.0471638578437175,51.15,22.5,-17.1
-604.98047,60.05859,-789.55078,0.0154548905264097,0.0391699008037331,0.0274456515534612,-25.2,30.15,9.6,-645.50781,40.52734,798.33984,-0.0170536121212365,0.049162259837251,-0.0586217698501351,93.45,3.3,66.9,-988.76953,53.71094,-132.32422,0.0500949637895168,0.0009327039522657,0.0387702204050264,50.1,22.5,-18.15
-593.75,59.57031,-788.08594,0.0129234649793172,0.0062618922903052,0.0154548905264097,-27.75,28.95,11.25,-641.11328,38.08594,794.43359,0.0127901218244648,0.0997902471803269,-0.0551578148837019,93.45,3.0,65.55,-991.69922,60.05859,-115.23438,0.0615528757959344,0.011191400229638,-0.014522186574144,49.8,22.95,-17.85
-581.54297,56.64063,-790.52734,-0.0222496318373489,0.1139127533557643,-0.0114579120064175,-27.75,28.95,11.25,-646.48437,21.48438,795.89844,0.0067947413109391,0.0361056262360067,0.0054625314928918,93.45,3.0,65.55,-985.83984,58.59375,-123.04688,0.0767412545455646,0.0067947413109391,0.040235773377926,50.7,23.4,-16.2
-598.63281,50.78125,-793.94531,-0.0006661921754862,0.08420218803199,0.0142556747973644,-27.75,29.4,10.2,-643.06641,33.69141,800.78125,0.0303767574992605,0.0643506385868813,-0.0475635382424242,93.0,4.05,65.55,-994.14062,60.05859,-116.21094,0.1031210335248329,-0.0038636353651398,0.0186523337160634,50.7,22.65,-17.4
-588.37891,44.92188,-798.33984,-0.0181194846954295,0.0294440535469947,0.0265129476011954,-27.15,29.55,10.35,-685.54687,42.96875,776.85547,0.0013323843509724,0.2038438101245005,-0.0251807377831481,94.35,2.7,67.5,-984.86328,69.82422,-118.65234,0.0718115720733066,-0.0191853572696224,0.0151883787496302,50.1,22.5,-17.55
-591.79687,47.85156,-791.01562,-0.0459648166475974,0.0604870032217414,-0.042900542079871,-28.05,30.9,9.15,-642.08984,43.45703,792.96875,0.0315757986953806,0.0921959705390492,-0.0463644970463041,94.35,2.7,67.5,-983.88672,64.45313,-126.95313,0.1229724084370164,0.0079939570399844,0.0403691165327784,50.7,23.1,-17.7
-595.21484,44.92188,-788.08594,0.0361056262360067,0.0110582316077108,0.0266462907560478,-28.8,30.45,10.65,-632.8125,47.36328,799.31641,0.0271791397766816,0.0214502710399355,0.0157212277702641,94.2,3.3,64.35,-988.28125,61.52344,-137.69531,0.1065849884912661,0.0155880591483369,0.0564900247017492,50.7,23.1,-17.7
-573.24219,37.59766,-796.875,-0.0011990411961201,0.0181194846954295,-0.0163874199457503,-28.8,30.45,10.65,-628.90625,31.73828,803.71094,0.0106585512090041,0.0788728251610253,-0.0033307863445059,94.8,3.0,64.8,-999.51172,73.73047,-129.88281,0.0570230482553083,0.0181194846954295,0.029044373148288,51.0,21.9,-16.95
-579.10156,44.43359,-790.03906,-0.0099923590335179,0.0643506385868813,-0.0712787230526728,-28.2,29.85,9.3,-635.25391,56.64063,784.66797,0.060753514998521,0.045165455850184,-0.0486294108166172,93.9,2.7,66.0,-973.14453,70.80078,-138.67187,0.0531592383572432,0.0271791397766816,0.0193185258915496,51.0,21.9,-16.95
-584.47266,45.41016,-770.01953,0.0251807377831481,-0.0327748398915007,-0.0523598775598298,-27.6,30.3,10.05,-641.11328,41.99219,792.48047,0.0337075438437664,-0.0089264864593249,-0.0095926786348112,93.9,2.7,66.0,-979.49219,74.70703,-123.04688,0.063018428768834,0.0431668793237253,-0.0205175670876697,49.8,21.75,-18.15
-575.68359,57.12891,-791.50391,0.0062618922903052,-0.0066615726890119,-0.0101255276554451,-28.05,28.95,10.95,-636.71875,51.26953,788.57422,-0.0226493122360556,0.0213169278850831,-0.0357059458372999,94.35,3.45,65.25,-987.79297,89.84375,-138.18359,0.0478300500192038,0.0534257501340228,-0.0037304667432126,50.1,22.2,-18.15
-588.86719,54.6875,-776.36719,-0.002264913770313,0.0265129476011954,-0.0932618431132422,-28.05,28.95,10.95,-628.90625,50.78125,784.17969,-0.0233155044115418,0.0169204434993094,-0.0255804181818548,93.75,3.0,64.35,-996.58203,100.58594,-126.46484,0.0119907610270514,-0.0094593354799588,-0.0151883787496302,51.6,23.25,-17.55
-599.60937,50.78125,-794.92187,0.0173201238980161,-0.0175864611418704,-0.082603291904238,-28.05,28.95,10.95,-626.46484,65.42969,801.26953,-0.0359724576140795,0.0307764378979672,-0.0189188454928429,92.85,4.2,66.3,-983.39844,93.75,-149.41406,0.0463644970463041,0.0977916706538682,-0.0494287716140306,51.6,21.45,-18.15
-585.44922,39.0625,-797.85156,0.0241148652089552,0.0302434143444081,0.0086599746825454,-27.15,29.85,10.8,-639.16016,75.19531,773.4375,-0.0263797789792682,0.0510274932088574,-0.0297105653237742,92.85,4.2,66.3,-981.93359,92.28516,-159.66797,-0.0014655529728996,0.0389035635598788,-0.0298437339457014,49.65,22.35,-17.4
-603.02734,51.26953,-817.87109,-0.0037304667432126,-0.0143890179522168,-0.0583552580733556,-26.85,31.05,11.4,-655.76172,71.28906,783.20312,-0.0361056262360067,0.0259800985805615,0.0718115720733066,93.75,2.25,64.35,-985.83984,103.51563,-131.83594,-0.050228132411444,0.0544916227082157,-0.059687642424328,50.1,21.75,-17.85
-600.09766,46.38672,-818.35937,0.0187856768709157,-0.0615528757959344,-0.0478300500192038,-27.75,30.15,11.55,-655.27344,76.17188,783.69141,-0.1068515002680456,0.0274456515534612,0.0683476171068735,92.7,3.75,64.35,-1002.44141,84.96094,-127.92969,-0.0141225061754373,0.0999234158022541,-0.1057856276938527,50.1,21.75,-17.85
-602.05078,42.48047,-787.10937,0.0079939570399844,-0.0121241041819038,-0.0229158240128351,-26.25,30.9,10.65,-660.64453,67.87109,790.03906,-0.0911300979648563,0.0079939570399844,0.0590214502488418,92.85,2.7,65.25,-1003.41797,88.37891,-134.76562,-0.0880658233971298,0.1139127533557643,-0.0772741035661985,50.1,22.2,-16.8
-603.02734,41.01563,-810.05859,-0.0246477142295891,-0.0067947413109391,-0.0198513749121835,-26.25,30.9,10.65,-653.32031,60.54688,783.20312,-0.1394931715376192,-0.0031976177225788,0.0762082309920056,92.85,2.7,65.25,-990.23437,69.82422,-150.39062,-0.0487625794385443,0.0961929490590414,-0.0911300979648563,50.7,22.35,-18.75
-582.03125,49.80469,-807.61719,0.0093261668580317,-0.0427671989250186,-0.0014655529728996,-26.7,29.7,9.15,-646.97266,65.42969,790.52734,-0.1224395594163826,0.0077274452632048,0.0656830229378538,94.35,3.9,65.7,-1001.46484,51.26953,-141.60156,-0.0515605167624164,0.0514271736075641,-0.0678147680862396,50.7,22.35,-18.75
-596.19141,46.38672,-795.41016,-0.0311761182966739,-0.063018428768834,0.0242480338308824,-26.25,29.4,10.95,-639.64844,41.01563,787.59766,-0.0762082309920056,0.0077274452632048,0.0586217698501351,92.7,3.75,65.55,-1012.20703,33.20313,-118.16406,-0.0298437339457014,0.1028545217480534,-0.0755420388165193,51.0,21.6,-17.7
-593.26172,40.52734,-807.12891,-0.0475635382424242,-0.0154548905264097,-0.0651499993842947,-27.6,29.25,10.05,-648.92578,24.41406,781.73828,-0.0750091897958855,-0.0195850376683291,0.06634921511334,94.2,2.55,64.35,-1012.69531,26.36719,-125.0,0.0157212277702641,0.0687472975055802,-0.0242480338308824,49.95,21.9,-18.0
-594.23828,45.89844,-785.15625,0.007860613885132,-0.0588882816269146,-0.0245145456076619,-27.6,29.25,10.05,-652.34375,21.97266,796.38672,-0.1085833904847996,-0.011191400229638,0.0568897051004559,94.2,2.55,64.35,-999.51172,27.34375,-110.83984,-0.0097258472567384,0.1035207139235396,-0.0294440535469947,49.65,20.55,-17.4
-576.17187,53.22266,-796.875,0.0010658725741929,-0.06634921511334,-0.0423675185263119,-27.9,31.35,10.05,-634.27734,7.8125,802.73437,-0.0884655037958365,-0.0454317930940384,0.060753514998521,93.6,3.15,65.25,-1005.85937,36.62109,-115.23438,0.0179861415405771,0.0784731447623186,0.0001331686219271,49.05,22.2,-17.55
-581.05469,55.17578,-793.45703,-0.0431668793237253,0.011191400229638,-0.077007591789419,-28.05,29.7,10.2,-631.83594,58.10547,773.92578,-0.0067947413109391,0.0109248884528585,0.0490290912153239,94.2,1.8,64.8,-1007.32422,6.83594,-121.09375,0.032908183046353,0.1184425808963904,0.0175864611418704,49.05,22.2,-17.55
-572.26562,41.01563,-801.75781,-0.0287778613715085,-0.0523598775598298,-0.0499617951675896,-27.0,29.7,10.95,-675.29297,-58.10547,813.47656,-0.0751423584178126,-0.0011990411961201,0.0187856768709157,94.2,1.8,64.8,-1003.90625,-0.48828,-132.8125,0.0992572236267679,0.1333644478692411,0.0519601971611231,49.95,20.85,-19.8
-594.23828,29.29688,-804.19922,-0.022382800459276,-0.0578224090527217,0.0051960197161123,-27.9,31.35,10.35,-721.19141,-97.65625,858.39844,0.0327748398915007,0.0583552580733556,-0.0351730968166661,93.0,2.55,64.35,-1021.48437,-19.04297,-124.02344,0.1350965126189202,0.1183094122744632,0.0062618922903052,49.95,20.85,-19.8
-582.51953,42.96875,-807.61719,-0.050761155965003,0.0218499514386422,-0.0450321126953316,-27.9,31.35,10.35,-678.71094,-56.64063,785.15625,-0.050228132411444,-0.0109248884528585,0.0299770771005538,93.75,4.05,65.55,-1031.25,-45.89844,-117.67578,0.1481531462201646,0.0147886983509235,0.0514271736075641,50.55,21.0,-18.15
-590.82031,35.64453,-815.91797,-0.0564900247017492,-0.0026645941690197,-0.0460979852695246,-28.05,29.7,10.2,-660.15625,-40.03906,783.69141,-0.0123904414257581,0.0081271256619115,-0.0345069046411798,92.1,3.45,66.3,-1010.74219,-11.23047,-133.30078,0.1464210814704855,0.0951270764848485,0.0668820641339739,50.25,21.6,-19.05
-603.02734,41.50391,-811.03516,0.0251807377831481,-0.0587549384720623,0.0025314255470925,-28.65,28.8,9.75,-639.64844,-48.82813,794.92187,0.013456313999951,-0.0850015488294034,-0.0807380585326316,92.1,3.45,66.3,-1017.08984,-3.41797,-131.83594,0.2098391906380262,0.0227824808579827,0.0358392889921523,50.1,20.7,-18.6
-585.9375,26.85547,-810.54687,0.0,-0.0142556747973644,-0.0303767574992605,-27.15,30.3,11.1,-658.20312,-11.71875,784.66797,0.0494287716140306,-0.0679479367081668,-0.0559571756811154,93.9,3.15,64.95,-1005.85937,-13.18359,-148.92578,0.1572128013014168,0.1229724084370164,0.0283781809728018,50.25,21.15,-18.45
-581.05469,44.43359,-811.52344,-0.0083936374386911,0.0233155044115418,-0.0956601000384076,-27.15,30.3,11.1,-656.25,-29.29688,769.53125,0.0123904414257581,-0.0479632186411309,-0.0740764858436197,92.7,2.55,66.15,-1015.625,7.8125,-146.97266,0.1354961930176269,0.1048529237415869,0.0748760211739583,49.65,21.15,-19.5
-580.56641,36.62109,-806.64062,0.05475795995207,-0.0823369546603836,-0.043566559722432,-28.95,28.8,9.75,-679.6875,-19.04297,784.17969,0.0219831200605693,0.0118575924051242,-0.1334976164911682,92.55,1.2,64.65,-993.65234,40.52734,-159.66797,0.228624867508942,-0.068614128883653,0.0575558972759422,50.25,22.35,-19.5
-595.21484,55.17578,-809.08203,0.0472970264656447,-0.0095926786348112,-0.0820704428836041,-28.35,30.45,9.6,-638.67187,5.37109,761.23047,0.0057288687367461,-0.007860613885132,-0.1087167336396519,93.3,1.95,65.25,-981.93359,73.73047,-175.78125,0.2322219910973023,-0.1385604675853534,0.0684807857288007,50.25,22.35,-19.5
-580.07812,38.57422,-805.17578,0.0235820161883213,-0.0074609334864253,-0.1079173728422385,-25.95,29.4,10.95,-687.5,-20.01953,780.76172,0.0114579120064175,-0.0277121633302407,-0.1137794102009119,92.55,2.7,64.65,-976.07422,77.14844,-167.48047,0.2246278889889497,-0.0419678381276052,0.0904640803222952,50.1,19.95,-19.65
-575.68359,30.27344,-803.71094,0.0807380585326316,-0.0552909835056291,-0.0550244717288496,-27.3,31.2,10.2,-645.99609,-19.04297,742.1875,0.0198513749121835,-0.0480965617959833,-0.1498852109698438,93.9,3.9,64.95,-993.16406,79.10156,-170.41016,0.2165007633270382,0.043566559722432,0.1060521394706322,50.1,19.95,-19.65
-592.28516,16.60156,-809.08203,0.0209172474863764,0.0031976177225788,-0.071944915228159,-27.3,31.2,10.2,-662.10937,-23.4375,762.20703,-0.014522186574144,-0.0411684773301918,-0.1007227765996675,93.9,3.9,64.95,-1009.76562,93.75,-170.89844,0.2360858009953673,-0.0406354537766327,0.1390934911389125,50.55,21.75,-18.15
-598.63281,21.97266,-800.29297,0.0618192130397887,0.0089264864593249,-0.0959264372822619,-25.95,30.45,10.65,-675.78125,0.48828,761.23047,-0.0341072242424731,-0.0682144484849463,-0.1766646703478188,93.9,1.95,65.25,-982.91016,71.28906,-164.55078,0.1648070779426945,0.0106585512090041,0.0546247913301429,49.05,21.0,-18.6
-598.63281,5.37109,-799.80469,0.1353630243956998,-0.0099923590335179,-0.0409019655534123,-27.6,29.55,10.35,-640.625,13.18359,771.97266,0.0118575924051242,-0.0161209081689708,-0.125503833984109,92.55,2.4,64.65,-997.55859,60.54688,-173.33984,0.1661392877607418,0.1320322380511938,0.0748760211739583,50.25,20.1,-18.0
-582.03125,7.32422,-792.48047,0.0940612039106556,0.0205175670876697,-0.0712787230526728,-25.95,28.95,10.95,-709.47266,20.50781,754.88281,-0.0442327518979182,-0.0243813769857347,-0.1328315988486072,94.8,2.25,64.8,-1008.78906,94.72656,-167.96875,0.1763981585710393,0.0784731447623186,0.1231057515918688,51.45,20.85,-17.4
-584.96094,8.30078,-800.29297,0.1301670046795875,0.027312482931534,-0.0206509102425221,-25.95,28.95,10.95,-658.20312,44.43359,769.53125,-0.0764747427687851,-0.0375711792089063,-0.0732771250462063,94.8,2.25,64.8,-979.49219,67.38281,-179.6875,0.1544150385104699,0.0050628510941851,0.0443659205198454,50.25,20.1,-19.05
-587.40234,13.67187,-798.33984,0.171202138854927,-0.0007993607974134,-0.0495619402359577,-27.75,28.95,10.2,-641.60156,-12.20703,814.45312,0.0708790426539661,-0.0616860444178615,-0.1646737347878422,92.85,1.95,66.0,-979.49219,75.19531,-147.94922,0.1854578136522914,0.0806048899107045,0.0318423104721601,49.95,20.85,-18.45
-589.84375,19.04297,-800.29297,0.1384272989634262,0.0033307863445059,-0.1004564393558132,-28.35,29.4,10.2,-640.13672,25.87891,792.96875,0.0462311538914518,-0.0679479367081668,-0.1554809110846628,93.6,2.7,65.7,-960.9375,77.14844,-157.71484,0.1670719917130076,0.0357059458372999,0.068081105330094,49.95,20.85,-18.45
-581.54297,14.16016,-799.80469,0.1348300008421407,0.0118575924051242,-0.0554241521275563,-27.0,28.2,10.2,-640.625,-20.50781,795.41016,0.0354394340605204,-0.0862005900255235,-0.1236386006125027,93.6,2.7,65.7,-957.03125,85.44922,-178.22266,0.1480199775982374,0.070346019100407,0.0746095093971788,49.95,20.85,-18.45
-599.12109,5.37109,-784.66797,0.1492190187943576,-0.0285115241276541,0.006128723668378,-25.95,28.95,10.2,-605.95703,85.44922,785.64453,-0.0101255276554451,0.0039969785199922,-0.0619525561946411,93.45,1.8,65.1,-949.21875,98.14453,-182.61719,0.1649402465646217,0.0640843013430269,0.0385038831611721,51.0,20.85,-17.4
-603.51562,1.95312,-784.66797,0.1241714496331365,0.0095926786348112,-0.0291777163031404,-27.3,28.2,10.2,-645.01953,54.19922,796.38672,0.0900643999235885,-0.0728774446474996,-0.1216401986189692,92.85,2.4,65.7,-964.35547,109.375,-169.43359,0.1308330223221485,0.146687593247265,0.0286446927495813,49.35,22.2,-18.15
-615.23437,21.48438,-795.89844,0.1089830708835063,-0.0094593354799588,-0.0455651362488907,-27.15,28.8,9.3,-640.625,57.12891,831.05469,0.0666155523571943,-0.0563568560798221,-0.1204409828899239,93.3,2.7,64.65,-957.51953,101.07422,-176.75781,0.1283017713079811,0.0891316959713228,0.0877993116203503,49.35,21.0,-19.2
-603.51562,22.94922,-790.52734,0.0876661429984231,-0.0676814249313873,0.0014655529728996,-28.65,28.5,10.35,-631.83594,48.82813,776.85547,0.0571562168772355,-0.0688804661275074,-0.0984578628293545,93.3,2.7,64.65,-966.30859,97.65625,-177.73437,0.148952507017578,0.0536922619108023,0.0444992636746978,49.35,19.95,-18.9
-608.39844,24.41406,-785.64453,0.0831363154577971,-0.0474303696204971,-0.0321086477160144,-26.85,29.55,9.75,-597.65625,37.59766,748.04687,-0.0319754790940873,-0.0381042027624654,-0.049162259837251,93.75,1.5,65.55,-973.63281,100.09766,-166.50391,0.1144456023763981,0.0405022851547056,0.1477534658214579,50.1,21.75,-18.6
-602.53906,14.16016,-789.55078,0.1289677889505422,-0.050761155965003,-0.0315757986953806,-26.85,29.55,9.75,-645.99609,25.39063,749.51172,0.0047963393174056,-0.0162542513238231,-0.0923293136939016,93.45,1.05,65.85,-961.42578,58.10547,-168.45703,0.0916631215184153,0.0578224090527217,0.0314426300734534,50.85,21.0,-19.65
-600.58594,17.57813,-774.41406,0.0932618431132422,-0.0896645449919567,0.067015232755901,-26.85,29.55,9.75,-645.50781,27.34375,774.41406,0.0099923590335179,0.0675482563094601,-0.061419532641082,92.85,1.2,64.65,-978.02734,75.19531,-161.62109,0.1104486238564059,0.0612863640191548,0.0035972981212855,50.85,21.0,-19.65
-592.77344,1.46484,-772.46094,0.0504946441882235,-0.0341072242424731,0.0033307863445059,-27.6,29.55,9.0,-632.8125,5.85937,783.69141,-0.034640073263107,0.0258469299586344,-0.1152449631738115,92.85,1.2,64.65,-977.05078,54.19922,-170.41016,0.0796723604913639,0.1585451856523893,-0.007860613885132,49.65,19.35,-20.1
-582.51953,10.74219,-772.46094,0.0222496318373489,-0.061419532641082,-0.0403691165327784,-27.15,28.05,9.75,-637.69531,7.8125,805.17578,-0.041834669505678,0.0666155523571943,-0.0498284520127373,93.45,2.25,65.1,-981.44531,44.43359,-185.05859,0.0807380585326316,0.0936615235119489,-0.0009327039522657,49.65,19.35,-20.1
-601.07422,1.95312,-791.50391,0.1163108357480045,-0.0389035635598788,-0.0125237845806105,-26.7,28.2,9.6,-649.41406,13.18359,791.99219,-0.0126569532025376,0.0333078634450597,-0.0611531953972277,93.0,1.8,64.8,-971.67969,52.73438,-181.15234,0.0640843013430269,0.0702128504784798,-0.0365053066347134,50.7,19.8,-18.0
-586.42578,-6.34766,-780.27344,0.0873996312216436,-0.0110582316077108,-0.0772741035661985,-26.7,28.2,9.6,-647.94922,3.41797,801.75781,-0.022382800459276,0.0174532925199432,-0.006128723668378,93.6,0.45,65.25,-970.70312,76.17188,-169.92187,0.1056524590719255,0.0270459711547545,0.0057288687367461,50.55,21.0,-17.55
-611.32812,7.8125,-784.17969,0.0616860444178615,0.0269126279999021,-0.0784731447623186,-26.85,28.5,9.75,-648.92578,12.20703,785.64453,-0.0221164632154217,-0.0195850376683291,-0.098724374606134,93.6,0.45,65.25,-979.00391,98.63281,-173.33984,0.0694134896810664,0.031309286918601,-0.0704793622552594,51.15,20.7,-18.15
-582.51953,15.625,-775.87891,0.0795390173365115,-0.0253139064050753,0.0038636353651398,-25.8,28.8,9.75,-667.48047,3.90625,795.89844,-0.0002665117767795,-0.0166539317225298,-0.0666155523571943,93.0,1.8,66.6,-977.53906,86.42578,-184.08203,0.0486294108166172,0.0318423104721601,-0.0419678381276052,49.2,20.1,-18.75
-588.86719,4.39453,-784.17969,0.041834669505678,0.0385038831611721,0.006128723668378,-27.6,29.25,9.75,-643.55469,-2.92969,790.52734,-0.0568897051004559,-0.0383705400063197,-0.0221164632154217,93.6,1.65,66.0,-978.51562,104.00391,-175.78125,0.0550244717288496,-0.0606201718436686,-0.0554241521275563,50.25,19.8,-18.0
-598.14453,10.25391,-789.0625,0.0310429496747467,0.0486294108166172,-0.0628850856139816,-26.85,29.25,10.8,-650.39062,28.80859,774.90234,-0.0369049870334201,-0.0754088701945922,-0.0566231933236764,94.2,1.05,65.85,-989.74609,111.81641,-154.29687,0.016787100344457,0.0194516945134768,-0.0782068075184643,50.55,20.7,-18.9
-593.26172,16.11328,-795.41016,0.0262466103573411,-0.0087933178373978,-0.0831363154577971,-26.85,29.25,10.8,-651.85547,17.08984,778.32031,-0.0251807377831481,-0.0726111074036452,-0.0698131700797731,94.2,1.05,65.85,-961.42578,128.41797,-170.41016,-0.0015987215948268,0.0370383301882724,-0.0920628019171221,50.55,20.7,-18.9
-595.21484,12.69531,-811.52344,0.0679479367081668,0.0069280844657914,-0.0618192130397887,-26.85,27.75,11.1,-650.87891,14.16016,791.99219,-0.050228132411444,-0.0261132672024887,-0.0431668793237253,93.75,3.0,65.1,-982.91016,108.88672,-165.03906,-0.0333078634450597,0.0070612530877186,-0.1073843492886795,50.55,19.2,-18.9
-609.375,-9.27734,-807.61719,-0.0226493122360556,0.0476967068643514,-0.0937948666668012,-25.2,28.95,10.95,-642.57812,0.48828,795.89844,-0.0177198042967228,-0.055823832526263,0.0133231453780239,91.95,2.55,66.15,-966.30859,93.26172,-185.54687,-0.0331745202902074,-0.0446324322966249,-0.0442327518979182,50.55,19.2,-18.9
-610.35156,-2.92969,-802.24609,0.0170536121212365,0.0238483534321757,-0.0862005900255235,-25.95,27.9,9.9,-651.36719,22.94922,776.85547,-0.0410353087082646,-0.0436999028772844,0.0181194846954295,91.95,2.55,66.15,-969.72656,96.67969,-178.71094,-0.0668820641339739,-0.0098591904115907,-0.1215068554641168,49.8,20.7,-18.6
-599.60937,-6.83594,-796.875,0.0448989440734045,-0.0138559943986577,-0.0759418937481512,-25.95,27.9,9.9,-652.83203,12.20703,785.64453,-0.0612863640191548,-0.0463644970463041,0.0050628510941851,94.2,1.05,64.35,-983.88672,74.70703,-173.82812,-0.0933951862680945,0.0063950609122324,0.0018652333716063,50.7,20.85,-18.45
-607.42187,2.44141,-805.17578,-0.005595700114819,0.0315757986953806,-0.0965926294577481,-27.15,28.5,10.05,-638.18359,3.90625,784.66797,-0.0774072721881257,-0.0118575924051242,0.0093261668580317,93.6,-0.15,67.05,-970.21484,63.96484,-182.12891,-0.1223062162615302,0.0073277648644981,-0.1083170532409452,49.65,19.35,-18.75
-588.86719,-4.88281,-793.94531,0.0398360929792193,-0.0119907610270514,-0.1013889687751538,-25.95,28.65,10.95,-650.39062,-1.46484,789.0625,-0.0631515973907612,-0.0342403928644003,-0.0006661921754862,93.6,2.4,65.25,-968.75,38.57422,-181.15234,-0.1798621135374724,0.068081105330094,-0.0928621627145355,51.15,19.95,-20.7
-607.42187,-15.625,-802.73437,0.0358392889921523,0.0218499514386422,-0.0383705400063197,-27.3,28.65,8.85,-639.64844,-8.30078,791.50391,-0.0767412545455646,-0.0095926786348112,0.0074609334864253,93.6,2.4,65.25,-983.88672,51.26953,-179.19922,-0.1787964154962047,0.050761155965003,-0.1261700261595952,51.15,19.95,-20.7
-584.96094,-25.87891,-799.80469,-0.0139893375535101,0.0230489926347623,-0.1079173728422385,-26.4,28.8,10.8,-643.55469,2.92969,771.48437,-0.027312482931534,-0.0141225061754373,0.0242480338308824,93.45,2.25,65.85,-975.58594,65.42969,-175.78125,-0.1751991173749191,0.068081105330094,-0.096459460835821,51.15,19.95,-20.7
-589.35547,-31.25,-801.26953,-0.0057288687367461,0.0927289940926083,-0.0980581824306478,-26.4,28.8,10.8,-626.95312,-11.71875,777.83203,-0.0771409349442713,0.0277121633302407,-0.0119907610270514,93.75,2.25,65.55,-978.02734,60.05859,-175.29297,-0.1781302233207184,0.0570230482553083,-0.1120475199841579,51.15,20.7,-17.85
-587.89062,-23.4375,-805.66406,0.0130566336012443,0.0389035635598788,-0.1031210335248329,-26.1,28.05,9.3,-645.50781,-14.16016,775.39062,-0.0604870032217414,0.041834669505678,0.0530260697353161,93.75,1.05,65.85,-964.35547,50.78125,-173.82812,-0.1697365858820273,0.0202512298438154,-0.1111148160318922,51.15,20.7,-17.85
-596.19141,-17.08984,-799.31641,0.0298437339457014,-0.0169204434993094,-0.0824701232823108,-27.75,27.9,9.6,-640.625,-10.74219,776.85547,-0.0835359958565038,0.0225161436141284,0.0369049870334201,93.75,1.05,66.6,-956.54297,61.03516,-188.47656,-0.1506845717672572,0.0419678381276052,-0.1211071750654101,49.35,20.25,-18.6
-573.73047,-10.74219,-805.17578,-0.0357059458372999,0.0227824808579827,-0.0863337586474507,-26.7,28.2,10.65,-640.625,-24.90234,775.39062,-0.0515605167624164,0.0213169278850831,0.0334410320669869,92.7,0.75,65.85,-953.125,49.80469,-198.24219,-0.1532159973143498,0.016787100344457,-0.0710122112758932,50.7,19.35,-19.05
-595.21484,-17.57813,-804.6875,-0.0430337107017981,0.0381042027624654,-0.0651499993842947,-26.7,28.2,10.65,-633.78906,-27.83203,785.15625,-0.0844685252758443,0.0297105653237742,0.0852680606061829,92.7,1.5,66.6,-978.51562,40.03906,-179.6875,-0.1665389681594485,-0.0233155044115418,-0.1067181571131932,49.65,19.35,-20.55
-596.19141,-13.18359,-810.54687,-0.0051960197161123,0.0029311059457992,-0.0186523337160634,-27.75,28.65,9.15,-645.99609,-33.20313,775.39062,-0.0688804661275074,0.0503614755662963,0.0042633157638465,92.7,1.5,66.6,-977.05078,37.59766,-177.73437,-0.1404257009569597,-0.0238483534321757,-0.0767412545455646,48.75,20.25,-18.15
-571.28906,-25.39063,-799.31641,-0.0315757986953806,0.0130566336012443,-0.0590214502488418,-26.1,28.8,9.0,-641.60156,-44.43359,787.10937,-0.0382373713843925,-0.0307764378979672,0.0314426300734534,93.9,1.65,65.7,-966.79687,36.13281,-186.52344,-0.1564134405040034,-0.018385996472209,-0.1101822866125516,50.85,21.45,-18.9
-586.42578,-19.53125,-810.05859,-0.015055210127703,0.0237151848102485,-0.0354394340605204,-28.35,27.45,9.15,-649.90234,-23.4375,780.76172,-0.0135896571548034,0.0255804181818548,0.0347734164179594,92.1,1.2,65.7,-982.91016,20.50781,-181.64062,-0.1041869060990259,-0.0295773967018471,-0.1313660458757076,50.85,19.95,-18.9
-597.65625,-25.39063,-795.41016,-0.0317089673173077,0.0321086477160144,-0.0023980823922402,-26.7,28.2,10.65,-632.8125,-34.17969,773.4375,-0.0001331686219271,0.0157212277702641,0.0373046674321268,94.2,0.3,65.85,-980.95703,26.85547,-172.85156,-0.1108484787880378,0.0041301471419193,-0.1501515482136981,50.85,19.95,-18.9
-583.98437,-18.06641,-807.61719,-0.0330413516682802,0.0298437339457014,-0.1245711300318432,-26.7,28.2,10.65,-649.90234,-34.66797,773.92578,-0.0121241041819038,0.0363721380127862,0.0065284040670847,94.2,0.3,65.85,-979.00391,33.20313,-173.33984,-0.0694134896810664,0.0093261668580317,-0.2038438101245005,50.55,20.25,-18.6
-581.05469,-7.8125,-791.01562,-0.0302434143444081,-0.0242480338308824,-0.0971256530113072,-27.3,26.4,9.9,-656.25,-31.73828,791.50391,0.0071944217096458,0.0767412545455646,0.0592879620256213,93.75,0.3,66.9,-983.88672,21.48438,-173.82812,-0.0904640803222952,0.0456983048708179,-0.0980581824306478,50.55,20.25,-18.6
-586.91406,-10.25391,-809.08203,0.0011990411961201,-0.0139893375535101,-0.0460979852695246,-27.15,28.05,9.3,-645.99609,-34.66797,780.76172,-0.0419678381276052,0.0872664625997164,0.0211837592631559,95.1,1.2,67.05,-1000.97656,26.36719,-161.13281,-0.0794058487145844,0.0137228257767306,-0.1314992144976347,50.25,21.6,-18.0
-581.05469,-24.41406,-801.26953,-0.0318423104721601,0.075275701572665,-0.0917962901403425,-25.65,28.2,7.5,-528.80859,-48.82813,792.96875,0.0034639549664331,0.1508177403891844,-0.052493046181757,95.1,1.2,67.05,-1014.64844,36.13281,-141.60156,-0.0546247913301429,-0.018385996472209,-0.1201746456460695,50.25,19.05,-19.5
-584.47266,-22.94922,-791.50391,-0.0162542513238231,-0.0099923590335179,-0.0103920394322246,-25.65,28.2,7.5,-709.96094,-21.48438,760.25391,-0.0151883787496302,0.1692037368613934,0.0010658725741929,92.85,1.2,66.3,-986.32812,39.55078,-152.83203,-0.1299004929028079,0.0153215473715574,-0.1055191159170731,48.9,20.85,-18.75
-600.09766,-28.80859,-797.36328,-0.0035972981212855,-0.0030642745677264,-0.0241148652089552,-27.0,27.45,10.95,-633.30078,-43.94531,797.36328,-0.0375711792089063,0.0816707624848974,0.0275788201753884,93.3,1.2,65.7,-974.12109,60.05859,-165.03906,-0.0871332939777893,-0.0001331686219271,-0.1396263401595463,49.35,20.7,-18.6
-589.84375,-20.50781,-798.33984,-0.0542251109314362,0.0171867807431637,-0.1159111553492978,-26.7,27.45,10.2,-627.92969,-14.16016,813.96484,0.0171867807431637,0.0399694361340717,-0.0331745202902074,94.5,1.8,65.55,-979.49219,58.59375,-157.71484,-0.1257703457608885,0.0378376909856858,-0.0867336135790826,51.9,20.25,-19.2
-618.16406,-27.83203,-817.38281,-0.0759418937481512,-0.025713586803782,-0.0968591412345277,-27.15,28.05,10.35,-642.57812,-21.48438,799.31641,-0.0194516945134768,0.0283781809728018,0.0471638578437175,94.5,1.8,65.55,-977.53906,83.00781,-151.36719,-0.1125803690047918,-0.0094593354799588,-0.1505512286124048,49.8,21.0,-18.15
-605.95703,-30.76172,-811.03516,-0.0123904414257581,-0.0599539796681824,-0.0187856768709157,-26.4,29.55,10.35,-628.90625,7.8125,810.05859,-0.0025314255470925,0.0297105653237742,0.0433002224785777,95.1,2.4,65.7,-977.05078,88.86719,-153.32031,-0.143356806902759,0.0237151848102485,-0.1552143993078833,49.8,21.0,-18.15
-607.91016,-36.62109,-812.01172,-0.0584886012282079,0.0015987215948268,-0.0893982077481023,-26.4,29.55,10.35,-645.99609,1.46484,799.80469,-0.0115910806283447,0.0452986244721112,0.055823832526263,93.75,1.5,65.85,-1001.95312,71.28906,-141.60156,-0.1693369054833206,0.0997902471803269,-0.0844685252758443,50.1,22.5,-19.65
-608.88672,-24.41406,-793.94531,-0.0780734643636119,0.0070612530877186,-0.0783399761403914,-26.4,29.55,10.35,-656.73828,6.34766,775.39062,0.0690138092823597,0.0107917198309313,0.0337075438437664,93.0,0.3,66.15,-1010.74219,55.66406,-133.78906,-0.1614762915981885,-0.0390367321818059,-0.1157779867273706,49.35,21.0,-18.9
-600.09766,-21.48438,-792.96875,-0.0444992636746978,-0.0690138092823597,-0.0714118916745999,-25.8,29.25,10.8,-639.16016,-5.37109,785.64453,0.0803383781339249,0.0351730968166661,0.0199847180670358,93.0,0.3,66.15,-980.46875,37.59766,-126.46484,-0.0873996312216436,-0.032375159492794,-0.1205743260447762,49.95,21.6,-18.0
-581.54297,-36.62109,-793.94531,-0.0977916706538682,-0.0155880591483369,-0.1256370026060362,-27.0,27.9,8.1,-636.23047,-4.39453,797.85156,0.0073277648644981,0.0698131700797731,0.1264363634034496,93.45,1.8,66.6,-992.1875,7.32422,-137.69531,-0.1664057995375213,0.0010658725741929,-0.0700796818565527,51.75,20.1,-19.05
-577.14844,-40.03906,-797.85156,-0.1009892883764471,-0.0299770771005538,-0.0520933657830503,-28.65,28.8,10.05,-653.32031,-11.71875,796.875,-0.0039969785199922,0.0555574952824086,0.0353062654385932,93.6,0.45,66.3,-1011.71875,-5.37109,-136.71875,-0.190254152969697,-0.0038636353651398,-0.070346019100407,49.2,20.55,-17.7
-570.3125,-38.57422,-794.92187,-0.029044373148288,-0.0726111074036452,-0.0229158240128351,-28.65,28.8,10.05,-606.44531,-31.73828,805.17578,-0.0089264864593249,0.0912634411197086,0.0274456515534612,94.35,1.95,64.95,-985.83984,2.44141,-129.39453,-0.0588882816269146,0.0065284040670847,-0.0471638578437175,49.35,20.25,-19.2
-587.89062,-33.69141,-785.15625,-0.0877993116203503,-0.0671485759107534,-0.0195850376683291,-26.85,28.8,10.8,-653.80859,-20.01953,797.85156,0.0207840788644492,0.1481531462201646,0.0482297304179105,94.35,1.95,64.95,-996.09375,-8.30078,-130.85937,-0.1231057515918688,-0.0266462907560478,-0.0342403928644003,49.35,20.25,-19.2
-596.67969,-39.55078,-791.50391,-0.0620857248165682,-0.0143890179522168,-0.0616860444178615,-26.4,26.55,9.3,-639.64844,-32.22656,775.87891,-0.0317089673173077,0.0620857248165682,0.0406354537766327,94.65,1.95,65.7,-981.44531,2.44141,-145.50781,-0.1285681085518354,-0.022382800459276,-0.128834620328615,49.35,20.25,-19.2
-588.86719,-33.69141,-791.99219,-0.054091942309509,-0.086467101802303,-0.0421010067495324,-26.1,29.55,9.3,-643.06641,-25.39063,793.45703,0.0474303696204971,0.0299770771005538,0.0500949637895168,94.8,2.55,65.55,-993.16406,13.18359,-143.55469,-0.0854012292281101,-0.0731439564242791,-0.1079173728422385,48.75,19.95,-20.25
-603.51562,-18.55469,-805.66406,-0.0263797789792682,-0.0603538345998143,0.032908183046353,-26.7,28.65,8.1,-641.11328,-21.48438,792.48047,0.0674150876875329,0.0374380105869791,0.0522267089379027,93.75,1.05,65.55,-987.30469,11.23047,-138.67187,0.0159877395470436,-0.0506278128101507,-0.0085268060606182,48.75,19.95,-20.25
-603.02734,-21.48438,-803.22266,-0.1393598283827668,-0.016787100344457,-0.0007993607974134,-26.7,28.65,8.1,-647.94922,6.34766,804.19922,0.0009327039522657,0.0153215473715574,0.0454317930940384,93.75,1.05,65.55,-981.44531,43.94531,-143.55469,0.0365053066347134,-0.0195850376683291,-0.0592879620256213,50.7,19.8,-18.75
-604.00391,-32.71484,-799.80469,-0.0466310088230837,-0.0198513749121835,0.0767412545455646,-26.25,29.4,10.2,-658.20312,0.48828,792.48047,0.0199847180670358,-0.0186523337160634,0.1067181571131932,93.75,3.75,64.35,-988.28125,44.92188,-130.85937,0.0231821612566894,-0.0411684773301918,-0.1111148160318922,49.8,20.7,-18.15
-601.5625,-18.06641,-788.57422,-0.0371714988101996,-0.1173767083221974,0.0634181091675407,-26.25,27.9,9.15,-658.69141,10.74219,791.50391,0.0405022851547056,0.011191400229638,0.0779402957416847,94.5,3.0,63.3,-1004.39453,48.82813,-149.90234,-0.0067947413109391,-0.0103920394322246,-0.0322419908708668,50.55,19.5,-19.65
-593.26172,-13.18359,-790.03906,-0.1448223598756587,-0.0311761182966739,-0.0438330714992115,-26.25,28.65,9.6,-647.94922,15.625,775.87891,0.0301102457224809,0.0093261668580317,0.0598208110462552,94.5,3.0,63.3,-999.51172,41.01563,-145.50781,-0.11990813386929,-0.0133231453780239,-0.0548913031069224,50.1,19.95,-18.15
-575.68359,-3.90625,-777.34375,-0.114312433754471,-0.0716784034513795,0.0003996803987067,-26.25,28.65,9.6,-631.83594,6.34766,795.41016,0.0885988469506889,-0.0170536121212365,0.0654165111610742,93.6,1.2,64.95,-998.04687,34.17969,-165.03906,-0.1172435397002702,0.0247810573844414,-0.0676814249313873,51.6,20.25,-19.65
-589.84375,3.41797,-801.75781,-0.0743429976203992,-0.064750318985588,0.0985910314512816,-27.75,29.7,10.65,-675.29297,-5.85937,834.96094,-0.1089830708835063,-0.0066615726890119,0.1136462415789847,94.65,1.95,64.2,-1000.97656,67.38281,-163.08594,-0.0867336135790826,0.0191853572696224,-0.0672817445326806,49.35,20.25,-18.9
-602.05078,7.32422,-806.64062,-0.1251041535854023,-0.015055210127703,0.0347734164179594,-26.4,28.05,9.75,-633.30078,7.32422,789.55078,0.1011224569983742,0.0119907610270514,0.018385996472209,92.7,1.5,64.05,-984.86328,52.24609,-164.55078,-0.0254472495599277,-0.0339738810876208,0.011191400229638,49.35,20.25,-18.9
-609.86328,-9.27734,-810.54687,-0.0791393369378048,-0.0578224090527217,-0.0143890179522168,-26.25,28.95,11.25,-668.94531,-12.69531,760.74219,0.0275788201753884,-0.0131899767560967,0.0768744231674918,92.7,1.5,64.05,-996.58203,39.0625,-168.94531,-0.0158545709251164,-0.0177198042967228,0.0051960197161123,49.8,20.7,-18.9
-607.91016,-3.90625,-819.33594,-0.0727442760255724,-0.0414349891069713,0.0450321126953316,-26.4,29.55,9.75,-657.22656,14.16016,766.11328,0.0471638578437175,0.0526263893366094,0.1279019163763492,94.35,3.15,64.95,-1000.0,37.59766,-159.17969,-0.0620857248165682,0.0241148652089552,-0.0347734164179594,49.8,20.7,-18.9
-615.23437,-9.76562,-806.64062,-0.1072511806667523,-0.0682144484849463,0.0177198042967228,-26.4,29.55,9.75,-654.78516,-10.74219,778.80859,0.0498284520127373,0.050761155965003,0.1019218177957876,93.75,2.25,65.1,-1007.8125,25.87891,-168.45703,-0.1485528266188713,0.0063950609122324,-0.0764747427687851,49.8,20.25,-19.95
-615.23437,17.57813,-826.17187,-0.0691469779042869,-0.145621720673072,0.0715452348294523,-26.7,28.65,10.95,-650.87891,15.13672,781.25,0.0397029243572922,-0.0019984019935335,0.0996569040254746,94.5,1.5,65.55,-986.81641,30.76172,-173.33984,-0.1770643507465255,0.0454317930940384,0.0039969785199922,49.8,20.25,-18.15
-609.375,7.32422,-817.87109,-0.0811377389313384,-0.0832694840797242,0.055823832526263,-26.25,28.2,9.9,-672.36328,-1.95312,772.94922,0.093128674491315,-0.0062618922903052,0.0258469299586344,94.2,3.3,65.1,-985.83984,25.39063,-183.59375,-0.1309663654770009,-0.0519601971611231,-0.039569755735365,50.55,21.75,-19.65
-613.76953,7.32422,-812.98828,-0.1358958734163337,-0.0222496318373489,-0.0361056262360067,-26.1,29.25,10.35,-676.26953,-5.85937,751.46484,0.0564900247017492,0.014522186574144,-0.005595700114819,93.3,3.45,66.0,-1000.0,37.59766,-173.33984,-0.1849249646316576,0.0029311059457992,0.0123904414257581,51.0,20.85,-18.75
-602.05078,11.23047,-798.82812,-0.0543582795533633,-0.0646171503636608,0.1156446435725182,-26.1,29.25,10.35,-672.36328,1.95312,745.60547,0.0419678381276052,0.0627519169920545,0.0848683802074762,93.3,1.2,65.25,-999.51172,50.78125,-175.29297,-0.2560705190624032,-0.0548913031069224,0.1012558001532266,50.25,21.6,-18.0
-598.14453,10.74219,-798.82812,-0.0091929982361045,-0.0790061683158777,0.1468207618691921,-26.1,29.55,9.75,-674.80469,-17.57813,759.76562,0.0888651841945432,0.0439662401211387,0.0868667822010097,93.3,1.2,65.25,-992.67578,32.22656,-178.71094,-0.1673385034897871,-0.0584886012282079,-0.1625421641723815,49.95,21.6,-18.75
-600.09766,27.34375,-821.77734,-0.098724374606134,-0.043566559722432,-0.0728774446474996,-26.85,29.85,10.05,-666.01562,-21.48438,740.23437,0.0194516945134768,0.0534257501340228,0.0866002704242302,93.3,1.65,66.0,-989.25781,40.52734,-181.64062,-0.2733904684274942,-0.0430337107017981,0.0843353566539172,49.95,21.6,-18.75
-599.60937,20.99609,-814.45312,-0.0618192130397887,-0.0667488955120467,0.0378376909856858,-26.25,28.95,10.2,-678.71094,-46.38672,750.97656,0.0203843984657425,0.0863337586474507,0.1380276185647195,93.0,3.75,66.15,-1010.74219,37.10938,-164.0625,-0.2559371759075509,-0.0503614755662963,-0.0688804661275074,50.7,21.6,-19.05
-602.53906,18.55469,-819.33594,-0.0178529729186499,-0.0810045703094112,0.0514271736075641,-26.7,30.15,9.9,-704.58984,-57.12891,745.11719,-0.0766079113907123,0.0366386497895657,0.1220398790176759,93.6,0.9,65.7,-995.11719,36.62109,-179.6875,-0.2881791667784177,-0.0871332939777893,0.0050628510941851,50.55,22.2,-19.95
-601.07422,15.625,-814.45312,-0.1128468807815713,-0.0153215473715574,0.0411684773301918,-26.7,30.15,9.9,-714.35547,-97.16797,752.92969,-0.0314426300734534,0.0190520141147701,0.0567565364785288,93.6,0.9,65.7,-1014.16016,38.08594,-189.45312,-0.2486095855759778,-0.0658161915597809,0.0466310088230837,51.0,19.35,-18.75
-609.86328,10.25391,-826.66016,-0.0921959705390492,0.0410353087082646,0.0169204434993094,-25.2,30.45,9.9,-725.58594,-105.95703,755.37109,-0.0155880591483369,-0.3883690943574513,0.060753514998521,91.95,2.25,65.55,-1000.97656,29.29688,-170.89844,-0.2050428513206206,-0.2131699769825322,0.0378376909856858,50.85,21.0,-19.65
-606.44531,2.92969,-827.14844,-0.0297105653237742,-0.0131899767560967,0.0367718184114929,-26.25,28.2,10.2,-633.78906,-99.12109,819.82422,-0.1330979360924615,-0.0799386977352182,0.1003230962009608,94.2,3.0,65.55,-1016.11328,33.20313,-164.0625,-0.2009127041787012,-0.2095726788612467,0.0999234158022541,50.85,21.0,-19.65
-598.63281,10.25391,-817.38281,-0.0776737839649052,0.073676805444913,-0.0285115241276541,-26.4,31.35,9.75,-672.85156,-67.38281,789.0625,0.004529827540626,-0.1260366830047429,0.0042633157638465,94.2,3.0,65.55,-991.69922,44.92188,-163.57422,-0.20411032190128,-0.2296907400831349,0.1838590920574646,50.55,21.45,-18.6
-596.67969,0.48828,-806.64062,0.0042633157638465,0.0014655529728996,0.0218499514386422,-26.4,31.35,9.75,-713.86719,-102.05078,739.74609,0.0862005900255235,-0.1376279381660128,-0.0506278128101507,93.75,2.25,65.55,-1001.46484,25.87891,-168.94531,-0.2135696573812389,-0.2154348907528452,0.1215068554641168,50.55,21.0,-17.55
-606.93359,6.83594,-801.26953,0.0363721380127862,0.0361056262360067,0.002264913770313,-26.25,28.95,9.9,-652.34375,-86.91406,770.50781,0.0293108849250675,-0.2516738601437043,-0.0291777163031404,93.3,3.45,67.05,-1003.41797,29.78516,-136.23047,-0.2728576194068603,-0.3289479637099028,0.1093829258151382,50.55,21.0,-17.55
-612.30469,-6.34766,-792.48047,0.0433002224785777,0.0965926294577481,-0.0199847180670358,-26.85,29.85,9.75,-626.46484,-54.19922,765.13672,0.0117244237831971,-0.1536156777130565,-0.0638177895662474,93.6,3.45,65.7,-1017.08984,28.80859,-128.41797,-0.2423476932856726,-0.269926513461061,0.1409587245105188,51.75,22.65,-18.75
-601.07422,-13.18359,-798.82812,0.0241148652089552,0.031309286918601,-0.0205175670876697,-25.95,29.7,10.2,-657.22656,-25.87891,746.58203,0.1296339811260284,0.0133231453780239,-0.0512940049856369,93.6,3.45,65.7,-1006.34766,20.01953,-141.60156,-0.2836493392377916,-0.2343537362456882,0.1329647674705344,51.75,22.65,-18.75
-600.58594,-14.16016,-792.96875,0.1486859952407985,0.0714118916745999,0.027312482931534,-27.15,29.25,9.75,-641.11328,-41.99219,716.79687,0.3092297574196465,-0.2452787992314719,-0.0747426780191059,93.45,3.0,65.55,-1022.94922,15.13672,-130.85937,-0.2619325564210766,-0.2188988457192784,0.1470872736459717,51.75,22.35,-17.7
-599.60937,-11.71875,-775.87891,0.0567565364785288,0.0295773967018471,-0.0827366350590903,-27.15,29.25,9.75,-649.90234,156.25,836.91406,-0.1273690673557154,-0.1642740543891354,0.0043966589186989,93.0,1.5,66.6,-1000.0,0.0,-113.28125,-0.2364854813940741,-0.1633415249697949,0.1688040564626867,50.1,21.75,-16.5
-600.09766,-6.83594,-769.04297,0.0755420388165193,0.0730107878023519,0.0251807377831481,-27.15,29.25,9.75,-433.59375,-34.17969,836.91406,0.2212971026444438,-0.2539387739140173,-0.1332312792473139,93.6,3.45,66.75,-987.79297,-16.60156,-119.62891,-0.1418912539298594,-0.0790061683158777,0.1297671497479555,51.15,21.45,-17.55
-589.35547,-3.90625,-768.06641,0.1059187963157798,0.0448989440734045,0.0233155044115418,-26.7,28.95,8.85,-640.625,-16.11328,725.09766,-0.0006661921754862,0.0002665117767795,-0.0041301471419193,93.6,3.45,66.75,-1009.76562,-3.90625,-145.50781,-0.1468207618691921,-0.1630750131930153,0.2675282565358956,50.7,20.85,-17.4
-583.98437,-2.92969,-766.11328,0.0674150876875329,0.067015232755901,-0.0099923590335179,-25.8,29.85,10.05,-726.5625,73.73047,781.73828,0.0759418937481512,-0.2412818207114797,-0.0492956029921034,93.75,3.3,65.85,-992.67578,2.92969,-135.74219,-0.1356293616395541,-0.1942511314896893,0.1085833904847996,51.0,23.4,-17.4
-586.91406,-23.4375,-776.85547,0.0860674214035963,0.0767412545455646,0.0434333911005048,-27.6,28.8,10.05,-519.04297,46.38672,775.39062,0.0592879620256213,-0.0003996803987067,-0.0750091897958855,94.35,3.15,66.3,-971.19141,8.30078,-108.88672,-0.1434899755246862,-0.1441561677001724,0.1781302233207184,51.15,21.45,-15.75
-601.07422,-13.67187,-772.94922,0.1305666850782942,0.0262466103573411,0.0029311059457992,-27.6,28.8,10.05,-607.42187,-7.8125,787.10937,-0.1352296812408474,0.1714686506317065,0.0083936374386911,94.5,3.0,65.85,-977.53906,15.13672,-102.05078,-0.1025880099712739,0.0271791397766816,0.1408253813556664,51.15,21.45,-15.75
-583.98437,-17.57813,-770.99609,0.0768744231674918,0.0559571756811154,0.037970859607613,-26.4,28.8,11.1,-586.91406,-4.88281,846.67969,0.1233720888357231,-0.3322787500544089,-0.0194516945134768,94.5,3.0,65.85,-961.91406,3.90625,-150.87891,-0.0459648166475974,-0.0798055291132911,0.195183835441955,51.45,23.85,-16.65
-588.37891,-13.67187,-774.90234,0.0570230482553083,0.061419532641082,0.0983246942074273,-26.85,29.25,10.8,-538.08594,-14.64844,810.05859,0.077540615342978,-0.0349065850398865,-0.0363721380127862,93.75,2.25,67.65,-975.58594,31.25,-109.375,0.0177198042967228,-0.1111148160318922,0.1493521874162847,51.45,23.85,-16.65
-599.60937,-5.85937,-771.48437,0.1168438593015635,0.0070612530877186,0.0908637607210019,-26.85,28.5,11.4,-630.85937,-8.30078,755.85937,0.1636080367465744,-0.1256370026060362,-0.0450321126953316,93.9,3.15,67.05,-972.16797,37.10938,-119.62891,-0.0005328490206338,-0.0862005900255235,0.093128674491315,51.15,22.2,-16.05
-609.86328,-6.83594,-784.66797,0.0410353087082646,0.0738101485997654,0.070346019100407,-27.15,29.55,9.3,-555.17578,57.61719,806.15234,0.0632847660126884,0.0133231453780239,-0.046897346066938,93.0,1.5,65.1,-960.44922,57.61719,-88.37891,-0.0115910806283447,-0.095393588261628,0.1105819670112583,51.6,22.95,-17.1
-595.21484,-6.34766,-776.36719,0.0486294108166172,0.0354394340605204,0.0616860444178615,-27.15,29.55,9.3,-613.28125,88.86719,808.59375,0.1048529237415869,-0.0466310088230837,-0.0568897051004559,93.0,1.5,65.1,-977.53906,67.87109,-78.125,0.0231821612566894,-0.0514271736075641,0.1392266597608396,51.15,23.7,-15.45
-605.95703,-6.83594,-770.50781,0.0526263893366094,-0.0037304667432126,0.0515605167624164,-25.8,29.85,12.15,-622.07031,32.22656,778.80859,0.1694700741052478,0.0595542992694757,-0.0415681577288985,92.85,2.4,67.5,-961.91406,70.80078,-84.47266,0.0035972981212855,-0.0231821612566894,0.1573461444562691,50.55,24.0,-16.05
-602.53906,4.88281,-773.4375,-0.0023980823922402,0.0205175670876697,0.1193751103157309,-27.3,28.65,10.65,-624.51172,52.73438,809.57031,0.0230489926347623,0.0700796818565527,0.0121241041819038,93.45,3.0,66.9,-1006.34766,85.44922,-59.57031,0.0162542513238231,-0.0255804181818548,0.1825268822394173,50.85,23.7,-17.85
-600.58594,-0.97656,-778.80859,0.0146553551960711,0.0446324322966249,0.0576890658978693,-26.7,29.7,9.9,-612.30469,44.92188,825.68359,0.0847350370526239,0.0419678381276052,0.054091942309509,93.45,3.0,66.9,-1000.97656,85.9375,-66.40625,0.0539585991546566,-0.0427671989250186,0.1027213531261262,51.0,23.1,-15.15
-604.00391,15.13672,-770.50781,0.0410353087082646,-0.0394364125805126,0.1532159973143498,-26.7,29.7,9.9,-609.86328,44.92188,837.89062,0.034640073263107,0.0321086477160144,0.0414349891069713,92.55,2.7,66.3,-1000.97656,97.65625,-62.01172,0.0877993116203503,-0.0017320647496791,0.1149786259299572,51.0,23.1,-15.15
-609.375,16.11328,-785.64453,-0.0423675185263119,0.0029311059457992,0.0639509581881746,-27.6,30.3,10.35,-612.79297,59.08203,837.40234,0.0903307371674429,-0.0027979373238721,0.0555574952824086,94.5,1.5,65.55,-1011.23047,98.63281,-60.05859,0.0651499993842947,0.0038636353651398,0.1220398790176759,51.45,23.4,-15.6
-603.02734,4.39453,-785.64453,-0.0210505906412288,-0.0005328490206338,0.1060521394706322,-27.6,28.8,9.75,-631.34766,59.08203,796.875,0.1124472003828646,-0.0170536121212365,0.050228132411444,92.85,1.95,66.75,-1003.41797,86.42578,-75.19531,0.1121806886060851,-0.016787100344457,0.1133797298022052,51.45,24.15,-14.85
-600.58594,7.8125,-803.71094,0.0019984019935335,-0.052493046181757,0.1514839325646706,-27.9,27.75,10.35,-634.76562,41.01563,808.10547,0.1348300008421407,-0.0464976656682313,0.0619525561946411,92.85,1.95,66.75,-1005.85937,94.23828,-70.80078,0.0819372742616769,-0.040235773377926,0.0651499993842947,51.45,24.15,-14.85
-621.09375,24.41406,-785.15625,-0.0483628990398376,-0.0193185258915496,0.0508943245869302,-27.75,28.65,11.25,-625.48828,67.38281,808.59375,0.0827366350590903,-0.0163874199457503,0.0576890658978693,93.3,2.7,66.3,-988.76953,90.33203,-76.17188,0.1237717692344298,0.0303767574992605,0.0899310567687362,51.9,24.0,-15.45
-613.76953,30.76172,-786.62109,-0.0883323351739094,-0.0091929982361045,0.0835359958565038,-27.75,28.65,11.25,-634.27734,57.61719,811.52344,0.1013889687751538,-0.0023980823922402,0.0599539796681824,93.3,3.15,67.5,-992.1875,94.23828,-76.17188,0.0843353566539172,0.0165205885676775,0.0548913031069224,51.0,24.6,-15.15
-598.14453,26.36719,-794.43359,-0.1027213531261262,-0.0798055291132911,0.1023216727274195,-27.6,29.85,9.75,-624.02344,64.94141,805.17578,0.0668820641339739,0.0009327039522657,0.1021883295725672,92.55,1.95,66.0,-979.98047,96.19141,-84.96094,0.0543582795533633,-0.0003996803987067,0.0814042507081179,51.0,22.65,-15.15
