IMU1_AccX,IMU1_AccY,IMU1_AccZ,IMU1_GyrX,IMU1_GyrY,IMU1_GyrZ,IMU1_MagX,IMU1_MagY,IMU1_MagZ,IMU2_AccX,IMU2_AccY,IMU2_AccZ,IMU2_GyrX,IMU2_GyrY,IMU2_GyrZ,IMU2_MagX,IMU2_MagY,IMU2_MagZ,IMU3_AccX,IMU3_AccY,IMU3_AccZ,IMU3_GyrX,IMU3_GyrY,IMU3_GyrZ,IMU3_MagX,IMU3_MagY,IMU3_MagZ
-617.67578,30.27344,-765.625,-0.218632508475424,-0.0010658725741929,-0.0888651841945432,-26.1,28.8,9.0,-640.13672,11.71875,796.38672,-0.0046631706954784,-0.0186523337160634,0.0639509581881746,93.75,4.05,67.95,-984.375,22.46094,-150.39062,0.0475635382424242,0.0403691165327784,-0.0319754790940873,51.6,21.75,-18.6
-626.46484,29.29688,-768.55469,-0.2070414278470793,0.0515605167624164,-0.0846018684306967,-26.7,28.2,9.9,-627.92969,52.73438,767.08984,0.0114579120064175,0.0013323843509724,0.0386370517830992,91.8,3.45,67.5,-990.23437,22.94922,-141.60156,0.0959264372822619,-0.0147886983509235,-0.0526263893366094,51.6,21.75,-18.6
-641.11328,38.57422,-774.90234,-0.1348300008421407,-0.0097258472567384,-0.0567565364785288,-27.3,28.2,10.95,-629.88281,26.36719,764.16016,0.0030642745677264,0.0165205885676775,-0.0126569532025376,93.75,3.3,66.9,-994.14062,25.39063,-146.97266,0.1096492630589925,0.0091929982361045,-0.0610198522423753,51.45,23.1,-17.7
-637.69531,37.59766,-778.80859,-0.1982481100096814,0.0318423104721601,-0.069680001457846,-26.7,29.4,10.95,-627.92969,35.15625,797.36328,-0.0229158240128351,0.0610198522423753,0.0123904414257581,90.9,4.05,67.65,-980.95703,44.92188,-149.41406,0.1137794102009119,0.0253139064050753,-0.03064326927604,51.45,22.35,-16.65
-640.625,47.36328,-773.4375,-0.1850581332535847,0.0431668793237253,-0.1081837100860929,-26.7,29.4,10.95,-643.06641,31.25,795.89844,-0.0492956029921034,0.1577458248549758,0.0227824808579827,90.9,4.05,67.65,-989.74609,42.96875,-149.90234,0.1388269793621329,-0.0675482563094601,-0.0907304175661496,51.6,22.5,-17.1
-637.20703,26.36719,-770.99609,-0.1005896079777403,-0.0154548905264097,-0.0603538345998143,-26.4,28.8,10.8,-618.65234,40.03906,789.55078,-0.039569755735365,0.0937948666668012,0.0041301471419193,93.3,3.45,66.0,-994.14062,47.36328,-143.55469,0.0959264372822619,-0.0419678381276052,-0.0373046674321268,50.1,22.5,-16.8
-624.51172,25.39063,-752.92969,-0.0960597804371143,0.0409019655534123,-0.0438330714992115,-26.25,27.9,10.65,-598.14453,59.08203,791.99219,0.0258469299586344,0.0867336135790826,-0.0010658725741929,93.75,4.8,66.15,-974.60937,58.59375,-136.23047,0.1304333419234418,-0.0623522365933478,0.0070612530877186,50.85,23.7,-16.5
-630.85937,14.16016,-756.34766,-0.1301670046795875,0.0610198522423753,-0.1088499022615791,-26.4,27.3,10.05,-595.70312,37.59766,833.98437,-0.0141225061754373,0.1044532433428802,-0.016787100344457,92.55,4.65,66.3,-999.51172,53.22266,-132.32422,0.0744763407752516,-0.0460979852695246,-0.0067947413109391,50.55,22.5,-16.8
-625.97656,34.17969,-760.74219,-0.1047197551196597,0.0146553551960711,-0.0399694361340717,-27.0,27.15,11.25,-618.16406,51.75781,843.75,-0.0406354537766327,0.08420218803199,-0.0030642745677264,92.55,4.65,66.3,-998.04687,68.84766,-130.85937,0.0706125308771865,-0.0337075438437664,-0.0880658233971298,50.55,22.5,-16.8
-631.34766,32.22656,-767.08984,-0.0768744231674918,0.0050628510941851,-0.0495619402359577,-27.0,27.15,11.25,-598.63281,63.47656,853.02734,-0.0411684773301918,0.0648836621404404,-0.0082602942838387,92.4,4.5,66.9,-987.30469,72.75391,-95.70313,0.0996569040254746,-0.0666155523571943,-0.0559571756811154,50.55,22.5,-16.8
-616.69922,26.36719,-772.94922,-0.1337641282679478,0.0754088701945922,-0.1059187963157798,-27.0,27.15,11.25,-614.74609,50.29297,801.26953,0.0181194846954295,0.0730107878023519,0.0013323843509724,92.4,4.05,67.2,-998.53516,69.82422,-113.76953,0.0929953313364626,0.0397029243572922,-0.0688804661275074,50.85,22.95,-18.6
-615.23437,40.52734,-777.83203,-0.1135130729570576,0.0181194846954295,-0.0575558972759422,-27.0,28.95,9.9,-577.14844,50.78125,807.12891,-0.1017886491738605,0.0740764858436197,0.0130566336012443,93.45,4.05,67.65,-998.04687,83.98438,-111.32813,0.0149218669728507,0.0358392889921523,-0.0217166082837898,50.85,22.95,-18.6
-610.83984,49.31641,-769.53125,-0.1405590441118121,-0.0066615726890119,-0.0552909835056291,-26.7,28.95,10.2,-615.72266,83.49609,815.91797,-0.1136462415789847,0.0784731447623186,-0.0219831200605693,93.45,4.05,67.65,-995.60547,79.58984,-120.11719,0.0434333911005048,0.0651499993842947,-0.0203843984657425,50.85,22.2,-17.1
-583.00781,34.17969,-767.57812,-0.2086401494419061,0.0293108849250675,-0.1108484787880378,-26.7,28.95,10.2,-604.98047,44.43359,792.48047,-0.1385604675853534,0.0103920394322246,-0.0258469299586344,92.1,4.65,67.05,-1004.39453,97.16797,-116.69922,0.0139893375535101,0.1075176924435318,-0.0516936853843436,51.6,20.7,-17.55
-582.03125,47.36328,-786.62109,-0.1732005408484604,-0.0002665117767795,-0.0732771250462063,-26.85,28.05,9.0,-613.28125,62.5,744.62891,-0.0407687969314851,0.0186523337160634,-0.0099923590335179,91.65,4.5,66.6,-976.5625,105.46875,-121.09375,0.0490290912153239,0.0871332939777893,-0.0365053066347134,50.85,22.5,-16.8
-585.9375,51.26953,-789.0625,-0.216367594705111,-0.0293108849250675,-0.0322419908708668,-26.85,27.0,11.85,-612.79297,71.77734,795.41016,-0.0425006871482391,0.0519601971611231,-0.0270459711547545,91.35,3.15,67.05,-992.67578,104.00391,-133.78906,0.0151883787496302,0.0654165111610742,-0.0732771250462063,50.55,21.75,-18.15
-583.98437,36.13281,-791.50391,-0.2403491167592139,0.0190520141147701,-0.050228132411444,-26.4,29.25,9.3,-604.98047,90.82031,822.75391,0.0054625314928918,0.055823832526263,-0.0235820161883213,91.35,3.15,67.05,-977.05078,105.46875,-129.39453,0.0125237845806105,0.0706125308771865,-0.0595542992694757,50.7,22.35,-18.75
-591.30859,30.76172,-783.69141,-0.205842212118034,-0.0198513749121835,-0.0369049870334201,-26.1,29.85,9.75,-653.32031,31.73828,824.21875,0.086467101802303,-0.0456983048708179,-0.0153215473715574,93.6,4.2,66.75,-1005.85937,101.5625,-103.02734,0.0019984019935335,0.1613431229762614,-0.0378376909856858,50.1,22.2,-17.55
-585.44922,44.92188,-791.01562,-0.2119709357864121,-0.0103920394322246,-0.0804717212887773,-26.1,29.85,9.75,-532.71484,92.28516,833.98437,-0.1261700261595952,0.1771975193684527,0.0391699008037331,91.65,4.8,67.65,-974.12109,86.42578,-133.30078,-0.0079939570399844,0.0213169278850831,-0.0704793622552594,50.1,22.2,-17.55
-593.75,42.48047,-796.38672,-0.2901775687719512,0.0608866836204481,-0.1477534658214579,-27.75,28.95,9.9,-676.26953,113.76953,785.64453,0.0546247913301429,0.0802052095119978,0.0177198042967228,91.65,4.8,67.65,-991.21094,80.56641,-162.59766,-0.0499617951675896,0.1155114749505911,-0.0831363154577971,50.55,21.45,-18.15
-599.60937,20.99609,-797.85156,-0.2069080846922269,-0.0570230482553083,-0.0554241521275563,-26.25,28.65,9.9,-636.71875,31.25,788.08594,-0.1011224569983742,0.013456313999951,0.0684807857288007,93.45,4.05,66.15,-1003.90625,75.19531,-136.23047,-0.0707458740320389,0.027312482931534,-0.0603538345998143,50.55,21.45,-18.15
-614.74609,8.78906,-808.59375,-0.1965160452600023,-0.0113245688515652,-0.0866002704242302,-24.75,28.05,9.3,-637.20703,109.375,816.89453,-0.0828698036810175,0.0106585512090041,0.0294440535469947,93.9,3.45,64.95,-992.67578,53.71094,-130.85937,-0.0940612039106556,0.0532925815120956,-0.107650861065459,51.0,22.35,-18.45
-624.51172,11.71875,-815.91797,-0.1970490688135614,0.0083936374386911,-0.1243047927879889,-24.75,28.05,9.3,-623.04687,15.13672,786.62109,-0.05475795995207,-0.0194516945134768,0.0932618431132422,92.4,5.25,67.65,-999.51172,52.73438,-147.94922,-0.014522186574144,-0.0062618922903052,-0.0478300500192038,51.0,21.15,-18.0
-650.87891,13.67187,-816.40625,-0.1175098769441246,-0.0620857248165682,-0.0715452348294523,-24.9,28.95,10.2,-628.90625,93.75,766.11328,-0.1148452827751048,0.0185191650941362,0.0723445956268657,92.4,5.25,67.65,-988.28125,31.25,-145.01953,-0.0099923590335179,-0.0010658725741929,-0.0365053066347134,50.1,21.45,-16.8
-659.17969,21.48438,-809.08203,-0.0782068075184643,-0.1169770279234907,-0.0714118916745999,-25.2,28.2,10.65,-644.04297,64.45313,763.18359,-0.0925956509377559,0.015055210127703,0.0839356762552105,93.0,4.5,66.15,-1006.34766,34.17969,-129.39453,0.0227824808579827,-0.0302434143444081,-0.0097258472567384,50.25,22.35,-19.05
-674.31641,40.03906,-810.54687,-0.1408253813556664,-0.1183094122744632,-0.1237717692344298,-26.4,28.8,11.1,-614.74609,71.28906,774.41406,-0.085934078248744,0.0034639549664331,0.0799386977352182,91.8,4.95,67.5,-1015.13672,41.99219,-121.58203,0.0714118916745999,-0.0650168307623675,-0.0342403928644003,50.25,22.35,-19.05
-654.78516,62.98828,-792.48047,-0.0850015488294034,-0.1754656291516987,0.0046631706954784,-25.2,28.95,10.65,-622.55859,70.3125,783.20312,-0.0486294108166172,0.0341072242424731,0.0650168307623675,93.3,4.95,66.75,-1012.69531,18.06641,-125.48828,0.0618192130397887,-0.0065284040670847,-0.0738101485997654,50.7,21.15,-17.7
-657.22656,70.3125,-788.57422,-0.0715452348294523,-0.1716018192536337,-0.0843353566539172,-25.2,28.95,10.65,-628.41797,65.91797,816.89453,-0.0355727772153728,-0.0054625314928918,0.0758085505932989,93.3,4.95,65.25,-1033.20313,39.55078,-135.25391,0.1168438593015635,-0.0009327039522657,-0.0397029243572922,50.7,21.15,-17.7
-634.27734,69.33594,-778.32031,-0.1468207618691921,-0.1402925323350325,-0.0599539796681824,-25.2,28.95,10.65,-609.375,35.64453,831.54297,-0.1617428033749681,-0.0556906639043358,0.0730107878023519,91.05,4.65,66.0,-1005.37109,4.88281,-151.36719,0.0683476171068735,-0.0928621627145355,-0.0211837592631559,50.55,21.75,-17.1
-617.67578,46.875,-757.32422,-0.1291011321053945,-0.1728008604497538,-0.0194516945134768,-27.0,29.4,10.65,-727.53906,-35.64453,785.15625,0.0002665117767795,-0.116577347524784,0.0225161436141284,93.75,4.05,65.1,-977.53906,28.32031,-124.51172,0.107650861065459,-0.0803383781339249,-0.0778071271197576,50.85,21.45,-17.1
-629.88281,54.6875,-783.20312,-0.1743997565775057,-0.1100489434576992,-0.0638177895662474,-25.35,29.85,11.1,-645.01953,26.36719,773.4375,-0.170136266280734,-0.0427671989250186,0.077540615342978,93.75,4.05,65.1,-974.60937,33.20313,-130.37109,0.1805283057129587,-0.0452986244721112,0.0089264864593249,51.75,20.85,-18.45
-630.85937,67.87109,-783.69141,-0.1674716721117143,-0.0832694840797242,-0.0606201718436686,-25.95,28.65,9.9,-621.09375,41.99219,811.52344,-0.1119141768293056,-0.0369049870334201,0.0856677410048896,93.0,4.5,66.15,-997.55859,39.0625,-140.625,0.1870567097800435,0.0957932686603347,-0.0716784034513795,51.45,21.6,-19.05
-639.16016,59.08203,-771.48437,-0.1409587245105188,-0.0830031468358699,-0.0482297304179105,-25.95,28.65,9.9,-642.57812,61.52344,724.12109,-0.1177763887209041,0.0560903443030425,0.0490290912153239,91.8,3.45,66.0,-998.04687,52.24609,-155.76172,0.1704027780575135,0.1597442268485094,-0.0816707624848974,51.45,21.6,-19.05
-622.55859,75.19531,-770.01953,-0.1608100994227023,-0.1409587245105188,-0.0253139064050753,-25.2,30.45,11.55,-659.66797,84.96094,826.66016,-0.1088499022615791,-0.0121241041819038,0.0282450123508746,92.85,4.95,65.7,-1015.625,24.41406,-136.23047,0.2075742768677131,-0.1008561197545199,-0.075275701572665,51.75,22.65,-17.7
-642.08984,56.64063,-779.29687,-0.210771894590292,-0.0550244717288496,-0.0731439564242791,-25.65,28.65,9.6,-622.55859,-15.625,800.29297,-0.0656830229378538,0.0559571756811154,0.0572893854991626,92.85,4.95,65.7,-980.46875,15.625,-180.17578,0.2258269301850698,-0.0095926786348112,-0.0105252080541518,50.55,19.95,-17.85
-633.30078,67.87109,-771.48437,-0.1947841550432483,-0.0932618431132422,-0.0410353087082646,-26.1,29.55,10.8,-665.03906,-115.23438,774.90234,0.0850015488294034,-0.0099923590335179,0.015055210127703,91.95,4.05,65.85,-1002.92969,37.10938,-172.85156,0.1758653095504054,-0.089797888146809,-0.0623522365933478,50.55,19.95,-17.85
-632.8125,80.56641,-775.39062,-0.2422143501308202,-0.0691469779042869,-0.0459648166475974,-24.15,30.45,9.9,-581.54297,8.30078,823.24219,-0.1088499022615791,0.041834669505678,-0.0001331686219271,91.65,3.75,66.15,-996.58203,26.85547,-154.78516,0.261000027001736,-0.1087167336396519,-0.0242480338308824,50.1,20.25,-17.55
-627.92969,78.61328,-796.875,-0.3050996102777272,0.0013323843509724,-0.1205743260447762,-24.15,30.45,9.9,-695.80078,-38.57422,766.11328,-0.184658452854878,0.020117886688963,0.0138559943986577,91.65,3.75,66.15,-990.72266,21.97266,-161.62109,0.191853049097449,0.0321086477160144,-0.0041301471419193,50.1,20.25,-17.55
-600.09766,75.19531,-775.39062,-0.300036759183542,0.0795390173365115,-0.1413584049092255,-26.25,30.9,10.65,-686.03516,-74.21875,804.6875,-0.0961929490590414,-0.0085268060606182,-0.0286446927495813,91.95,5.55,66.9,-966.79687,34.17969,-179.19922,0.2015788963541875,-0.0186523337160634,-0.0157212277702641,50.85,20.7,-17.85
-611.32812,83.98438,-752.92969,-0.296705972839036,-0.0109248884528585,-0.0883323351739094,-26.1,30.3,11.1,-722.65625,-47.36328,819.33594,-0.1196416220925105,-0.0671485759107534,-0.0282450123508746,92.85,4.2,67.5,-932.12891,57.12891,-141.11328,0.1931852589154963,0.0230489926347623,-0.0855343978500373,49.8,20.25,-18.9
-604.49219,89.84375,-767.57812,-0.3825068824658528,0.0466310088230837,-0.107650861065459,-25.8,31.05,10.8,-662.59766,22.94922,821.77734,-0.0007993607974134,0.0237151848102485,-0.1341638086666545,92.4,3.0,65.55,-984.86328,43.45703,-155.76172,0.0763415741468579,0.0217166082837898,-0.0498284520127373,49.95,19.8,-16.65
-608.39844,90.33203,-751.95312,-0.3738469077833074,0.1004564393558132,-0.1745329251994329,-25.8,31.05,10.8,-622.55859,-66.40625,822.26562,-0.1003230962009608,0.0091929982361045,-0.0952604196397009,92.4,3.0,65.55,-970.70312,43.94531,-151.85547,0.1067181571131932,0.0631515973907612,-0.0901975685455157,51.0,20.85,-18.45
-594.72656,51.26953,-749.02344,-0.3489326817769387,0.0226493122360556,-0.1184425808963904,-25.35,31.05,11.4,-583.00781,-29.29688,847.16797,0.0151883787496302,-0.0245145456076619,-0.1672051603349347,92.4,3.0,65.55,-952.63672,46.875,-158.69141,0.0989908863829135,-0.0039969785199922,-0.0923293136939016,51.0,20.55,-16.95
-591.30859,26.36719,-749.51172,-0.3829065628645595,0.0662158719584876,-0.1706692898342931,-26.1,30.6,10.35,-594.72656,-40.52734,841.30859,-0.0768744231674918,-0.0287778613715085,-0.1570796326794896,92.7,3.75,65.1,-945.80078,59.08203,-153.80859,-0.0002665117767795,0.0871332939777893,-0.0562235129249697,50.55,19.5,-17.1
-596.67969,-10.74219,-771.97266,-0.2972388218596699,0.0776737839649052,-0.203577298347721,-24.9,32.7,10.2,-610.83984,-4.39453,768.06641,0.0325085026476463,-0.0146553551960711,-0.2158345711515519,91.95,3.75,66.6,-973.14453,82.51953,-153.32031,0.0639509581881746,-0.0005328490206338,-0.0405022851547056,50.55,19.5,-17.1
-598.14453,-24.41406,-771.97266,-0.2009127041787012,0.0571562168772355,-0.125503833984109,-26.25,31.2,10.95,-626.46484,-10.25391,782.22656,0.0035972981212855,-0.040235773377926,-0.1011224569983742,92.55,4.2,64.95,-963.86719,57.12891,-149.41406,0.0667488955120467,0.0662158719584876,-0.0197182062902563,52.35,22.2,-18.15
-612.79297,-1.46484,-787.10937,-0.1280352595312016,0.0989908863829135,-0.0783399761403914,-26.25,31.2,10.95,-612.79297,34.17969,782.22656,0.0041301471419193,0.0159877395470436,-0.1205743260447762,92.7,3.75,67.2,-976.5625,58.10547,-160.64453,0.1091164140383586,0.0439662401211387,-0.0217166082837898,50.7,21.15,-18.0
-601.07422,0.0,-799.31641,-0.0716784034513795,0.0901975685455157,-0.1413584049092255,-25.05,31.8,11.4,-625.48828,8.30078,775.87891,-0.0519601971611231,-0.0170536121212365,-0.0530260697353161,91.35,2.7,67.5,-997.07031,21.97266,-161.62109,0.0550244717288496,0.0900643999235885,-0.0425006871482391,50.55,21.0,-18.15
-628.41797,5.85937,-811.52344,0.0391699008037331,-0.0075941021083525,-0.0706125308771865,-25.65,31.65,11.25,-625.97656,30.27344,770.99609,-0.0415681577288985,0.0282450123508746,-0.1013889687751538,93.6,3.45,67.05,-1008.30078,-0.97656,-141.11328,0.0175864611418704,0.0219831200605693,-0.0067947413109391,50.25,19.35,-19.5
-631.83594,14.64844,-805.66406,-0.0033307863445059,0.0282450123508746,-0.0603538345998143,-27.3,30.45,11.55,-638.18359,22.94922,785.15625,-0.0351730968166661,0.0531592383572432,-0.1075176924435318,93.6,3.45,67.05,-1009.76562,19.04297,-134.76562,0.0430337107017981,0.0587549384720623,0.0085268060606182,51.15,19.95,-18.6
-630.37109,30.27344,-823.24219,0.0780734643636119,0.0141225061754373,-0.0238483534321757,-27.3,30.45,11.55,-647.46094,10.74219,773.92578,-0.0567565364785288,0.0688804661275074,-0.0790061683158777,92.4,4.5,66.6,-996.58203,-7.8125,-129.39453,0.0539585991546566,0.0443659205198454,0.0847350370526239,51.75,20.85,-17.4
-616.21094,33.69141,-818.84766,0.1541485267336904,-0.0488959225933967,-0.0014655529728996,-25.2,32.7,9.9,-661.62109,18.06641,801.26953,-0.0658161915597809,0.0077274452632048,-0.0321086477160144,93.3,2.7,67.05,-1009.27734,17.57813,-128.41797,0.0353062654385932,0.0253139064050753,0.0221164632154217,51.75,20.85,-17.4
-623.53516,41.01563,-806.15234,0.1550812306859561,-0.0377045223637587,-0.0643506385868813,-25.65,30.9,12.3,-649.41406,0.48828,813.47656,-0.08420218803199,0.0949939078629213,-0.0738101485997654,92.55,2.7,67.05,-1032.71484,5.37109,-117.67578,0.023981696587028,0.051827028539196,0.0523598775598298,50.1,21.0,-18.15
-588.37891,27.83203,-805.66406,0.1438898304563181,-0.043566559722432,-0.0283781809728018,-25.2,31.2,11.55,-563.47656,-34.17969,882.8125,-0.0173201238980161,0.2334212068263476,-0.0447657754514773,92.55,3.15,66.0,-1032.71484,10.25391,-102.05078,0.0227824808579827,0.0109248884528585,0.0731439564242791,50.1,21.0,-18.15
-609.86328,27.34375,-802.73437,0.2069080846922269,-0.0586217698501351,0.0242480338308824,-26.85,31.05,10.8,-680.17578,2.44141,809.57031,-0.0261132672024887,0.1541485267336904,-0.0969923098564548,92.4,4.8,66.9,-1029.78516,24.41406,-123.04688,0.0202512298438154,-0.0057288687367461,0.0021317451483858,51.0,20.55,-18.75
-603.51562,24.41406,-817.38281,0.1722680114291199,-0.0217166082837898,-0.0527595579585365,-26.85,31.05,10.8,-641.60156,-12.20703,827.14844,-0.0462311538914518,0.0668820641339739,-0.1001899275790336,93.75,3.75,65.55,-1019.53125,28.80859,-116.69922,0.0433002224785777,0.0539585991546566,0.0863337586474507,50.85,20.7,-18.9
-617.67578,27.83203,-800.29297,0.1453552088962925,0.0158545709251164,-0.0369049870334201,-26.85,31.05,11.1,-634.76562,2.92969,823.24219,0.0066615726890119,0.0082602942838387,-0.0726111074036452,93.75,3.75,65.55,-1034.66797,63.47656,-113.76953,0.0520933657830503,-0.0225161436141284,0.0341072242424731,50.85,20.7,-18.9
-612.79297,16.11328,-787.59766,0.216367594705111,-0.0768744231674918,-0.015055210127703,-26.1,30.6,11.85,-624.51172,7.32422,842.28516,-0.04849624219469,-0.0221164632154217,-0.0390367321818059,92.1,1.95,66.0,-1016.60156,59.08203,-108.39844,0.0945942274642146,-0.0122572728038309,0.0436999028772844,51.0,20.55,-16.95
-601.07422,21.48438,-778.80859,0.1461547442266311,-0.058088746296576,-0.0748760211739583,-25.8,30.3,10.8,-632.32422,-5.37109,824.70703,-0.0251807377831481,-0.0731439564242791,-0.1384272989634262,92.1,3.45,66.75,-1003.41797,56.64063,-109.375,0.1358958734163337,-0.0436999028772844,0.0255804181818548,50.55,19.95,-18.9
-605.46875,24.90234,-758.30078,0.1358958734163337,-0.0019984019935335,-0.0440995832759911,-25.8,30.3,10.8,-626.95312,8.78906,797.85156,0.0289112045263608,-0.0567565364785288,-0.0925956509377559,93.0,4.5,66.15,-1003.41797,72.75391,-96.67969,0.1172435397002702,-0.0006661921754862,0.0387702204050264,51.6,21.0,-17.55
-591.79687,38.08594,-760.74219,0.1749326055981396,-0.1069846688899728,-0.0054625314928918,-25.05,30.3,10.35,-618.16406,7.8125,810.05859,0.059154618870769,-0.0735436368229858,-0.1235054319905755,93.0,4.5,66.15,-981.44531,52.73438,-113.76953,0.0846018684306967,-0.0640843013430269,0.0326416712695735,50.55,20.25,-17.55
-586.42578,36.13281,-741.21094,0.070346019100407,-0.0302434143444081,-0.0640843013430269,-26.25,31.2,10.65,-605.95703,8.78906,811.52344,0.0054625314928918,-0.0816707624848974,-0.1454885520511449,93.45,1.8,66.9,-971.67969,78.125,-105.95703,0.037970859607613,0.0293108849250675,0.0110582316077108,50.55,20.25,-17.55
-578.61328,55.66406,-738.28125,0.0650168307623675,-0.0269126279999021,-0.0694134896810664,-26.85,31.05,9.75,-605.95703,11.71875,816.89453,-0.0030642745677264,-0.0610198522423753,-0.0650168307623675,91.35,2.7,67.8,-980.95703,87.89063,-137.69531,0.0011990411961201,0.0523598775598298,-0.0097258472567384,50.55,20.7,-18.15
-597.65625,56.15234,-729.00391,0.0578224090527217,-0.0389035635598788,-0.0071944217096458,-25.05,29.25,10.8,-597.16797,18.06641,812.98828,-0.0082602942838387,-0.1196416220925105,-0.0993905667816202,91.35,2.7,67.8,-977.53906,88.37891,-126.46484,-0.0086599746825454,0.0058622118915985,0.0203843984657425,50.55,20.7,-18.15
-614.25781,58.59375,-750.0,0.050761155965003,0.0361056262360067,-0.046897346066938,-25.05,29.25,10.8,-595.21484,25.39063,789.0625,0.0173201238980161,-0.1024548413493467,-0.1012558001532266,93.0,4.05,67.2,-981.93359,76.17188,-135.74219,-0.0542251109314362,0.0331745202902074,0.0182526533173567,51.45,19.05,-18.0
-627.92969,47.36328,-749.51172,-0.0174532925199432,0.0405022851547056,-0.0747426780191059,-25.05,29.25,10.8,-607.91016,42.48047,761.23047,-0.0281118437289474,-0.1072511806667523,-0.0976585020319411,93.0,1.5,66.6,-955.56641,73.73047,-128.90625,-0.0807380585326316,-0.0103920394322246,0.0153215473715574,49.8,19.5,-17.85
-650.87891,28.80859,-766.11328,0.0050628510941851,-0.0258469299586344,0.0034639549664331,-26.1,31.35,10.8,-596.67969,31.25,783.20312,-0.0294440535469947,-0.1293674693492489,-0.08420218803199,93.6,3.15,67.05,-945.80078,85.44922,-135.25391,-0.077007591789419,0.0017320647496791,0.0247810573844414,52.05,20.85,-18.45
-648.92578,10.74219,-770.99609,-0.0086599746825454,-0.0158545709251164,-0.0730107878023519,-25.95,29.7,10.95,-595.21484,47.85156,786.13281,-0.0015987215948268,-0.0393032439585855,-0.0357059458372999,93.6,3.15,67.05,-961.91406,83.98438,-160.64453,-0.1438898304563181,0.0090596550812521,0.0772741035661985,50.85,20.25,-18.6
-646.48437,4.39453,-767.57812,0.014522186574144,-0.0182526533173567,-0.0203843984657425,-25.2,29.4,11.55,-585.9375,22.46094,797.36328,-0.0358392889921523,-0.0464976656682313,-0.0017320647496791,93.9,3.15,66.3,-945.3125,57.12891,-148.92578,-0.161209779821409,0.085934078248744,-0.0021317451483858,50.85,20.25,-18.6
-636.71875,-6.34766,-761.23047,0.0702128504784798,-0.0796723604913639,0.0266462907560478,-25.2,29.4,11.55,-598.14453,34.66797,790.03906,-0.0618192130397887,-0.0498284520127373,-0.020117886688963,94.2,2.55,66.15,-971.19141,68.35938,-180.17578,-0.2263599537386289,0.0347734164179594,-0.0399694361340717,52.05,19.8,-16.95
-627.92969,5.37109,-742.1875,0.0575558972759422,-0.0682144484849463,-0.0393032439585855,-25.95,29.7,10.2,-606.93359,19.04297,807.12891,-0.0406354537766327,-0.0397029243572922,0.0101255276554451,92.7,2.55,67.2,-958.49609,45.41016,-190.91797,-0.1847917960097304,0.1004564393558132,-0.0282450123508746,52.05,19.8,-16.95
-644.53125,14.16016,-749.51172,0.0688804661275074,-0.0397029243572922,-0.027312482931534,-25.8,29.85,12.15,-622.55859,17.57813,779.78516,-0.1117810082073784,-0.03064326927604,0.0606201718436686,92.1,2.7,67.05,-943.35937,62.98828,-207.03125,-0.1835925802806851,0.093128674491315,-0.0361056262360067,50.1,21.45,-17.85
-652.34375,16.11328,-763.18359,0.1277687477544221,-0.0618192130397887,-0.020117886688963,-25.05,30.6,11.1,-606.93359,19.04297,792.48047,-0.0881991665519822,-0.0155880591483369,0.0475635382424242,93.3,0.9,67.05,-981.44531,48.33984,-198.24219,-0.1528161423827179,0.0503614755662963,-0.0265129476011954,50.55,20.25,-17.1
-627.44141,25.39063,-767.57812,0.1296339811260284,-0.0500949637895168,0.0039969785199922,-26.1,29.25,11.1,-623.04687,-11.23047,790.03906,-0.0460979852695246,-0.0247810573844414,0.0017320647496791,92.7,2.55,68.4,-966.79687,65.91797,-171.38672,-0.0760750623700784,0.0139893375535101,-0.0532925815120956,50.7,21.15,-16.65
-630.85937,34.66797,-773.4375,0.0519601971611231,-0.0354394340605204,-0.0514271736075641,-26.1,29.25,11.1,-619.62891,-14.64844,784.17969,-0.0374380105869791,0.0467641774450108,-0.015055210127703,92.7,2.55,68.4,-953.125,50.78125,-175.29297,-0.0961929490590414,0.0623522365933478,-0.08420218803199,50.25,20.85,-16.2
-629.39453,20.99609,-785.15625,0.0835359958565038,-0.0539585991546566,0.0,-23.85,30.45,9.9,-620.11719,-10.74219,774.41406,-0.027312482931534,0.0279785005740951,0.0113245688515652,92.55,4.2,68.1,-973.14453,52.24609,-183.59375,-0.1354961930176269,0.0494287716140306,-0.0559571756811154,49.95,20.55,-18.0
-635.25391,13.18359,-799.31641,0.1164441789028568,-0.0856677410048896,0.0309096065198943,-25.95,30.15,11.55,-647.94922,-13.18359,774.90234,-0.0307764378979672,-0.0058622118915985,0.0018652333716063,92.7,1.5,67.2,-1001.95312,48.33984,-158.20312,-0.0550244717288496,0.0129234649793172,-0.1268362183350815,50.7,20.55,-17.4
-649.90234,-4.39453,-802.24609,0.0760750623700784,-0.0411684773301918,-0.040235773377926,-23.85,29.4,10.65,-641.60156,-10.25391,792.48047,0.0037304667432126,0.0314426300734534,0.0259800985805615,93.9,2.4,67.8,-991.69922,47.36328,-157.71484,-0.0712787230526728,0.036238969390859,-0.0692803210591393,50.7,20.55,-17.4
-651.85547,2.44141,-781.25,0.0921959705390492,-0.0711455544307456,-0.0615528757959344,-23.85,29.4,10.65,-637.20703,-17.57813,783.20312,-0.0175864611418704,0.0656830229378538,-0.0067947413109391,93.9,2.4,67.8,-995.60547,42.48047,-153.32031,-0.0311761182966739,0.0927289940926083,-0.1125803690047918,50.7,20.1,-17.4
-645.50781,1.46484,-763.18359,0.1088499022615791,-0.0623522365933478,-0.0157212277702641,-23.4,28.95,9.15,-637.69531,-4.88281,783.20312,0.0266462907560478,0.0588882816269146,0.005595700114819,93.9,2.4,67.8,-996.09375,21.97266,-163.57422,0.0037304667432126,0.0311761182966739,-0.0555574952824086,50.7,20.1,-17.4
-635.74219,13.18359,-758.78906,0.0182526533173567,-0.0739433172216925,-0.0029311059457992,-25.65,28.2,9.15,-640.13672,3.41797,778.80859,0.0410353087082646,0.0568897051004559,-0.0206509102425221,92.1,3.15,67.8,-1007.8125,34.17969,-129.88281,-0.0652833425391471,0.0101255276554451,-0.0716784034513795,50.7,20.1,-17.4
-619.62891,20.50781,-765.13672,0.0881991665519822,-0.0225161436141284,0.0588882816269146,-25.05,28.8,11.4,-584.96094,-25.39063,790.52734,0.063018428768834,0.0903307371674429,0.0091929982361045,92.7,3.0,67.2,-1007.8125,30.76172,-140.13672,0.0103920394322246,-0.0266462907560478,-0.0823369546603836,50.85,20.25,-19.65
-618.16406,11.23047,-761.71875,0.067015232755901,-0.0209172474863764,0.0880658233971298,-26.4,29.55,11.4,-726.07422,21.48438,756.83594,0.0297105653237742,0.1907871765232561,0.0131899767560967,92.7,3.0,67.2,-1011.71875,11.71875,-145.99609,0.0326416712695735,0.0287778613715085,-0.0730107878023519,51.45,19.8,-18.0
-618.65234,20.01953,-763.67187,0.0575558972759422,0.0370383301882724,0.0203843984657425,-26.4,29.55,11.4,-666.01562,-35.15625,790.03906,0.0031976177225788,0.1252373222073295,0.0105252080541518,91.65,3.0,67.65,-1002.92969,19.53125,-150.39062,0.023448673033469,0.0250473946282958,-0.0932618431132422,51.75,20.85,-19.05
-627.92969,40.03906,-779.78516,0.0486294108166172,0.0627519169920545,0.0029311059457992,-26.25,28.65,10.2,-663.08594,-4.39453,795.89844,0.0740764858436197,0.0839356762552105,-0.0515605167624164,92.85,1.65,66.3,-994.62891,30.27344,-129.39453,-0.0039969785199922,-0.0262466103573411,-0.0811377389313384,50.7,22.35,-18.75
-630.85937,21.97266,-775.87891,0.06634921511334,0.0241148652089552,0.0246477142295891,-24.45,27.9,10.95,-654.29687,-11.23047,805.17578,0.0086599746825454,0.0523598775598298,-0.0131899767560967,93.75,2.55,67.95,-1004.88281,25.87891,-146.48437,-0.0091929982361045,0.0225161436141284,-0.0755420388165193,50.7,22.35,-18.75
-628.41797,15.625,-780.27344,-0.0138559943986577,0.0758085505932989,-0.0627519169920545,-26.25,30.15,10.2,-632.8125,-9.76562,802.73437,0.0494287716140306,0.0171867807431637,-0.0318423104721601,93.75,2.55,67.95,-1006.34766,24.41406,-151.36719,0.0133231453780239,-0.006128723668378,-0.0233155044115418,51.75,20.85,-17.4
-634.27734,16.60156,-782.22656,0.036238969390859,0.1125803690047918,0.0157212277702641,-26.25,30.15,10.2,-646.48437,-11.23047,801.75781,0.0291777163031404,0.0478300500192038,0.0162542513238231,93.0,1.8,68.4,-984.86328,30.27344,-144.04297,0.0314426300734534,-0.0269126279999021,-0.0359724576140795,51.75,20.85,-17.4
-635.25391,16.11328,-768.06641,0.0155880591483369,0.0943277156874351,0.0035972981212855,-25.35,30.3,9.75,-643.55469,-4.39453,795.41016,0.043566559722432,-0.0141225061754373,-0.0419678381276052,92.85,1.95,68.1,-996.58203,31.25,-144.04297,0.0035972981212855,-0.0351730968166661,-0.0511608363637097,49.95,20.1,-17.7
-639.16016,11.23047,-767.08984,-0.0081271256619115,0.1610766111994818,-0.0242480338308824,-25.65,30.45,9.6,-622.55859,-10.74219,803.22266,0.0042633157638465,-0.0250473946282958,-0.0005328490206338,93.45,3.75,65.85,-987.30469,34.17969,-136.23047,-0.0370383301882724,0.0242480338308824,-0.0383705400063197,49.95,19.8,-19.8
-634.76562,31.25,-780.27344,0.0455651362488907,0.0963261176809686,0.0269126279999021,-24.0,28.5,11.1,-621.09375,-21.97266,805.66406,0.0174532925199432,0.0181194846954295,0.0125237845806105,93.3,1.95,67.05,-971.67969,51.26953,-150.39062,-0.0867336135790826,0.034640073263107,-0.0858009096268168,52.05,21.6,-17.7
-621.58203,28.32031,-756.34766,0.0315757986953806,0.0863337586474507,0.0227824808579827,-25.05,29.55,10.35,-607.91016,-6.83594,800.29297,0.0219831200605693,-0.0025314255470925,0.0070612530877186,94.2,3.0,67.2,-982.42187,44.92188,-143.55469,-0.049162259837251,-0.015055210127703,-0.0802052095119978,50.85,20.7,-17.85
-612.79297,19.04297,-763.18359,0.0294440535469947,0.0510274932088574,0.0035972981212855,-25.05,29.55,10.35,-603.02734,-17.57813,795.41016,0.0231821612566894,0.0046631706954784,-0.0039969785199922,93.6,1.65,67.5,-978.51562,32.22656,-153.80859,-0.0584886012282079,0.0261132672024887,-0.0027979373238721,51.75,20.1,-19.05
-617.67578,32.22656,-776.36719,0.032908183046353,0.0763415741468579,-0.0115910806283447,-25.2,29.4,9.9,-619.14062,1.95312,808.10547,-0.0387702204050264,0.0319754790940873,-0.0401026047559989,93.6,1.65,67.5,-982.42187,50.78125,-143.55469,-0.0626187483701273,0.0271791397766816,-0.0470306892217904,51.15,18.45,-18.9
-620.11719,32.22656,-763.67187,-0.0038636353651398,0.0879326547752027,-0.0398360929792193,-25.95,28.65,8.85,-604.00391,-9.27734,802.24609,0.0270459711547545,0.0002665117767795,-0.0303767574992605,92.55,2.4,67.8,-965.33203,39.0625,-155.27344,-0.0436999028772844,0.0035972981212855,-0.0314426300734534,51.15,18.45,-18.9
-628.90625,29.29688,-771.48437,-0.0447657754514773,0.0739433172216925,-0.052493046181757,-25.2,28.65,9.6,-620.11719,-13.67187,791.01562,0.013456313999951,0.0503614755662963,-0.0231821612566894,93.0,3.75,66.15,-973.14453,40.03906,-139.64844,-0.1052526041402936,0.0079939570399844,-0.0009327039522657,51.9,20.25,-17.85
-619.14062,3.41797,-786.62109,-0.0133231453780239,0.0832694840797242,0.0057288687367461,-25.2,28.65,9.6,-615.23437,-27.83203,784.66797,0.0215834396618626,0.0602204914449619,-0.0213169278850831,91.65,1.8,66.9,-976.5625,50.78125,-154.29687,-0.1009892883764471,0.0911300979648563,-0.0909969293429291,51.9,20.25,-17.85
-620.60547,13.67187,-761.71875,0.0254472495599277,0.0840688448771376,-0.0810045703094112,-24.9,29.4,10.65,-622.55859,-22.46094,792.48047,0.0423675185263119,0.0251807377831481,-0.050761155965003,93.6,1.65,65.25,-974.60937,31.25,-161.13281,-0.1396263401595463,0.0803383781339249,-0.032375159492794,49.95,20.1,-18.45
-608.88672,5.85937,-775.87891,0.0103920394322246,0.0626187483701273,-0.0279785005740951,-25.8,28.8,10.05,-632.32422,-24.90234,785.15625,0.0415681577288985,0.0639509581881746,-0.0097258472567384,92.55,2.7,65.25,-966.30859,27.83203,-140.625,-0.1021883295725672,0.0460979852695246,-0.0499617951675896,52.05,20.1,-17.7
-611.32812,-9.27734,-779.78516,0.0478300500192038,-0.0117244237831971,-0.027312482931534,-25.2,30.45,10.65,-615.23437,-18.06641,774.90234,0.0726111074036452,0.0512940049856369,-0.037970859607613,93.3,2.7,65.7,-976.07422,31.73828,-149.41406,-0.045165455850184,0.0556906639043358,-0.0126569532025376,51.9,20.25,-18.15
-611.32812,11.71875,-796.875,0.0026645941690197,0.0735436368229858,-0.0394364125805126,-26.4,29.85,9.3,-616.21094,-11.23047,798.33984,0.064750318985588,0.0398360929792193,-0.0440995832759911,93.3,2.7,65.7,-997.55859,25.87891,-143.55469,-0.0706125308771865,0.0383705400063197,-0.0427671989250186,50.85,20.25,-18.9
-573.24219,81.05469,-852.53906,0.0247810573844414,0.1648070779426945,-0.0059953805135257,-28.2,29.55,10.8,-609.375,35.15625,754.39453,0.0887320155726161,-0.0866002704242302,-0.1909203451451833,93.45,2.55,66.9,-988.28125,88.86719,-136.71875,0.116577347524784,-0.1085833904847996,0.0662158719584876,50.7,23.1,-18.75
-551.75781,75.68359,-858.39844,0.052493046181757,0.1091164140383586,0.029044373148288,-29.1,30.15,11.25,-638.18359,30.76172,806.15234,0.0117244237831971,0.0025314255470925,-0.1454885520511449,93.45,2.55,66.6,-983.88672,83.49609,-143.55469,0.1357627047944065,-0.1091164140383586,-0.0261132672024887,49.35,22.95,-17.85
-547.85156,71.77734,-859.86328,-0.0035972981212855,0.1039203943222463,-0.1021883295725672,-28.35,31.2,9.6,-652.34375,87.40234,746.58203,0.0659495347146333,-0.0251807377831481,-0.1540153581117632,93.45,4.05,66.9,-981.93359,73.24219,-142.08984,0.1775971997671594,-0.0881991665519822,0.0444992636746978,49.35,22.95,-17.85
-559.57031,90.33203,-844.72656,0.0165205885676775,0.063684446411395,-0.1056524590719255,-28.2,30.6,10.8,-687.5,-3.41797,771.48437,-0.0660827033365605,-0.0746095093971788,-0.1125803690047918,91.65,3.75,66.9,-974.60937,66.89453,-137.20703,0.2047763395438411,-0.0751423584178126,0.0195850376683291,49.35,22.95,-17.85
-547.85156,91.30859,-822.75391,0.074209828998472,0.0023980823922402,-0.0011990411961201,-28.2,30.6,10.8,-656.73828,-50.29297,738.76953,-0.032375159492794,-0.1245711300318432,-0.194650811888396,94.2,2.25,67.2,-953.125,86.91406,-126.46484,0.2374180108134146,0.0486294108166172,-0.0508943245869302,49.8,23.25,-18.6
-551.75781,93.75,-851.5625,0.0708790426539661,0.0050628510941851,-0.0226493122360556,-28.05,29.7,9.6,-570.3125,113.76953,764.64844,-0.0840688448771376,-0.0227824808579827,-0.1361623851931132,92.85,2.4,65.25,-981.93359,74.21875,-147.94922,0.207441108245786,-0.0010658725741929,0.0033307863445059,49.8,23.25,-18.6
-547.85156,83.98438,-839.84375,0.0311761182966739,0.0213169278850831,-0.0639509581881746,-27.9,29.85,11.85,-658.69141,-24.41406,803.22266,0.229290885151503,0.0189188454928429,-0.2536722621372378,93.75,1.5,68.4,-971.19141,101.5625,-177.24609,0.2591347936301297,0.0723445956268657,-0.0067947413109391,51.45,22.35,-18.0
-544.92187,46.38672,-844.23828,0.0514271736075641,-0.0119907610270514,-0.0872664625997164,-28.05,31.65,10.65,-567.87109,24.90234,758.30078,-0.0057288687367461,0.1570796326794896,-0.1252373222073295,93.75,1.5,68.4,-970.21484,79.10156,-174.31641,0.1843921156110237,-0.0679479367081668,0.0209172474863764,51.6,22.2,-18.15
-543.45703,28.32031,-841.30859,0.0279785005740951,-0.0965926294577481,-0.059687642424328,-28.05,31.65,10.65,-625.0,51.75781,758.78906,0.1089830708835063,-0.0419678381276052,-0.2250275693876565,92.55,3.15,66.0,-940.91797,81.05469,-188.96484,0.1875895588006773,0.0943277156874351,-0.0988575432280612,50.25,22.35,-17.4
-521.48437,9.76562,-843.26172,0.0205175670876697,-0.0572893854991626,-0.1052526041402936,-28.35,30.45,9.6,-670.89844,10.25391,773.4375,0.1357627047944065,-0.0564900247017492,-0.1849249646316576,92.4,1.5,64.8,-962.89062,99.60938,-194.33594,0.1636080367465744,0.0423675185263119,-0.0159877395470436,49.95,21.9,-18.45
-531.73828,9.27734,-819.82422,0.0159877395470436,-0.0896645449919567,-0.0683476171068735,-26.85,29.55,10.35,-650.39062,47.36328,754.88281,0.1197749652473628,-0.0194516945134768,-0.1762649899491121,93.0,2.25,66.9,-982.42187,93.26172,-206.54297,0.1181760691196108,0.0303767574992605,-0.0411684773301918,49.65,23.1,-17.4
-527.34375,-1.46484,-812.5,0.0419678381276052,-0.1448223598756587,-0.0231821612566894,-27.15,29.55,10.35,-661.62109,10.74219,762.20703,0.0253139064050753,0.0283781809728018,-0.1256370026060362,93.0,2.25,66.9,-974.60937,97.65625,-207.51953,0.0917962901403425,0.0325085026476463,-0.0242480338308824,49.8,22.2,-17.85
-518.06641,3.90625,-805.66406,0.0225161436141284,-0.1003230962009608,0.0006661921754862,-27.15,31.05,10.35,-652.83203,14.16016,798.33984,0.0017320647496791,0.0270459711547545,-0.1301670046795875,93.0,2.25,66.9,-961.42578,90.82031,-209.47266,0.1257703457608885,0.0715452348294523,-0.037970859607613,49.8,22.2,-17.85
-520.01953,-18.55469,-797.85156,-0.0258469299586344,-0.1089830708835063,-0.0715452348294523,-27.6,30.6,11.4,-652.83203,15.625,803.22266,-0.0562235129249697,0.0301102457224809,-0.0750091897958855,93.3,1.65,66.75,-967.28516,91.79688,-223.14453,0.1873230470238978,0.0622190679714206,-0.0321086477160144,49.65,21.15,-17.7
-535.15625,-9.76562,-807.61719,0.0009327039522657,-0.1189754299170242,-0.0063950609122324,-27.6,30.6,11.4,-650.39062,11.71875,790.52734,-0.0483628990398376,-0.0115910806283447,-0.0822036115055313,92.85,1.95,66.75,-999.02344,95.70313,-229.98047,0.1751991173749191,0.0079939570399844,0.0566231933236764,49.65,21.15,-17.7
-558.10547,-9.27734,-826.17187,-0.0572893854991626,-0.0774072721881257,-0.0867336135790826,-26.4,29.85,10.35,-643.06641,-2.44141,772.94922,-0.0612863640191548,0.0062618922903052,-0.0848683802074762,92.85,1.95,66.75,-972.65625,106.93359,-222.16797,0.1909203451451833,-0.0887320155726161,-0.0015987215948268,49.35,22.5,-18.15
-582.51953,-20.99609,-826.17187,-0.0584886012282079,-0.1060521394706322,-0.0795390173365115,-28.35,30.9,10.2,-630.37109,4.39453,773.4375,-0.0707458740320389,0.0626187483701273,-0.1240382810112094,92.55,1.65,66.75,-944.33594,77.63672,-204.10156,0.1953170040638822,-0.029044373148288,-0.0520933657830503,50.85,21.75,-19.2
-619.62891,-34.17969,-836.42578,-0.0065284040670847,-0.1432236382808319,-0.0543582795533633,-27.15,31.35,11.1,-640.13672,2.92969,735.35156,-0.0274456515534612,-0.0034639549664331,-0.0666155523571943,93.9,1.95,66.3,-952.14844,70.80078,-228.02734,0.2043766591451344,0.1003230962009608,-0.094860564708069,49.8,21.75,-17.55
-620.11719,-26.85547,-839.35547,0.0105252080541518,-0.1329647674705344,0.0003996803987067,-27.15,31.35,11.1,-641.60156,-3.41797,743.16406,-0.0335742006889141,0.0598208110462552,-0.0578224090527217,93.45,1.05,65.85,-957.51953,54.19922,-235.83984,0.1561469287272238,0.1453552088962925,-0.0595542992694757,49.8,22.2,-18.6
-625.0,-29.78516,-844.72656,-0.0339738810876208,-0.1329647674705344,-0.0674150876875329,-25.95,30.45,10.65,-635.25391,-4.39453,727.53906,-0.025713586803782,0.0774072721881257,-0.068081105330094,93.45,1.05,65.85,-952.14844,42.48047,-211.42578,0.1708024584562202,0.1726676918278266,-0.1196416220925105,51.0,21.9,-18.0
-632.32422,-31.25,-833.49609,0.0309096065198943,-0.1696034172601001,-0.0083936374386911,-27.15,28.8,10.8,-654.29687,1.46484,747.55859,-0.0125237845806105,0.1259035143828157,-0.0309096065198943,94.2,1.5,65.85,-950.68359,50.78125,-211.42578,0.1248376418086228,0.3132267359396388,-0.1193751103157309,50.7,21.6,-17.7
-625.97656,-21.48438,-841.30859,0.0554241521275563,-0.1140459219776914,0.0218499514386422,-28.8,29.7,10.95,-664.55078,-13.18359,748.04687,-0.0459648166475974,0.1264363634034496,-0.0069280844657914,94.2,0.3,66.6,-998.04687,39.0625,-188.47656,0.0434333911005048,0.2881791667784177,-0.0963261176809686,50.7,21.6,-17.7
-617.1875,-6.83594,-832.03125,-0.0002665117767795,-0.085934078248744,-0.0710122112758932,-26.25,28.95,10.65,-688.47656,-7.32422,768.06641,-0.0822036115055313,0.1692037368613934,-0.0153215473715574,93.0,0.75,65.85,-1024.90234,28.32031,-155.76172,0.0694134896810664,0.2226293124624911,-0.0959264372822619,50.1,21.45,-18.6
-604.00391,-2.44141,-810.54687,0.0635512777894679,-0.1048529237415869,-0.0282450123508746,-26.25,28.95,10.65,-642.57812,0.97656,783.20312,-0.1508177403891844,0.2709923860352539,-0.0037304667432126,93.3,2.4,67.8,-1032.22656,42.96875,-147.94922,-0.023981696587028,0.2037106415025733,-0.0778071271197576,50.1,21.45,-18.6
-590.82031,7.32422,-784.66797,0.0732771250462063,-0.0683476171068735,-0.0425006871482391,-28.95,29.85,10.05,-682.12891,-24.90234,802.73437,-0.1564134405040034,0.1730673722265333,0.0099923590335179,92.85,0.9,66.3,-1048.33984,59.57031,-154.29687,-0.0656830229378538,0.209706022016099,-0.0794058487145844,50.7,21.6,-19.5
-568.35937,19.53125,-780.76172,-0.0083936374386911,0.0059953805135257,-0.0771409349442713,-27.3,29.7,9.9,-662.59766,-30.27344,831.05469,-0.193584939314203,0.1736002212471671,0.0194516945134768,92.4,0.3,65.1,-1068.35938,84.47266,-153.80859,-0.0959264372822619,0.1534823345582041,-0.0365053066347134,49.35,20.7,-18.6
-562.01172,26.36719,-786.13281,0.0363721380127862,0.0237151848102485,-0.075275701572665,-28.65,31.8,10.8,-658.69141,-34.66797,827.63672,-0.1644073975439878,0.172401180051047,0.0309096065198943,92.4,0.3,65.1,-1052.24609,99.60938,-112.79297,-0.2034441297257938,0.1095160944370653,-0.050228132411444,49.35,20.7,-18.6
-564.94141,16.60156,-790.03906,0.0267794593779749,-0.0043966589186989,-0.0708790426539661,-28.65,31.8,10.8,-633.30078,15.13672,828.61328,-0.1582786738756097,0.1618759719968953,0.0467641774450108,93.45,1.05,64.8,-1065.91797,93.26172,-107.91016,-0.239283244185021,-0.0311761182966739,0.0229158240128351,50.85,21.45,-19.95
-602.05078,7.8125,-790.03906,-0.0131899767560967,0.1590780346730231,-0.0750091897958855,-26.25,28.95,10.95,-616.69922,11.23047,859.86328,-0.185724325429071,0.1049862668964393,0.027312482931534,93.45,1.05,65.1,-1046.38672,100.09766,-81.05469,-0.2506079875695113,-0.1127137121596442,0.0450321126953316,50.7,20.85,-19.05
-593.75,13.67187,-795.89844,0.0137228257767306,0.0728774446474996,-0.0779402957416847,-27.3,29.4,12.3,-624.51172,12.20703,828.125,-0.1373614263892333,0.041834669505678,0.0213169278850831,93.9,0.9,63.9,-1020.99609,94.23828,-62.01172,-0.261000027001736,-0.1536156777130565,0.0618192130397887,50.7,20.85,-19.05
-581.54297,3.90625,-799.80469,0.034640073263107,0.0698131700797731,-0.06634921511334,-27.15,30.6,11.1,-612.79297,15.625,837.40234,-0.1646737347878422,0.0194516945134768,0.0452986244721112,92.85,0.9,65.25,-990.23437,90.33203,-76.17188,-0.2266262909824833,-0.2065084042935202,0.0403691165327784,49.65,21.9,-19.05
-592.28516,4.39453,-803.71094,0.0065284040670847,0.1386936362072806,-0.1426906147272728,-27.15,30.6,11.1,-609.375,30.27344,828.61328,-0.1560137601052967,-0.0073277648644981,0.0951270764848485,94.5,1.05,65.55,-934.57031,84.96094,-65.42969,-0.2102388710367329,-0.1326982556937548,-0.0103920394322246,49.65,21.9,-19.05
-596.19141,-7.32422,-809.57031,0.0421010067495324,0.0214502710399355,-0.0511608363637097,-28.05,30.9,9.15,-604.00391,15.13672,829.58984,-0.1561469287272238,-0.0001331686219271,0.0274456515534612,93.0,1.05,66.6,-950.19531,77.63672,-39.55078,-0.1859908372058505,-0.0349065850398865,0.0515605167624164,50.55,21.0,-18.6
-597.16797,-12.20703,-817.87109,0.0683476171068735,-0.0881991665519822,-0.0708790426539661,-28.65,30.6,10.35,-587.89062,-15.13672,831.54297,-0.0907304175661496,-0.0439662401211387,0.0543582795533633,93.0,1.05,66.6,-958.98437,64.94141,-73.73047,-0.1401591891801802,-0.0222496318373489,0.0494287716140306,50.1,20.7,-18.15
-585.44922,-12.20703,-803.71094,0.0748760211739583,-0.0113245688515652,-0.1231057515918688,-27.3,29.7,9.9,-605.46875,-0.97656,821.28906,-0.1136462415789847,-0.0751423584178126,0.0651499993842947,93.0,1.5,66.9,-969.23828,40.52734,-73.24219,-0.1517504443414501,0.0318423104721601,0.0409019655534123,49.95,21.15,-18.0
-580.56641,-5.85937,-795.89844,0.0679479367081668,-0.0860674214035963,-0.0795390173365115,-27.6,30.3,10.35,-584.96094,-3.90625,826.17187,-0.0582220894514284,-0.0181194846954295,0.1409587245105188,93.3,0.9,64.95,-972.65625,35.15625,-71.28906,-0.1452220402743654,-0.0149218669728507,0.0182526533173567,49.8,20.7,-18.6
-579.58984,-14.64844,-791.50391,0.0734104682010586,-0.15561407970659,-0.0642174699649541,-27.6,30.3,10.35,-595.21484,-28.32031,819.82422,-0.1045865864977326,-0.0941945470655079,0.1177763887209041,93.45,1.05,66.15,-958.49609,0.48828,-85.44922,-0.0977916706538682,-0.0003996803987067,0.0345069046411798,50.85,22.2,-20.25
-567.38281,-6.83594,-775.87891,0.078606487917171,-0.1346968322202135,-0.1584120170304621,-28.2,29.55,10.8,-597.16797,-39.55078,811.52344,-0.0679479367081668,-0.0728774446474996,0.0564900247017492,93.45,1.05,66.15,-960.44922,-2.92969,-78.125,-0.069680001457846,0.0321086477160144,0.0508943245869302,50.55,19.5,-18.15
-562.98828,1.46484,-793.94531,0.0302434143444081,-0.1263031947815224,-0.0750091897958855,-26.4,29.85,11.1,-592.77344,-36.13281,811.03516,-0.0261132672024887,-0.0389035635598788,0.1003230962009608,93.9,1.65,65.7,-979.49219,7.32422,-83.98438,-0.040235773377926,-0.0417013263508257,0.057422728654015,50.55,19.5,-18.15
-566.89453,2.92969,-792.48047,0.063684446411395,-0.2314226302998889,-0.0619525561946411,-28.2,28.8,9.75,-588.86719,-30.76172,819.33594,-0.063684446411395,-0.0093261668580317,0.0459648166475974,92.7,0.75,66.9,-970.70312,37.59766,-106.44531,0.0377045223637587,-0.007860613885132,0.0584886012282079,49.35,21.75,-18.6
-580.07812,-5.37109,-790.03906,0.0583552580733556,-0.1975819178341952,-0.0406354537766327,-28.2,28.8,9.75,-609.375,-42.96875,830.56641,-0.0207840788644492,0.0250473946282958,-0.059687642424328,92.7,0.75,66.9,-994.14062,32.71484,-134.76562,0.0543582795533633,0.0230489926347623,0.0215834396618626,49.35,21.75,-18.6
-584.47266,-0.97656,-791.01562,0.0479632186411309,-0.2508744993462909,-0.0702128504784798,-27.3,28.95,11.55,-606.93359,-32.22656,851.07422,0.0615528757959344,0.0173201238980161,0.0286446927495813,92.55,1.2,67.05,-970.70312,50.78125,-131.83594,0.051827028539196,-0.0113245688515652,0.0121241041819038,50.1,21.45,-18.15
-564.94141,8.30078,-753.90625,0.0666155523571943,-0.3165575222841447,-0.0349065850398865,-27.15,27.75,12.15,-610.83984,-15.625,856.93359,0.0398360929792193,-0.0587549384720623,-0.0285115241276541,94.2,1.5,65.85,-980.46875,69.82422,-144.04297,0.0464976656682313,-0.0109248884528585,0.0098591904115907,50.55,21.45,-19.2
-555.17578,16.11328,-756.83594,-0.0043966589186989,-0.2808514019139195,-0.005595700114819,-27.0,29.7,11.25,-613.76953,-21.97266,834.47266,0.0762082309920056,-0.0920628019171221,-0.0005328490206338,93.3,0.9,66.3,-977.53906,93.26172,-150.87891,0.0929953313364626,-0.0255804181818548,-0.0382373713843925,49.95,20.85,-18.0
-546.38672,23.4375,-743.65234,0.0037304667432126,-0.2255604184082903,-0.0383705400063197,-26.25,28.95,11.25,-640.625,-5.85937,804.6875,0.1012558001532266,-0.1320322380511938,-0.0463644970463041,93.3,0.9,66.3,-979.98047,127.44141,-168.45703,0.1019218177957876,0.0482297304179105,0.0010658725741929,49.05,21.75,-18.9
-569.82422,17.57813,-748.04687,0.0711455544307456,-0.2760550625965139,-0.031309286918601,-26.25,28.95,11.25,-653.80859,-2.92969,782.71484,0.0739433172216925,-0.1192419416938038,-0.007860613885132,93.3,0.9,66.3,-968.26172,94.23828,-188.96484,0.0965926294577481,0.1069846688899728,-0.046897346066938,49.2,21.6,-18.0
-567.87109,27.83203,-745.11719,0.0121241041819038,-0.1710689702329998,0.0147886983509235,-26.1,29.55,9.75,-544.43359,32.71484,765.625,0.0650168307623675,-0.0671485759107534,0.0281118437289474,93.75,0.75,65.85,-975.58594,122.07031,-208.98437,0.1172435397002702,0.0466310088230837,-0.0267794593779749,51.15,22.95,-19.65
-582.51953,17.08984,-771.97266,-0.0363721380127862,-0.1131133925583509,0.0495619402359577,-26.4,29.25,10.35,-660.15625,11.23047,749.51172,0.0692803210591393,-0.1155114749505911,0.0373046674321268,94.2,0.3,66.6,-969.72656,93.26172,-186.03516,0.0599539796681824,0.0187856768709157,-0.0863337586474507,51.15,22.95,-19.65
-606.44531,14.64844,-809.57031,-0.0019984019935335,-0.1036538825454668,0.0118575924051242,-26.25,29.25,10.35,-680.66406,35.15625,766.60156,0.1506845717672572,-0.0041301471419193,-0.0169204434993094,92.4,1.05,66.15,-964.84375,124.02344,-154.78516,0.0207840788644492,0.0850015488294034,-0.0602204914449619,50.55,22.2,-19.2
