IMU1_AccX,IMU1_AccY,IMU1_AccZ,IMU1_GyrX,IMU1_GyrY,IMU1_GyrZ,IMU1_MagX,IMU1_MagY,IMU1_MagZ,IMU2_AccX,IMU2_AccY,IMU2_AccZ,IMU2_GyrX,IMU2_GyrY,IMU2_GyrZ,IMU2_MagX,IMU2_MagY,IMU2_MagZ,IMU3_AccX,IMU3_AccY,IMU3_AccZ,IMU3_GyrX,IMU3_GyrY,IMU3_GyrZ,IMU3_MagX,IMU3_MagY,IMU3_MagZ
-626.46484,73.24219,-752.44141,0.0508943245869302,0.0546247913301429,-0.004529827540626,-24.3,31.8,12.15,-606.44531,69.82422,808.10547,0.0162542513238231,-0.034640073263107,-0.1231057515918688,92.1,4.65,66.75,-980.46875,70.3125,-97.16797,0.0415681577288985,0.0508943245869302,0.0361056262360067,51.9,21.6,-16.95
-618.16406,75.19531,-748.04687,0.0916631215184153,0.0087933178373978,-0.0017320647496791,-24.3,31.8,12.15,-612.30469,65.42969,807.61719,0.0315757986953806,-0.0037304667432126,-0.0912634411197086,91.65,4.8,66.6,-995.60547,69.82422,-106.44531,-0.0082602942838387,0.0538254305327295,-0.0051960197161123,51.9,22.5,-15.75
-617.67578,77.14844,-738.76953,0.0567565364785288,0.0726111074036452,-0.0066615726890119,-24.3,31.8,12.15,-618.65234,38.08594,812.98828,0.032375159492794,-0.0123904414257581,-0.0370383301882724,93.45,5.25,66.6,-968.75,57.61719,-113.28125,0.0302434143444081,0.0330413516682802,-0.0049295079393327,51.9,22.5,-15.75
-637.20703,81.05469,-757.32422,0.1119141768293056,0.0105252080541518,-0.0298437339457014,-24.75,32.55,11.85,-623.04687,38.08594,815.42969,0.0121241041819038,-0.0103920394322246,-0.0403691165327784,91.65,4.05,66.9,-999.02344,39.55078,-97.65625,-0.0175864611418704,0.0241148652089552,-0.0046631706954784,51.75,21.15,-15.9
-630.37109,63.47656,-757.8125,0.1305666850782942,0.0294440535469947,-0.0011990411961201,-26.1,31.8,10.8,-612.30469,41.50391,814.45312,0.0314426300734534,0.0215834396618626,-0.0920628019171221,91.65,4.05,66.9,-996.09375,55.17578,-81.05469,-0.0397029243572922,0.0459648166475974,-0.0149218669728507,51.75,21.15,-15.9
-641.11328,56.64063,-768.55469,0.1404257009569597,0.0660827033365605,0.005595700114819,-25.95,31.65,10.95,-617.67578,37.59766,808.10547,-0.0035972981212855,0.0259800985805615,-0.068614128883653,91.8,5.4,66.75,-1010.74219,37.59766,-98.14453,-0.0459648166475974,0.1009892883764471,0.0860674214035963,51.45,21.15,-16.2
-635.74219,65.91797,-773.92578,0.1236386006125027,0.0301102457224809,-0.0419678381276052,-25.8,31.05,10.35,-616.69922,31.73828,810.54687,0.0071944217096458,-0.0293108849250675,-0.0406354537766327,91.8,3.15,66.75,-997.07031,34.17969,-104.98047,-0.0126569532025376,0.0923293136939016,0.0199847180670358,52.05,21.9,-15.9
-640.625,54.6875,-772.94922,0.1708024584562202,-0.0526263893366094,0.0251807377831481,-25.8,31.05,10.35,-626.46484,20.99609,803.22266,-0.0249142260063686,-0.0118575924051242,-0.0490290912153239,91.8,3.15,66.75,-1008.30078,42.96875,-98.14453,-0.0286446927495813,0.0370383301882724,0.0287778613715085,51.0,21.6,-15.9
-642.08984,55.66406,-765.13672,0.0981913510525749,-0.0410353087082646,-0.0612863640191548,-24.75,29.55,10.35,-612.30469,22.46094,796.38672,-0.0214502710399355,-0.0443659205198454,-0.0341072242424731,92.85,4.65,67.05,-1007.32422,51.75781,-111.81641,-0.0682144484849463,0.0307764378979672,0.007860613885132,50.85,21.75,-16.05
-641.60156,59.57031,-774.90234,0.0672817445326806,0.0075941021083525,-0.061419532641082,-24.0,31.8,11.4,-634.76562,41.50391,783.69141,-0.0727442760255724,-0.0151883787496302,-0.0285115241276541,92.4,5.25,67.2,-999.02344,34.66797,-112.30469,0.0265129476011954,0.0333078634450597,0.0277121633302407,51.6,22.2,-16.5
-631.34766,71.28906,-756.34766,0.1291011321053945,-0.050761155965003,-0.0417013263508257,-24.3,32.1,10.8,-627.92969,37.59766,782.22656,-0.0658161915597809,0.0085268060606182,-0.078606487917171,91.8,5.4,66.3,-998.04687,27.34375,-107.42188,0.0031976177225788,-0.022382800459276,0.068614128883653,52.8,22.35,-16.2
-626.95312,66.40625,-756.83594,0.086467101802303,-0.0251807377831481,-0.0121241041819038,-24.3,32.1,10.8,-638.67187,36.62109,810.05859,-0.0588882816269146,0.2796523607177994,-0.0935283548900217,91.8,5.4,66.3,-979.49219,21.97266,-102.05078,0.0085268060606182,0.0086599746825454,0.0170536121212365,52.8,22.35,-16.2
-633.78906,62.5,-756.34766,0.1099157748357721,-0.0266462907560478,0.0227824808579827,-25.35,31.35,10.05,-626.95312,26.36719,769.53125,-0.0302434143444081,0.0138559943986577,-0.0568897051004559,92.7,4.8,66.15,-1019.53125,24.90234,-97.16797,0.050761155965003,-0.0181194846954295,0.031309286918601,50.25,21.6,-16.2
-628.41797,68.35938,-770.50781,0.1280352595312016,-0.0690138092823597,-0.0394364125805126,-24.45,31.65,10.95,-635.74219,41.99219,804.6875,-0.0452986244721112,0.0989908863829135,-0.0682144484849463,92.4,3.3,67.2,-978.51562,24.90234,-101.07422,0.0359724576140795,0.0600873228230347,0.0075941021083525,50.25,21.6,-16.2
-628.90625,54.6875,-764.64844,0.1052526041402936,0.013456313999951,-0.0556906639043358,-25.05,32.1,10.05,-655.76172,30.76172,785.64453,-0.1127137121596442,0.0887320155726161,-0.0884655037958365,92.7,5.55,66.6,-1029.29688,36.13281,-108.88672,0.0393032439585855,0.0219831200605693,-0.0387702204050264,52.05,22.65,-17.4
-634.76562,52.73438,-760.74219,0.0643506385868813,-0.0357059458372999,0.0391699008037331,-23.85,31.2,11.55,-632.8125,25.87891,807.12891,-0.0824701232823108,0.0191853572696224,-0.0325085026476463,92.7,5.55,66.6,-1010.25391,38.57422,-112.30469,0.0077274452632048,0.0266462907560478,-0.0383705400063197,51.9,21.75,-17.1
-639.16016,76.17188,-760.74219,0.1015221373970809,-0.0712787230526728,0.0013323843509724,-23.85,31.2,11.55,-637.69531,43.94531,780.76172,-0.0901975685455157,0.0054625314928918,-0.0659495347146333,92.55,2.7,66.75,-1004.88281,55.17578,-122.07031,0.059154618870769,0.0297105653237742,-0.0075941021083525,51.0,22.35,-16.95
-641.11328,65.91797,-774.41406,0.0535589187559499,0.0117244237831971,-0.0755420388165193,-25.05,31.8,11.4,-645.99609,34.66797,780.76172,-0.0508943245869302,-0.0214502710399355,-0.0462311538914518,91.8,4.2,66.75,-994.62891,56.64063,-124.02344,0.0846018684306967,-0.022382800459276,-0.0265129476011954,52.05,23.4,-16.95
-638.67187,58.10547,-777.34375,0.0245145456076619,-0.0115910806283447,-0.0459648166475974,-24.9,31.65,11.55,-667.48047,28.32031,787.10937,-0.0170536121212365,0.020117886688963,-0.0652833425391471,91.65,4.5,66.6,-1020.01953,55.66406,-105.95703,0.067015232755901,-0.0820704428836041,-0.0037304667432126,50.85,23.25,-15.45
-652.83203,53.22266,-791.01562,0.0923293136939016,-0.0374380105869791,-0.063018428768834,-25.05,31.35,12.45,-660.15625,38.57422,768.06641,-0.0687472975055802,-0.0299770771005538,-0.0923293136939016,91.65,4.5,66.6,-1013.18359,38.08594,-92.77344,0.0643506385868813,-0.0283781809728018,-0.0099923590335179,50.85,21.45,-14.4
-655.76172,62.98828,-782.22656,0.0550244717288496,0.0225161436141284,-0.0687472975055802,-25.05,31.35,12.45,-658.20312,37.10938,780.27344,-0.0478300500192038,0.0479632186411309,-0.1366952342137471,93.45,4.5,66.6,-1014.16016,40.03906,-103.02734,0.0027979373238721,0.0307764378979672,-0.0198513749121835,50.85,21.45,-14.4
-644.53125,65.91797,-771.48437,0.0583552580733556,0.042900542079871,-0.0407687969314851,-25.35,30.3,10.8,-655.76172,42.48047,792.48047,-0.0487625794385443,-0.0069280844657914,-0.0760750623700784,91.2,2.55,67.2,-1016.11328,40.52734,-114.25781,-0.0162542513238231,0.0138559943986577,-0.0170536121212365,50.25,22.65,-15.15
-636.23047,74.70703,-782.22656,0.0899310567687362,-0.036238969390859,-0.0373046674321268,-25.95,31.2,11.55,-643.06641,39.55078,797.85156,-0.0843353566539172,0.0287778613715085,-0.0682144484849463,91.8,3.9,67.5,-1007.32422,34.66797,-123.53516,0.0357059458372999,0.0456983048708179,-0.0305099261211876,51.45,22.35,-16.2
-623.53516,70.80078,-764.16016,0.0197182062902563,0.0407687969314851,-0.1243047927879889,-25.05,31.35,9.75,-590.82031,21.97266,810.05859,-0.1060521394706322,0.0988575432280612,-0.0695466583029936,91.8,4.2,67.05,-1010.74219,27.34375,-104.98047,0.0097258472567384,0.0146553551960711,-0.0102588708102974,51.45,21.9,-16.65
-627.44141,69.33594,-761.23047,0.0582220894514284,0.0291777163031404,-0.0687472975055802,-24.3,29.55,10.35,-677.73437,20.50781,761.23047,-0.0791393369378048,0.0470306892217904,-0.0940612039106556,92.7,4.8,66.9,-1009.76562,30.76172,-97.16797,0.0143890179522168,0.0031976177225788,-0.0314426300734534,50.1,21.45,-15.45
-620.60547,64.45313,-752.92969,0.0664823837352672,-0.0354394340605204,-0.0626187483701273,-24.3,29.55,10.35,-642.08984,-8.78906,789.0625,-0.0578224090527217,-0.0005328490206338,-0.110981647409965,92.85,3.45,65.25,-1009.76562,38.08594,-92.77344,0.0604870032217414,0.0069280844657914,0.0115910806283447,50.1,21.45,-15.45
-637.69531,61.03516,-753.41797,0.0158545709251164,0.0439662401211387,-0.1133797298022052,-23.7,31.35,12.45,-636.71875,1.46484,802.24609,-0.0307764378979672,0.0081271256619115,-0.1095160944370653,92.85,3.45,65.25,-996.58203,38.57422,-98.14453,0.0354394340605204,0.0666155523571943,-0.0062618922903052,51.6,21.45,-16.8
-624.51172,56.15234,-758.30078,0.0342403928644003,0.057422728654015,-0.1224395594163826,-23.85,30.15,12.0,-634.27734,7.8125,781.73828,-0.0171867807431637,-0.057422728654015,-0.1067181571131932,91.35,4.65,66.75,-998.53516,42.48047,-104.98047,0.037970859607613,0.0763415741468579,-0.0154548905264097,51.75,22.35,-15.9
-641.60156,53.22266,-762.20703,0.1240382810112094,0.0267794593779749,-0.0359724576140795,-23.85,30.45,10.65,-645.01953,11.71875,790.03906,0.0218499514386422,-0.0463644970463041,-0.1474869540446784,93.45,4.8,66.15,-980.95703,41.01563,-113.28125,0.0624854052152749,0.0852680606061829,0.0070612530877186,51.75,22.35,-15.9
-623.53516,51.75781,-762.69531,0.1061853080925594,0.0131899767560967,-0.0944608843093623,-23.85,30.45,10.65,-638.18359,-1.46484,784.66797,0.0386370517830992,-0.0287778613715085,-0.1497518678149914,92.4,4.05,66.15,-1000.0,53.22266,-118.16406,0.077007591789419,0.0925956509377559,-0.0162542513238231,51.75,20.85,-15.9
-648.92578,36.13281,-765.625,0.0939280352887284,0.0848683802074762,-0.1528161423827179,-25.2,28.95,12.0,-632.32422,-10.74219,798.33984,0.0623522365933478,-0.0121241041819038,-0.1474869540446784,92.4,4.05,66.15,-985.83984,55.17578,-125.48828,0.1189754299170242,0.0265129476011954,-0.0349065850398865,51.75,20.85,-15.9
-633.78906,35.15625,-762.69531,0.1469541050240445,0.0082602942838387,-0.0727442760255724,-24.9,31.65,11.55,-634.76562,-15.13672,779.29687,0.094860564708069,-0.0460979852695246,-0.140026020558253,92.4,2.25,67.2,-985.83984,58.10547,-109.375,0.1520167815853045,0.0279785005740951,-0.0139893375535101,51.0,20.55,-15.6
-651.85547,36.62109,-771.48437,0.1517504443414501,0.0394364125805126,-0.0536922619108023,-25.35,29.85,10.8,-638.67187,8.78906,791.01562,0.0623522365933478,0.0038636353651398,-0.1040535629441735,92.85,4.95,65.25,-987.79297,69.82422,-111.81641,0.1309663654770009,0.0087933178373978,0.0006661921754862,52.05,21.9,-16.95
-657.71484,23.92578,-765.625,0.1075176924435318,0.0426340303030914,-0.063018428768834,-25.05,30.3,9.3,-644.53125,0.48828,794.92187,0.0567565364785288,-0.0043966589186989,-0.1362955538150403,92.85,4.95,65.25,-975.09766,50.29297,-134.76562,0.1401591891801802,0.0499617951675896,-0.0548913031069224,52.35,21.0,-16.8
-645.99609,21.48438,-751.95312,0.1863905176045572,0.0231821612566894,-0.0598208110462552,-25.05,30.3,9.3,-633.78906,5.85937,796.875,0.0868667822010097,-0.007860613885132,-0.1714686506317065,92.55,3.45,66.3,-990.23437,62.01172,-117.67578,0.1189754299170242,-0.0149218669728507,0.0101255276554451,52.35,21.45,-16.8
-642.08984,15.625,-759.76562,0.1461547442266311,0.006128723668378,-0.0385038831611721,-23.1,30.45,11.25,-630.37109,53.22266,782.71484,0.0431668793237253,-0.0298437339457014,-0.1061853080925594,93.6,1.95,65.7,-992.67578,51.75781,-111.32813,0.1564134405040034,-0.0002665117767795,-0.0281118437289474,51.15,20.7,-16.05
-625.48828,19.04297,-764.64844,0.1350965126189202,0.0787396565390981,-0.1296339811260284,-24.0,31.05,10.05,-643.06641,31.73828,803.71094,-0.0173201238980161,-0.0279785005740951,-0.1689372250846139,91.8,3.15,66.75,-999.02344,42.48047,-95.21484,0.1032542021467601,-0.0050628510941851,0.0218499514386422,51.6,21.45,-16.8
-636.23047,35.64453,-748.53516,0.1646737347878422,0.0471638578437175,-0.0438330714992115,-24.45,30.45,10.95,-654.29687,30.76172,801.26953,0.0401026047559989,-0.0262466103573411,-0.1598775700033617,91.8,3.15,66.75,-993.65234,28.80859,-110.35156,0.1774640311452322,-0.0181194846954295,-0.0118575924051242,51.6,21.45,-16.8
-616.21094,37.10938,-754.39453,0.1574793130781963,0.079272505559732,-0.0860674214035963,-24.45,30.45,10.95,-584.96094,34.66797,800.78125,-0.002264913770313,-0.0534257501340228,-0.1036538825454668,92.55,2.4,66.0,-999.02344,13.67187,-125.97656,0.1881225823542364,0.0433002224785777,-0.0385038831611721,52.05,21.6,-17.4
-609.86328,41.99219,-755.37109,0.1016554805519333,0.1024548413493467,-0.0956601000384076,-24.45,30.45,10.95,-608.88672,1.46484,816.40625,-0.0163874199457503,-0.0231821612566894,-0.1019218177957876,93.45,3.3,66.6,-1012.69531,17.08984,-86.42578,0.1775971997671594,0.0711455544307456,-0.0282450123508746,52.05,21.6,-17.4
-617.67578,14.64844,-748.04687,0.0879326547752027,0.0852680606061829,-0.0082602942838387,-23.7,29.55,12.15,-637.20703,7.8125,837.40234,-0.0229158240128351,-0.0492956029921034,-0.0840688448771376,92.7,3.75,66.9,-1008.30078,22.94922,-96.19141,0.2330213518947157,0.0944608843093623,-0.0350397536618137,52.35,21.45,-17.1
-624.51172,-0.97656,-753.90625,0.0667488955120467,0.0767412545455646,-0.0548913031069224,-24.15,30.15,11.25,-630.85937,-17.08984,810.05859,-0.040235773377926,-0.0345069046411798,-0.1369617459905266,91.95,3.0,65.85,-999.02344,35.15625,-97.16797,0.2082404690431994,0.002264913770313,-0.0638177895662474,52.05,19.8,-17.4
-633.30078,4.88281,-769.04297,0.0496952833908101,0.086467101802303,-0.0552909835056291,-25.2,28.95,10.2,-636.23047,-24.41406,789.55078,-0.0463644970463041,-0.0207840788644492,-0.0771409349442713,91.95,2.25,65.85,-991.21094,24.90234,-112.79297,0.2123706161851188,0.1747994369762124,-0.0173201238980161,51.6,22.2,-17.85
-641.11328,2.44141,-768.55469,0.0909969293429291,0.0018652333716063,-0.0250473946282958,-24.75,29.55,10.05,-625.48828,-17.57813,789.55078,-0.0434333911005048,-0.0542251109314362,-0.1408253813556664,93.3,3.45,67.05,-1003.41797,35.64453,-109.86328,0.2150352103541385,0.0724777642487929,-0.0643506385868813,52.05,20.85,-16.65
-652.83203,12.69531,-776.36719,0.118842261295097,0.0526263893366094,0.0175864611418704,-24.75,29.55,10.05,-607.42187,11.71875,798.82812,-0.050228132411444,-0.0800720408900706,-0.1314992144976347,93.3,3.45,67.05,-976.5625,39.0625,-106.93359,0.22196329481993,0.116577347524784,-0.0387702204050264,52.35,21.45,-17.85
-646.48437,8.78906,-762.20703,0.1027213531261262,0.0929953313364626,-0.0339738810876208,-25.05,28.5,11.85,-602.05078,9.76562,825.19531,-0.0472970264656447,0.0107917198309313,-0.1027213531261262,93.45,2.55,66.9,-1006.34766,32.71484,-104.98047,0.1634746935917221,0.0858009096268168,-0.0165205885676775,50.55,21.75,-16.05
-638.67187,10.25391,-762.20703,0.0932618431132422,0.0062618922903052,-0.0139893375535101,-24.3,29.85,10.35,-618.16406,-12.20703,827.63672,-0.067015232755901,-0.0536922619108023,-0.0462311538914518,92.7,3.75,66.15,-970.70312,64.94141,-115.72266,0.2126371279618983,0.0784731447623186,-0.0417013263508257,50.55,21.75,-16.05
-625.48828,6.34766,-771.97266,0.0977916706538682,0.0021317451483858,-0.0174532925199432,-25.2,29.4,10.2,-630.37109,-18.06641,829.58984,-0.0109248884528585,-0.1024548413493467,-0.0822036115055313,92.55,3.45,66.3,-983.88672,65.91797,-111.81641,0.1909203451451833,0.1155114749505911,-0.0095926786348112,51.75,20.85,-16.2
-634.76562,0.48828,-770.01953,0.0544916227082157,0.0692803210591393,-0.1175098769441246,-25.2,29.4,10.2,-625.97656,-25.39063,800.29297,-0.0778071271197576,-0.0855343978500373,-0.1538820149569108,92.55,3.45,66.3,-992.1875,50.78125,-121.58203,0.1534823345582041,0.1160443239712249,-0.1004564393558132,51.45,20.85,-16.2
-635.25391,-0.48828,-757.32422,0.029044373148288,0.0149218669728507,-0.0848683802074762,-24.9,30.45,10.95,-619.62891,-31.25,829.10156,-0.0443659205198454,-0.1032542021467601,-0.0221164632154217,92.4,2.55,66.9,-971.19141,44.92188,-130.37109,0.1144456023763981,0.0724777642487929,-0.091529778363563,51.45,20.85,-16.2
-621.58203,-16.11328,-769.53125,0.0991240550048407,-0.0174532925199432,-0.1200413024912172,-25.95,28.95,9.9,-624.02344,-24.90234,787.59766,0.0079939570399844,-0.0578224090527217,-0.089797888146809,92.85,1.95,66.3,-967.77344,41.50391,-132.32422,0.1409587245105188,0.1364287224369675,-0.0199847180670358,50.25,20.55,-17.4
-632.8125,-9.27734,-772.46094,0.032375159492794,0.0307764378979672,-0.1438898304563181,-25.05,29.85,11.1,-626.95312,-15.13672,804.19922,-0.0794058487145844,-0.0405022851547056,-0.0760750623700784,93.6,3.45,67.5,-993.16406,32.71484,-116.69922,0.1133797298022052,0.1236386006125027,-0.0341072242424731,52.65,20.7,-16.5
-624.02344,-12.69531,-771.48437,0.0873996312216436,-0.0001331686219271,-0.0916631215184153,-25.8,28.5,11.85,-639.16016,-12.20703,814.94141,-0.0578224090527217,-0.0500949637895168,-0.0259800985805615,93.6,3.45,67.5,-995.60547,67.38281,-112.30469,0.1269693869570086,0.1304333419234418,-0.0651499993842947,52.5,20.1,-16.95
-628.90625,-21.97266,-775.39062,0.0924624823158288,0.0190520141147701,-0.0852680606061829,-25.65,29.4,10.95,-620.11719,-25.39063,795.89844,-0.0255804181818548,-0.0542251109314362,-0.0896645449919567,93.9,1.95,67.5,-1004.88281,79.58984,-127.92969,0.0917962901403425,0.0590214502488418,-0.0520933657830503,51.6,20.25,-17.1
-625.48828,-22.94922,-780.76172,0.0692803210591393,0.0760750623700784,-0.1442895108550248,-24.9,30.15,9.9,-618.65234,-37.10938,785.15625,-0.1152449631738115,-0.0081271256619115,-0.0186523337160634,92.55,1.95,67.05,-988.28125,59.08203,-130.37109,0.0671485759107534,0.1055191159170731,-0.0578224090527217,51.6,20.25,-17.1
-634.76562,-18.06641,-772.94922,0.1067181571131932,-0.0254472495599277,-0.0651499993842947,-25.05,29.55,10.8,-591.79687,32.22656,776.85547,-0.0222496318373489,-0.0500949637895168,-0.0803383781339249,92.55,2.7,67.8,-991.69922,62.98828,-124.02344,0.045165455850184,0.071944915228159,-0.0331745202902074,51.6,20.7,-18.15
-631.83594,-35.15625,-771.97266,0.1192419416938038,0.0475635382424242,-0.11990813386929,-25.65,28.2,10.2,-652.34375,-67.87109,803.71094,-0.0397029243572922,-0.0373046674321268,-0.0247810573844414,92.55,2.7,67.8,-986.32812,48.33984,-125.97656,0.002264913770313,0.0450321126953316,-0.0433002224785777,51.6,20.7,-18.15
-629.39453,-23.92578,-770.99609,0.0716784034513795,0.0486294108166172,-0.0988575432280612,-25.65,28.2,10.2,-595.70312,-0.97656,822.75391,-0.1416247421530798,-0.0159877395470436,-0.0165205885676775,93.0,1.8,66.9,-1018.06641,109.375,-115.23438,0.0199847180670358,0.1501515482136981,-0.0628850856139816,50.55,19.2,-17.55
-626.46484,-34.17969,-768.55469,0.145621720673072,-0.0299770771005538,-0.0405022851547056,-25.8,28.05,10.8,-601.07422,-11.23047,850.58594,-0.1079173728422385,-0.0586217698501351,-0.0106585512090041,93.75,1.05,66.9,-985.83984,32.22656,-124.51172,-0.0049295079393327,0.070346019100407,-0.0819372742616769,50.85,20.25,-17.85
-608.88672,-16.60156,-773.92578,0.1009892883764471,-0.0190520141147701,-0.0315757986953806,-24.3,28.5,10.05,-606.93359,-30.76172,800.78125,-0.055823832526263,-0.1156446435725182,-0.0117244237831971,93.75,1.05,66.9,-980.46875,25.39063,-123.53516,0.0159877395470436,0.0623522365933478,-0.0544916227082157,52.8,21.15,-17.4
-617.67578,-23.4375,-772.46094,0.0592879620256213,0.0554241521275563,-0.1472204422678988,-24.0,28.8,10.05,-609.375,-49.31641,791.50391,-0.0333078634450597,-0.0884655037958365,-0.0275788201753884,92.85,2.7,66.3,-994.14062,11.71875,-138.67187,-0.013456313999951,0.0482297304179105,-0.0439662401211387,52.5,19.35,-18.0
-617.67578,-16.60156,-763.18359,0.0901975685455157,-0.0655498543159266,-0.0618192130397887,-24.0,28.8,10.05,-618.16406,-41.99219,783.69141,-0.0575558972759422,-0.0668820641339739,0.0174532925199432,91.95,1.05,66.9,-964.35547,11.23047,-128.90625,-0.0262466103573411,0.0635512777894679,-0.0442327518979182,50.55,20.25,-18.6
-609.86328,-38.08594,-761.71875,0.0956601000384076,0.0330413516682802,-0.0097258472567384,-24.0,27.75,10.8,-605.46875,-47.36328,802.24609,-0.0370383301882724,-0.0265129476011954,-0.0122572728038309,92.4,2.55,66.6,-985.35156,20.99609,-130.85937,-0.0305099261211876,0.0639509581881746,-0.0463644970463041,52.35,19.5,-18.9
-612.30469,-32.71484,-788.08594,0.0550244717288496,0.0254472495599277,-0.0583552580733556,-25.65,28.65,10.2,-615.72266,-65.91797,819.33594,-0.0664823837352672,-0.0668820641339739,0.0059953805135257,92.4,2.55,66.6,-975.58594,6.83594,-126.46484,-0.0394364125805126,0.0933951862680945,-0.0433002224785777,52.35,19.5,-18.9
-634.76562,-18.55469,-772.94922,0.0638177895662474,0.0455651362488907,-0.06634921511334,-25.8,28.5,11.1,-602.53906,-44.92188,813.96484,-0.0463644970463041,-0.0699463387017003,-0.0674150876875329,91.05,2.4,68.1,-978.51562,7.8125,-143.55469,-0.0159877395470436,0.1211071750654101,-0.0600873228230347,50.7,19.8,-16.2
-618.16406,-28.80859,-769.53125,0.1104486238564059,-0.0118575924051242,-0.0070612530877186,-25.65,27.45,10.95,-609.86328,-56.64063,797.36328,-0.0495619402359577,-0.0760750623700784,-0.0281118437289474,92.1,2.4,67.8,-982.91016,8.78906,-137.69531,-0.0430337107017981,0.0554241521275563,-0.0699463387017003,50.7,19.8,-16.2
-625.97656,-38.57422,-777.83203,0.0480965617959833,0.0042633157638465,-0.1015221373970809,-25.65,27.45,10.95,-613.76953,-45.41016,796.38672,-0.0331745202902074,-0.0788728251610253,-0.0303767574992605,91.8,1.2,67.5,-980.46875,7.32422,-138.67187,0.0083936374386911,0.0383705400063197,-0.055823832526263,52.35,21.0,-18.15
-628.41797,-42.96875,-776.36719,0.0515605167624164,0.0083936374386911,-0.0262466103573411,-24.75,30.3,11.4,-628.90625,-44.43359,784.66797,-0.0492956029921034,-0.0602204914449619,-0.0186523337160634,91.65,1.8,67.2,-975.09766,16.11328,-166.50391,0.0343737360192527,0.0426340303030914,-0.0387702204050264,51.15,19.5,-18.9
-636.23047,-43.94531,-778.32031,0.1227058966602369,-0.0610198522423753,-0.0153215473715574,-24.3,29.55,9.75,-626.95312,-54.19922,787.10937,-0.0387702204050264,-0.0207840788644492,-0.0526263893366094,91.8,1.2,67.5,-970.21484,14.64844,-151.36719,0.0063950609122324,0.0535589187559499,-0.068614128883653,52.05,19.8,-17.4
-623.53516,-44.43359,-785.64453,0.0988575432280612,-0.0373046674321268,-0.0812710820861907,-24.75,28.5,10.35,-631.34766,-40.52734,807.12891,0.0073277648644981,0.0065284040670847,-0.0161209081689708,92.7,0.0,67.95,-988.76953,32.22656,-145.50781,0.0194516945134768,0.0315757986953806,-0.1424242774834185,52.65,19.95,-18.15
-641.60156,-40.03906,-794.92187,0.0598208110462552,0.0147886983509235,-0.050761155965003,-24.75,28.5,10.35,-623.53516,-48.82813,792.96875,-0.0025314255470925,-0.0027979373238721,-0.0358392889921523,92.7,0.0,67.95,-990.72266,20.99609,-161.62109,-0.0330413516682802,0.0233155044115418,-0.0815375938629702,52.65,19.95,-18.15
-632.8125,-40.52734,-782.71484,0.1045865864977326,-0.1103154552344788,0.0213169278850831,-24.75,28.05,11.1,-618.65234,-41.01563,798.33984,-0.0185191650941362,-0.0039969785199922,-0.0325085026476463,93.45,0.3,66.9,-990.72266,23.92578,-152.34375,-0.0222496318373489,0.0005328490206338,-0.0603538345998143,50.55,19.2,-18.15
-637.69531,-29.29688,-788.57422,0.0947273960861418,-0.0354394340605204,-0.0718115720733066,-26.25,27.45,10.95,-632.32422,-43.94531,778.32031,0.0179861415405771,-0.0129234649793172,0.0038636353651398,93.45,1.5,68.7,-976.07422,32.22656,-138.18359,-0.0215834396618626,0.0075941021083525,-0.0411684773301918,50.55,19.2,-18.15
-629.88281,-31.25,-792.96875,0.0433002224785777,-0.0075941021083525,-0.0642174699649541,-24.9,28.2,9.6,-629.88281,-51.26953,791.50391,-0.0170536121212365,-0.0109248884528585,-0.0687472975055802,93.6,1.65,66.3,-990.72266,35.15625,-147.46094,-0.0127901218244648,-0.0415681577288985,-0.0784731447623186,50.55,19.2,-18.15
-630.85937,-49.80469,-789.55078,0.0883323351739094,-0.0546247913301429,0.0527595579585365,-24.9,29.7,9.6,-624.51172,-39.0625,791.99219,0.0389035635598788,-0.0214502710399355,-0.0107917198309313,92.85,1.2,68.1,-986.32812,23.4375,-153.80859,-0.0350397536618137,-0.037970859607613,-0.0935283548900217,51.15,19.2,-16.8
-627.44141,-32.71484,-771.48437,0.0590214502488418,-0.0298437339457014,-0.0221164632154217,-24.9,29.7,9.6,-633.78906,-42.96875,797.36328,0.0410353087082646,0.0189188454928429,-0.0387702204050264,93.3,0.9,68.85,-990.23437,15.625,-148.92578,-0.0425006871482391,-0.0361056262360067,-0.0880658233971298,52.35,18.45,-18.15
-619.14062,-39.0625,-770.50781,0.0193185258915496,0.013456313999951,-0.0262466103573411,-24.9,29.7,9.6,-613.76953,-45.89844,793.94531,0.0322419908708668,0.0559571756811154,-0.0386370517830992,92.7,1.5,67.95,-1001.95312,24.90234,-130.37109,-0.0091929982361045,-0.0708790426539661,-0.029044373148288,52.05,20.85,-17.7
-625.0,-33.69141,-780.76172,0.0374380105869791,-0.0321086477160144,-0.0334410320669869,-23.85,27.45,11.25,-646.48437,-39.0625,793.45703,0.0433002224785777,0.1059187963157798,-0.0391699008037331,92.7,1.5,67.95,-983.39844,18.55469,-145.01953,-0.0523598775598298,-0.0315757986953806,-0.0594211306475485,51.15,19.2,-16.5
-626.95312,-44.92188,-777.83203,0.0095926786348112,-0.0090596550812521,-0.03064326927604,-23.4,27.9,9.9,-629.88281,-29.29688,786.62109,0.0315757986953806,0.0443659205198454,-0.0209172474863764,93.45,0.0,68.4,-983.88672,33.69141,-153.80859,-0.1055191159170731,-0.0157212277702641,-0.0588882816269146,51.6,19.95,-17.1
-615.72266,-44.92188,-768.55469,0.0472970264656447,-0.0381042027624654,-0.0031976177225788,-24.15,28.2,8.85,-632.8125,-18.55469,800.29297,0.0233155044115418,0.0667488955120467,-0.0253139064050753,92.55,1.65,67.5,-972.65625,32.71484,-144.04297,-0.1013889687751538,-0.0231821612566894,-0.0900643999235885,51.75,20.55,-18.0
-617.67578,-36.13281,-775.39062,0.0868667822010097,-0.0322419908708668,0.0225161436141284,-24.15,28.2,8.85,-625.97656,-20.50781,800.29297,0.0544916227082157,0.0341072242424731,-0.0154548905264097,92.55,0.45,65.7,-1000.48828,22.94922,-142.08984,-0.0528927265804637,-0.0293108849250675,-0.0431668793237253,51.75,20.55,-18.0
-632.32422,-26.36719,-776.36719,0.0410353087082646,0.0139893375535101,-0.0520933657830503,-24.0,28.5,9.75,-620.60547,-13.18359,802.73437,0.0514271736075641,0.082603291904238,-0.0065284040670847,92.55,0.45,65.7,-989.74609,41.01563,-145.99609,-0.0904640803222952,-0.05475795995207,-0.0504946441882235,52.5,17.85,-17.7
-627.44141,-38.57422,-776.85547,0.0202512298438154,0.0226493122360556,0.051827028539196,-25.8,28.8,10.8,-626.95312,-21.48438,797.85156,-0.0079939570399844,0.094860564708069,-0.0438330714992115,92.1,1.65,68.85,-989.74609,24.90234,-139.16016,-0.0929953313364626,-0.0255804181818548,-0.1079173728422385,52.5,17.85,-17.7
-634.27734,-38.57422,-763.18359,0.0527595579585365,-0.0166539317225298,-0.0177198042967228,-23.4,28.2,9.6,-623.04687,-2.44141,810.05859,0.0129234649793172,0.0598208110462552,-0.0066615726890119,92.7,3.3,66.6,-1001.46484,30.76172,-129.39453,-0.0850015488294034,-0.0314426300734534,-0.1045865864977326,51.15,19.95,-17.85
-632.8125,-35.15625,-779.78516,0.0403691165327784,0.0287778613715085,-0.0139893375535101,-24.9,27.45,9.9,-625.97656,-15.625,800.29297,-0.0081271256619115,0.0511608363637097,0.0282450123508746,92.7,3.3,66.6,-995.11719,35.15625,-132.8125,-0.1516171011865978,0.0326416712695735,-0.1007227765996675,51.15,19.5,-18.6
-637.69531,-46.875,-769.04297,0.0013323843509724,0.0430337107017981,-0.0162542513238231,-24.9,27.45,9.9,-622.07031,-20.99609,826.17187,-0.023448673033469,0.0528927265804637,0.0331745202902074,92.7,3.3,66.6,-997.07031,30.76172,-131.83594,-0.1770643507465255,0.0175864611418704,-0.096459460835821,50.7,21.15,-17.4
-636.23047,-46.38672,-761.71875,0.0254472495599277,-0.0138559943986577,0.0013323843509724,-25.95,29.4,10.2,-629.39453,-17.08984,807.61719,-0.0456983048708179,0.0051960197161123,0.0626187483701273,93.45,1.05,67.65,-989.25781,23.4375,-117.67578,-0.1598775700033617,-0.0021317451483858,-0.0838025076332833,51.75,18.3,-16.2
-628.41797,-32.71484,-760.25391,0.029044373148288,0.005595700114819,-0.0161209081689708,-25.35,27.3,9.0,-611.81641,-17.57813,797.85156,-0.0612863640191548,0.073676805444913,0.0438330714992115,93.3,1.65,67.5,-982.91016,27.83203,-116.21094,-0.1787964154962047,-0.0023980823922402,-0.0904640803222952,51.0,19.8,-18.0
-613.76953,-31.25,-767.57812,0.0307764378979672,0.0397029243572922,-0.0293108849250675,-25.35,28.05,9.75,-622.07031,-26.85547,789.0625,-0.0103920394322246,0.0331745202902074,0.0307764378979672,91.95,1.5,68.4,-992.67578,25.87891,-123.53516,-0.1488193383956508,-0.020117886688963,-0.0928621627145355,51.6,19.2,-17.1
-637.69531,-41.01563,-762.20703,0.0291777163031404,-0.0123904414257581,0.0025314255470925,-25.35,28.05,9.75,-599.12109,-36.13281,809.57031,-0.043566559722432,0.0366386497895657,0.0570230482553083,91.95,1.5,68.4,-983.39844,17.57813,-115.72266,-0.1153783063286639,-0.0616860444178615,-0.0748760211739583,51.6,19.2,-17.1
-644.04297,-39.55078,-752.92969,-0.0063950609122324,0.0330413516682802,-0.0175864611418704,-24.15,27.9,10.65,-617.1875,-22.46094,805.66406,-0.0399694361340717,0.015055210127703,0.0440995832759911,93.0,1.5,68.4,-987.30469,16.11328,-114.25781,-0.1096492630589925,-0.0438330714992115,-0.1027213531261262,49.95,18.3,-16.65
-628.90625,-41.99219,-758.78906,-0.0516936853843436,0.015055210127703,-0.0079939570399844,-23.4,25.65,10.2,-605.46875,-53.71094,797.85156,-0.0654165111610742,0.0746095093971788,0.0643506385868813,92.1,1.2,68.55,-994.14062,-12.69531,-122.55859,-0.1079173728422385,-0.0057288687367461,-0.080871401687484,49.95,18.3,-16.65
-634.27734,-36.62109,-763.18359,-0.0173201238980161,-0.0419678381276052,0.0338407124656936,-25.05,28.05,10.05,-614.74609,-55.17578,811.03516,-0.0023980823922402,0.0456983048708179,0.074209828998472,93.45,2.55,66.6,-996.58203,-19.53125,-116.21094,-0.1296339811260284,0.0046631706954784,-0.0787396565390981,52.05,18.6,-16.2
-620.11719,-47.85156,-766.60156,-0.0371714988101996,0.0311761182966739,0.0039969785199922,-24.75,26.55,10.05,-621.58203,-39.55078,819.33594,-0.0326416712695735,0.043566559722432,0.0339738810876208,93.3,-0.9,67.5,-1013.18359,2.92969,-117.67578,-0.1521501247401568,0.007860613885132,-0.0628850856139816,52.8,19.8,-16.95
-628.41797,-41.99219,-768.55469,-0.0654165111610742,0.020117886688963,-0.0410353087082646,-24.75,26.55,10.05,-630.37109,-51.75781,819.82422,-0.0319754790940873,0.0087933178373978,0.0699463387017003,93.3,1.65,66.75,-973.63281,-16.11328,-109.375,-0.1103154552344788,-0.0047963393174056,-0.0377045223637587,51.45,19.35,-16.95
-634.27734,-43.45703,-762.20703,-0.046897346066938,0.0099923590335179,0.0065284040670847,-25.8,27.75,9.75,-624.02344,-57.61719,804.19922,-0.0043966589186989,0.0450321126953316,0.0983246942074273,91.65,1.8,67.2,-997.07031,-10.25391,-110.83984,-0.1044532433428802,-0.0199847180670358,-0.1277687477544221,51.15,20.25,-16.8
-630.85937,-43.45703,-773.4375,-0.0667488955120467,-0.0054625314928918,-0.0584886012282079,-24.45,27.9,9.9,-628.90625,-47.85156,809.57031,0.0114579120064175,0.023981696587028,0.0442327518979182,91.65,1.8,67.2,-1004.88281,-2.44141,-108.39844,-0.0880658233971298,-0.0551578148837019,-0.0203843984657425,51.15,20.25,-16.8
-628.41797,-49.31641,-777.34375,-0.1068515002680456,0.0480965617959833,-0.0138559943986577,-24.75,28.05,10.8,-628.90625,-40.52734,809.57031,0.0211837592631559,0.0070612530877186,0.0552909835056291,92.55,2.7,66.75,-1019.53125,16.11328,-125.0,-0.1028545217480534,-0.0351730968166661,-0.0414349891069713,51.15,20.25,-16.8
-636.71875,-41.50391,-767.08984,-0.0303767574992605,-0.0070612530877186,0.0173201238980161,-24.75,28.05,10.8,-619.62891,-69.33594,815.42969,0.0210505906412288,0.0291777163031404,-0.0006661921754862,92.4,0.75,67.2,-1007.32422,-0.48828,-112.79297,-0.1284349399299083,-0.0103920394322246,-0.0608866836204481,51.75,19.8,-15.9
-627.44141,-26.85547,-779.29687,-0.032908183046353,-0.0035972981212855,0.0089264864593249,-25.05,27.0,8.7,-622.55859,-36.13281,811.03516,0.0398360929792193,0.0119907610270514,0.0702128504784798,91.2,0.3,66.15,-1012.69531,-4.39453,-107.42188,-0.1023216727274195,0.0131899767560967,-0.0952604196397009,51.75,19.8,-15.9
-617.67578,-31.73828,-779.78516,-0.0566231933236764,-0.0291777163031404,-0.0153215473715574,-24.0,28.8,11.1,-618.16406,-59.08203,791.50391,0.0282450123508746,0.0438330714992115,0.0247810573844414,92.4,1.8,66.6,-1014.16016,-8.78906,-105.95703,-0.096459460835821,-0.0125237845806105,-0.1229724084370164,51.6,19.95,-17.55
-638.67187,-37.10938,-785.15625,-0.0354394340605204,-0.0436999028772844,0.0711455544307456,-25.65,27.9,9.9,-631.83594,-62.5,818.84766,0.0226493122360556,0.0175864611418704,0.0358392889921523,93.0,1.5,68.4,-1006.83594,0.48828,-109.86328,-0.0796723604913639,-0.0138559943986577,-0.0149218669728507,51.6,18.45,-16.5
-625.48828,-43.94531,-760.74219,0.0025314255470925,-0.0029311059457992,0.0209172474863764,-24.75,27.75,8.25,-627.92969,-66.40625,824.70703,0.034640073263107,0.0241148652089552,0.0488959225933967,93.6,1.2,68.1,-996.58203,6.34766,-125.48828,-0.073676805444913,-0.0238483534321757,0.0206509102425221,51.6,20.25,-17.55
-620.60547,-53.22266,-765.625,-0.0375711792089063,-0.0075941021083525,-0.0726111074036452,-23.25,27.3,10.35,-638.18359,-66.40625,820.3125,0.0941945470655079,0.0219831200605693,0.0337075438437664,93.6,1.2,68.1,-1003.41797,16.60156,-133.30078,-0.0912634411197086,-0.0107917198309313,-0.0464976656682313,51.6,19.2,-17.55
-626.46484,-67.38281,-790.03906,-0.0492956029921034,-0.0161209081689708,0.0021317451483858,-24.15,28.65,10.65,-625.48828,-49.80469,813.96484,0.1193751103157309,0.0355727772153728,0.0462311538914518,91.65,1.5,67.65,-1004.39453,7.8125,-121.09375,-0.0993905667816202,-0.0619525561946411,-0.0199847180670358,51.0,21.15,-16.2
-643.06641,-49.80469,-786.13281,0.0373046674321268,-0.0121241041819038,0.0266462907560478,-23.85,27.15,9.9,-615.72266,-49.31641,789.0625,0.0695466583029936,0.0039969785199922,0.0311761182966739,91.95,2.25,67.65,-1003.41797,-19.53125,-108.39844,-0.1157779867273706,-0.0265129476011954,0.0123904414257581,52.65,20.7,-17.85
-639.16016,-51.75781,-792.48047,-0.0222496318373489,-0.0218499514386422,-0.0041301471419193,-24.0,27.75,9.0,-593.75,-6.34766,795.89844,0.1215068554641168,-0.0334410320669869,0.0106585512090041,94.2,2.55,66.9,-1014.64844,-5.85937,-116.69922,-0.1107151356331855,0.0355727772153728,-0.023981696587028,52.65,20.7,-17.85
-644.04297,-38.57422,-787.10937,0.0283781809728018,-0.0345069046411798,0.0366386497895657,-24.0,27.75,9.0,-635.25391,-62.98828,801.75781,0.0612863640191548,0.0365053066347134,0.0327748398915007,94.2,2.55,66.9,-996.09375,16.60156,-112.30469,-0.1640077171452811,0.0003996803987067,0.025713586803782,52.05,19.35,-16.95
-636.71875,-42.96875,-789.55078,0.0246477142295891,-0.0747426780191059,0.059687642424328,-24.0,28.8,10.05,-618.65234,-56.64063,793.45703,0.0956601000384076,0.0459648166475974,0.016787100344457,92.55,2.4,68.85,-993.16406,10.74219,-114.25781,-0.1044532433428802,-0.027312482931534,0.0748760211739583,52.05,19.35,-16.95
-625.97656,-47.85156,-787.59766,-0.0083936374386911,-0.0283781809728018,0.0166539317225298,-23.85,28.65,9.9,-625.97656,-26.36719,798.82812,0.0923293136939016,0.0624854052152749,0.0754088701945922,92.4,3.0,68.4,-1008.30078,19.04297,-113.76953,-0.1521501247401568,-0.0415681577288985,0.0294440535469947,50.7,21.6,-15.9
-641.60156,-43.94531,-784.17969,-0.0202512298438154,-0.1060521394706322,0.1017886491738605,-24.75,28.8,10.35,-633.30078,-23.92578,797.36328,0.0830031468358699,0.0319754790940873,0.0543582795533633,92.4,3.0,68.4,-1010.74219,0.97656,-125.0,-0.1068515002680456,-0.103787051167394,0.034640073263107,52.5,20.1,-16.2
-623.53516,-49.80469,-779.29687,0.0125237845806105,-0.0814042507081179,0.0619525561946411,-24.75,28.8,10.35,-642.08984,-22.46094,781.73828,0.0782068075184643,0.0219831200605693,0.0798055291132911,93.0,3.3,66.6,-1008.30078,6.34766,-120.60547,-0.116577347524784,-0.0603538345998143,0.0464976656682313,52.05,19.35,-15.9
-641.60156,-45.89844,-772.94922,-0.0053291883380394,-0.0177198042967228,0.0235820161883213,-24.75,28.8,10.35,-626.95312,-51.75781,811.03516,0.0417013263508257,0.0189188454928429,0.0548913031069224,92.4,1.05,67.2,-1002.44141,-39.55078,-116.21094,-0.105385947295146,-0.0515605167624164,0.0355727772153728,51.45,19.35,-18.0
-625.0,-45.41016,-768.06641,0.0393032439585855,-0.0536922619108023,0.0568897051004559,-24.75,28.5,10.35,-637.20703,-31.25,806.64062,0.050761155965003,0.0456983048708179,0.1048529237415869,92.4,2.55,68.4,-1010.25391,-8.78906,-125.48828,-0.1107151356331855,-0.0575558972759422,0.040235773377926,53.7,19.95,-17.1
-613.28125,-40.52734,-770.50781,0.0106585512090041,-0.0715452348294523,0.0810045703094112,-25.2,28.95,10.2,-642.57812,-42.48047,807.61719,0.0455651362488907,0.0450321126953316,0.049162259837251,92.4,2.55,68.4,-1023.4375,1.95312,-132.8125,-0.1550812306859561,-0.0189188454928429,0.0526263893366094,51.6,19.95,-15.75
-616.69922,-33.20313,-765.625,-0.0321086477160144,-0.0075941021083525,0.0389035635598788,-25.05,28.5,10.8,-636.23047,-50.78125,789.0625,0.0779402957416847,0.0440995832759911,0.046897346066938,93.45,3.3,67.65,-995.11719,-4.39453,-119.62891,-0.1749326055981396,-0.086467101802303,0.1033873707686873,51.6,19.95,-15.75
-614.74609,-42.96875,-776.36719,0.0149218669728507,-0.0623522365933478,0.1167105161467112,-24.45,26.7,8.85,-651.85547,-44.92188,771.97266,0.0075941021083525,0.0193185258915496,0.0460979852695246,92.85,1.65,67.8,-1012.20703,-13.18359,-92.28516,-0.0937948666668012,-0.0951270764848485,0.0739433172216925,51.45,20.85,-17.7
-608.88672,-30.76172,-767.08984,0.0422343499043847,-0.0674150876875329,0.0463644970463041,-24.45,26.7,8.85,-659.66797,-45.41016,782.22656,0.0768744231674918,0.05475795995207,0.0579555776746489,92.1,1.95,67.5,-995.60547,-8.30078,-116.69922,-0.0876661429984231,-0.0417013263508257,0.1005896079777403,52.05,20.55,-16.65
-629.39453,-43.45703,-767.57812,-0.0023980823922402,0.0243813769857347,0.022382800459276,-24.3,28.8,9.3,-643.06641,-35.15625,815.91797,0.0536922619108023,0.0582220894514284,0.0727442760255724,92.85,2.7,67.5,-1020.50781,23.92578,-114.25781,-0.061419532641082,-0.0756753819713717,0.1088499022615791,51.15,20.7,-16.5
-625.0,-35.15625,-760.74219,0.0211837592631559,-0.0383705400063197,0.1065849884912661,-24.75,26.55,10.05,-652.34375,-3.90625,807.12891,0.0381042027624654,0.0194516945134768,0.0778071271197576,92.85,2.7,67.8,-1002.44141,16.11328,-101.5625,-0.0800720408900706,-0.0659495347146333,0.0584886012282079,51.6,19.95,-16.8
-628.41797,-33.69141,-762.20703,0.0085268060606182,-0.0322419908708668,0.087532974376496,-24.3,27.3,10.8,-621.58203,-56.15234,782.71484,0.1260366830047429,-0.0267794593779749,0.0081271256619115,92.1,1.65,67.8,-1000.0,6.83594,-94.72656,-0.1185757495183175,-0.0983246942074273,0.1529494855375703,51.6,19.95,-16.8
-609.86328,-32.71484,-774.41406,-0.041834669505678,0.0015987215948268,0.0353062654385932,-24.3,27.3,10.8,-658.20312,-64.45313,756.34766,0.2247610576108769,0.0715452348294523,-0.0117244237831971,92.1,1.95,67.8,-1004.39453,4.88281,-125.48828,-0.0866002704242302,-0.0731439564242791,0.1041869060990259,51.75,20.1,-16.65
-629.88281,-13.67187,-778.80859,-0.0226493122360556,-0.0660827033365605,0.0708790426539661,-25.65,28.65,9.9,-625.48828,-35.64453,764.16016,0.0754088701945922,0.0702128504784798,0.0326416712695735,92.1,1.95,67.8,-983.39844,23.92578,-82.51953,-0.1148452827751048,-0.0305099261211876,0.0904640803222952,52.8,20.85,-16.2
-620.11719,-8.30078,-761.23047,-0.0335742006889141,-0.0419678381276052,0.0298437339457014,-25.05,27.75,9.3,-582.03125,3.90625,844.23828,0.0684807857288007,0.03064326927604,0.0690138092823597,92.55,3.15,67.5,-987.79297,14.16016,-114.74609,-0.077540615342978,-0.0014655529728996,0.1865236862264844,52.8,20.85,-16.2
-638.67187,-8.78906,-770.99609,-0.1087167336396519,0.0059953805135257,0.0436999028772844,-22.8,29.4,9.6,-624.02344,63.47656,827.63672,0.0133231453780239,-0.0073277648644981,0.0367718184114929,91.65,1.8,66.6,-1018.55469,25.87891,-129.88281,-0.0531592383572432,-0.0955267568835552,0.1247044731866956,52.05,21.15,-17.7
-641.11328,-24.90234,-772.46094,-0.0310429496747467,-0.0315757986953806,0.0708790426539661,-23.7,28.8,10.35,-611.81641,1.46484,780.27344,-0.085934078248744,-0.2915099531229237,0.1008561197545199,92.55,2.4,68.1,-991.69922,14.16016,-141.11328,-0.0846018684306967,-0.0751423584178126,0.1380276185647195,52.05,21.15,-17.7
-620.11719,-9.27734,-770.01953,-0.0422343499043847,-0.0382373713843925,0.0434333911005048,-23.7,28.8,10.35,-624.02344,-13.67187,743.65234,0.1049862668964393,0.0282450123508746,0.0684807857288007,93.45,3.0,66.9,-998.04687,24.41406,-128.41797,-0.0876661429984231,-0.0692803210591393,0.0863337586474507,52.65,21.75,-16.05
-616.69922,-6.34766,-759.76562,-0.1073843492886795,0.0289112045263608,-0.0003996803987067,-24.9,28.2,10.95,-655.27344,-51.75781,764.16016,0.1063184767144865,-0.006128723668378,0.0508943245869302,93.0,3.3,68.4,-985.83984,38.08594,-134.27734,-0.1032542021467601,-0.063018428768834,0.073676805444913,52.5,20.55,-16.65
-625.0,-9.76562,-760.25391,-0.0707458740320389,0.0023980823922402,0.096459460835821,-24.0,27.0,10.05,-626.46484,8.30078,772.46094,0.0800720408900706,-0.0021317451483858,0.1011224569983742,93.6,2.4,67.5,-977.05078,32.22656,-110.83984,-0.0543582795533633,-0.0652833425391471,0.0623522365933478,51.9,23.25,-16.5
-632.32422,-8.30078,-770.50781,-0.0634181091675407,0.0135896571548034,0.0086599746825454,-24.9,28.95,11.55,-646.48437,-48.82813,813.96484,-0.0650168307623675,-0.0190520141147701,0.068081105330094,93.6,2.4,67.5,-949.70703,33.69141,-111.81641,-0.0238483534321757,0.0568897051004559,0.0377045223637587,52.95,22.2,-16.5
-616.21094,-16.11328,-758.78906,-0.0784731447623186,0.0688804661275074,0.0198513749121835,-24.9,28.95,11.55,-582.03125,103.02734,789.55078,0.0357059458372999,-0.0959264372822619,0.1175098769441246,93.9,2.4,67.05,-972.16797,35.15625,-128.41797,-0.0265129476011954,-0.0401026047559989,0.0975253334100139,52.65,21.0,-15.75
-623.53516,-5.37109,-772.46094,-0.0877993116203503,0.0059953805135257,0.0339738810876208,-25.2,27.15,10.65,-658.20312,-42.96875,789.55078,0.1609432680446295,-0.0823369546603836,0.018385996472209,92.4,3.3,67.2,-984.86328,40.52734,-106.44531,-0.0427671989250186,-0.0664823837352672,0.0976585020319411,53.25,21.9,-15.9
-639.16016,-9.76562,-782.22656,-0.0788728251610253,0.0433002224785777,0.0708790426539661,-25.95,29.4,10.65,-652.83203,82.51953,777.34375,-0.0788728251610253,0.0672817445326806,0.1490856756395052,93.75,3.0,67.95,-988.76953,44.43359,-83.98438,-0.0405022851547056,-0.0945942274642146,0.113246561180278,53.25,21.9,-15.9
-634.76562,-17.57813,-770.99609,-0.1189754299170242,0.0508943245869302,0.0459648166475974,-23.7,27.3,9.75,-617.67578,-52.73438,798.33984,0.1958498530845161,0.022382800459276,0.0261132672024887,93.75,3.0,67.95,-979.49219,46.38672,-91.79688,-0.0131899767560967,-0.0087933178373978,0.0716784034513795,51.6,22.2,-15.45
-642.57812,-9.76562,-771.48437,-0.1068515002680456,0.0467641774450108,0.0281118437289474,-25.35,29.25,10.05,-625.48828,13.67187,786.62109,0.0466310088230837,0.0628850856139816,0.0582220894514284,92.4,3.75,66.9,-1032.71484,32.22656,-81.54297,-0.0357059458372999,0.0129234649793172,0.0766079113907123,51.6,22.2,-15.45
-647.94922,-2.92969,-776.85547,-0.0932618431132422,0.0206509102425221,0.1045865864977326,-25.35,29.25,10.05,-653.80859,55.17578,795.41016,0.1171101965454179,0.0478300500192038,0.0943277156874351,92.1,1.95,68.1,-1018.06641,47.36328,-59.08203,0.006128723668378,-0.0442327518979182,0.1233720888357231,53.25,20.55,-15.9
-646.97266,3.41797,-771.97266,-0.1372282577673061,0.0227824808579827,0.016787100344457,-23.7,30.3,10.8,-638.67187,20.50781,808.59375,0.0181194846954295,0.0546247913301429,0.1408253813556664,92.1,1.95,68.1,-1018.55469,15.625,-67.87109,-0.0139893375535101,0.0141225061754373,0.0939280352887284,52.65,22.5,-16.05
-628.41797,8.30078,-758.30078,-0.1100489434576992,0.0731439564242791,0.0207840788644492,-25.65,28.95,10.2,-614.74609,22.46094,811.03516,0.0695466583029936,0.0480965617959833,0.1164441789028568,93.6,3.15,67.05,-1028.32031,9.27734,-71.77734,0.0122572728038309,-0.0210505906412288,0.0616860444178615,52.8,21.6,-16.2
-624.51172,20.01953,-755.37109,-0.1280352595312016,-0.0001331686219271,0.0740764858436197,-24.9,26.7,11.55,-608.39844,37.59766,802.73437,-0.0019984019935335,0.0425006871482391,0.0913966097416358,93.6,3.15,67.8,-1020.99609,20.01953,-66.89453,0.0138559943986577,-0.0053291883380394,0.0031976177225788,53.55,21.6,-14.1
-631.83594,3.41797,-754.39453,-0.1364287224369675,0.0450321126953316,0.005595700114819,-24.9,26.7,11.55,-615.23437,21.97266,822.26562,0.0121241041819038,0.032908183046353,0.1177763887209041,93.6,2.7,65.7,-1019.53125,20.99609,-71.77734,0.0315757986953806,-0.0195850376683291,0.0659495347146333,53.55,21.6,-14.1
-622.07031,13.18359,-756.83594,-0.1684043760639801,0.059687642424328,0.0335742006889141,-24.9,29.4,10.2,-615.72266,4.39453,807.12891,0.0588882816269146,0.0159877395470436,0.1291011321053945,93.6,2.7,65.7,-984.375,28.80859,-51.26953,0.0578224090527217,-0.0523598775598298,0.0768744231674918,52.65,21.75,-16.05
-630.85937,13.67187,-758.78906,-0.0796723604913639,0.0093261668580317,0.0916631215184153,-25.05,28.05,9.3,-550.78125,11.23047,834.47266,0.0390367321818059,-0.0178529729186499,0.0872664625997164,91.95,3.75,66.9,-995.60547,45.89844,-56.15234,0.0503614755662963,-0.0422343499043847,0.0654165111610742,52.65,21.75,-16.05
-621.09375,18.06641,-746.58203,-0.1867901980032639,0.0566231933236764,0.0139893375535101,-24.15,29.4,11.55,-592.28516,26.85547,837.89062,0.0851347174513306,-0.0158545709251164,0.0724777642487929,92.4,3.75,67.2,-985.35156,47.85156,-74.70703,0.0651499993842947,0.0053291883380394,0.0839356762552105,53.4,22.5,-16.05
-619.62891,12.20703,-770.01953,-0.1477534658214579,0.0604870032217414,0.0598208110462552,-25.2,28.2,10.95,-600.58594,-1.46484,836.91406,0.0919296332951949,-0.005595700114819,0.0927289940926083,92.1,3.9,68.1,-988.28125,49.31641,-58.59375,0.0795390173365115,-0.0195850376683291,0.0726111074036452,53.55,21.9,-16.2
-632.8125,9.27734,-761.71875,-0.1654732701181807,0.0094593354799588,0.1036538825454668,-25.2,28.2,10.95,-605.95703,25.87891,816.89453,0.0526263893366094,-0.0806048899107045,0.1584120170304621,91.35,1.65,66.75,-977.05078,70.3125,-74.70703,0.0552909835056291,-0.0311761182966739,0.075275701572665,53.55,21.9,-16.2
-617.67578,10.25391,-759.27734,-0.1338974714228001,0.049162259837251,-0.0005328490206338,-25.65,28.95,9.9,-610.83984,19.04297,829.58984,0.0423675185263119,-0.0644839817417337,0.1149786259299572,93.0,3.75,67.65,-978.51562,55.66406,-69.33594,0.0806048899107045,-0.0063950609122324,0.0358392889921523,52.35,20.7,-14.7
-639.64844,40.52734,-769.04297,-0.2038438101245005,0.0154548905264097,0.0606201718436686,-23.7,28.5,10.05,-595.21484,21.48438,820.80078,0.0542251109314362,-0.0299770771005538,0.1269693869570086,94.35,4.65,67.05,-985.35156,61.03516,-63.96484,0.0503614755662963,-0.0081271256619115,0.0466310088230837,52.65,21.45,-16.8
-626.46484,23.4375,-759.27734,-0.1604104190239956,-0.0250473946282958,0.037970859607613,-25.05,29.25,9.0,-602.05078,19.04297,826.17187,0.0434333911005048,-0.0488959225933967,0.0862005900255235,94.35,4.65,67.05,-984.375,63.47656,-69.82422,0.0275788201753884,-0.0359724576140795,-0.0185191650941362,51.75,22.35,-14.85
-628.41797,31.25,-756.34766,-0.2062418925167407,0.0496952833908101,0.041834669505678,-25.05,29.25,9.0,-568.84766,30.27344,825.68359,0.0159877395470436,-0.3599907388517244,0.145621720673072,93.3,2.7,68.1,-976.5625,56.15234,-78.125,0.0001331686219271,0.0498284520127373,0.0147886983509235,52.5,24.15,-15.6
-639.16016,22.94922,-743.16406,-0.1941179628677621,-0.0226493122360556,0.0210505906412288,-25.05,29.25,9.0,-593.26172,23.4375,845.21484,0.0587549384720623,-0.1077840296873862,0.116577347524784,92.7,4.5,67.95,-978.02734,75.19531,-95.21484,-0.0255804181818548,0.0734104682010586,0.016787100344457,52.5,24.15,-15.6
