IMU1_AccX,IMU1_AccY,IMU1_AccZ,IMU1_GyrX,IMU1_GyrY,IMU1_GyrZ,IMU1_MagX,IMU1_MagY,IMU1_MagZ,IMU2_AccX,IMU2_AccY,IMU2_AccZ,IMU2_GyrX,IMU2_GyrY,IMU2_GyrZ,IMU2_MagX,IMU2_MagY,IMU2_MagZ,IMU3_AccX,IMU3_AccY,IMU3_AccZ,IMU3_GyrX,IMU3_GyrY,IMU3_GyrZ,IMU3_MagX,IMU3_MagY,IMU3_MagZ
-602.53906,45.41016,-786.62109,0.0209172474863764,-0.015055210127703,-0.0442327518979182,-27.75,29.4,10.95,-642.57812,41.01563,790.52734,-0.050228132411444,0.027312482931534,-0.0315757986953806,92.7,4.05,66.15,-1000.97656,39.0625,-139.16016,0.0615528757959344,0.08420218803199,-0.0229158240128351,50.1,22.5,-17.1
-596.67969,31.25,-798.82812,0.0143890179522168,-0.0099923590335179,0.0191853572696224,-27.15,30.3,10.35,-653.32031,31.25,788.08594,-0.0209172474863764,0.0034639549664331,-0.063018428768834,92.7,4.8,64.8,-980.46875,14.64844,-136.71875,0.050228132411444,0.0503614755662963,0.0349065850398865,50.7,21.9,-16.65
-612.30469,43.45703,-790.52734,0.023981696587028,-0.0803383781339249,0.0265129476011954,-27.6,28.8,10.8,-654.78516,23.4375,777.83203,-0.0391699008037331,0.032908183046353,-0.0307764378979672,94.8,3.75,65.1,-989.74609,23.92578,-126.46484,0.0369049870334201,0.0483628990398376,0.0265129476011954,49.8,22.95,-18.15
-618.65234,27.83203,-806.15234,0.0371714988101996,-0.0030642745677264,-0.0217166082837898,-27.15,28.5,11.1,-665.03906,7.32422,784.66797,-0.0452986244721112,0.0258469299586344,-0.0690138092823597,94.8,3.75,65.1,-1007.32422,11.23047,-118.65234,0.052493046181757,0.0850015488294034,-0.0189188454928429,49.8,22.95,-18.15
-672.85156,150.39062,-743.65234,-0.0483628990398376,-0.0528927265804637,0.0652833425391471,-24.75,35.85,11.85,-600.58594,52.24609,783.20312,0.0225161436141284,0.0034639549664331,0.0397029243572922,91.65,6.75,67.65,-977.53906,46.38672,-103.02734,-0.0917962901403425,0.0081271256619115,0.0178529729186499,50.1,22.5,-15.0
-663.08594,151.36719,-733.39844,-0.0544916227082157,-0.0375711792089063,-0.0039969785199922,-24.15,34.2,12.6,-612.79297,56.15234,799.31641,0.1252373222073295,0.0033307863445059,-0.0265129476011954,91.2,6.3,68.7,-981.93359,26.36719,-125.48828,-0.0455651362488907,0.0327748398915007,0.0133231453780239,50.1,22.5,-15.0
-670.89844,144.53125,-727.05078,-0.0161209081689708,-0.0603538345998143,0.0107917198309313,-23.25,35.1,13.2,-618.65234,54.6875,788.57422,0.0947273960861418,0.0687472975055802,-0.0011990411961201,91.95,6.75,68.7,-986.32812,39.0625,-103.02734,-0.0079939570399844,0.0095926786348112,0.0110582316077108,52.5,22.65,-15.9
-654.29687,146.97266,-737.79297,0.013456313999951,-0.0708790426539661,0.0572893854991626,-25.05,35.1,13.2,-617.1875,50.29297,793.94531,0.036238969390859,0.0443659205198454,-0.0089264864593249,91.65,7.05,67.2,-996.09375,26.36719,-100.58594,0.004529827540626,0.0122572728038309,0.0365053066347134,51.75,22.35,-15.9
-651.36719,160.64453,-732.42187,-0.0235820161883213,-0.0382373713843925,0.0207840788644492,-24.3,35.85,12.45,-618.65234,36.13281,815.42969,0.0612863640191548,0.0454317930940384,-0.0294440535469947,91.8,5.7,67.8,-1002.92969,34.66797,-107.91016,0.0127901218244648,0.0303767574992605,0.0253139064050753,52.65,23.7,-15.75
-644.04297,154.29687,-743.16406,-0.0508943245869302,-0.0159877395470436,0.0205175670876697,-24.3,35.85,12.45,-636.71875,40.52734,835.9375,0.0579555776746489,0.0115910806283447,-0.0560903443030425,90.3,7.65,67.8,-1006.34766,25.39063,-90.33203,-0.0117244237831971,-0.0127901218244648,0.0319754790940873,52.05,21.9,-16.2
-647.94922,159.17969,-735.83984,0.0129234649793172,-0.0425006871482391,0.0535589187559499,-24.15,34.5,13.65,-625.0,41.99219,830.56641,0.0640843013430269,0.0197182062902563,-0.0265129476011954,90.3,7.65,67.8,-1016.60156,32.71484,-83.00781,0.0255804181818548,0.0034639549664331,0.0333078634450597,52.05,21.9,-16.2
-637.20703,135.25391,-749.02344,-0.0086599746825454,0.0123904414257581,0.014522186574144,-24.75,35.1,12.9,-619.62891,30.76172,816.40625,0.0325085026476463,-0.0042633157638465,-0.0011990411961201,93.3,7.35,68.1,-1006.34766,41.99219,-100.09766,0.0342403928644003,0.0023980823922402,0.0710122112758932,51.9,23.7,-16.8
-667.96875,152.83203,-753.90625,-0.015055210127703,-0.0107917198309313,-0.0005328490206338,-22.05,34.95,12.0,-603.51562,52.24609,806.15234,0.0832694840797242,-0.0110582316077108,-0.0436999028772844,90.9,6.0,68.4,-1009.76562,31.73828,-92.77344,0.051827028539196,-0.0544916227082157,0.0407687969314851,51.9,23.7,-16.8
-657.22656,141.60156,-743.65234,0.0241148652089552,0.0062618922903052,0.0552909835056291,-22.05,34.95,12.0,-627.92969,49.31641,819.33594,0.0798055291132911,-0.0194516945134768,-0.082603291904238,91.2,6.75,66.9,-1009.76562,56.15234,-91.30859,0.0626187483701273,-0.0623522365933478,0.041834669505678,50.85,22.95,-15.0
-654.78516,152.34375,-742.1875,0.0652833425391471,-0.0568897051004559,0.0534257501340228,-24.45,35.25,12.3,-618.65234,59.57031,832.03125,0.0827366350590903,-0.0475635382424242,-0.0425006871482391,91.2,6.75,66.9,-995.11719,45.89844,-91.30859,0.0587549384720623,-0.0811377389313384,0.1007227765996675,51.15,21.45,-15.75
-666.50391,152.34375,-731.93359,0.0179861415405771,0.0081271256619115,0.0074609334864253,-24.15,35.7,12.3,-600.09766,53.71094,816.89453,0.0654165111610742,-0.0303767574992605,-0.0450321126953316,92.85,7.35,67.5,-1001.95312,37.59766,-76.66016,0.0538254305327295,-0.069680001457846,0.0531592383572432,52.35,22.5,-15.45
-652.34375,158.69141,-745.11719,0.0191853572696224,-0.0050628510941851,-0.0175864611418704,-24.45,33.75,13.65,-619.62891,44.43359,825.19531,0.055823832526263,-0.011191400229638,-0.0542251109314362,91.2,5.25,67.95,-996.58203,40.03906,-73.24219,0.0702128504784798,-0.1012558001532266,0.0767412545455646,51.75,21.9,-15.6
-662.10937,146.97266,-730.95703,0.0662158719584876,-0.0896645449919567,0.0604870032217414,-23.85,33.75,11.55,-617.1875,43.94531,819.33594,0.0010658725741929,-0.0177198042967228,-0.0971256530113072,91.2,5.25,67.95,-987.79297,20.01953,-82.51953,0.1161776671260773,-0.0483628990398376,-0.0365053066347134,53.25,21.9,-15.6
-649.41406,146.48437,-727.53906,0.0267794593779749,-0.063684446411395,0.0399694361340717,-23.85,33.75,11.55,-613.76953,38.08594,820.3125,0.0566231933236764,-0.0578224090527217,-0.1304333419234418,91.2,5.25,67.95,-988.76953,28.80859,-85.9375,0.1173767083221974,-0.050761155965003,0.0371714988101996,50.85,22.2,-15.45
-649.90234,159.17969,-722.65625,0.0206509102425221,0.0009327039522657,0.0043966589186989,-24.45,36.0,12.3,-604.98047,44.43359,810.05859,0.0500949637895168,-0.061419532641082,-0.0802052095119978,92.7,6.3,67.2,-994.62891,14.64844,-104.00391,0.1426906147272728,-0.0293108849250675,0.0815375938629702,50.85,22.2,-15.45
-636.23047,147.94922,-734.86328,0.0672817445326806,-0.0470306892217904,0.063684446411395,-23.7,34.8,12.9,-624.51172,21.97266,811.52344,0.0632847660126884,-0.0366386497895657,-0.1257703457608885,90.45,4.8,68.4,-1003.41797,20.50781,-87.89063,0.1508177403891844,-0.0743429976203992,0.0470306892217904,52.5,23.1,-14.1
-641.60156,148.4375,-729.49219,0.0983246942074273,-0.0333078634450597,0.0345069046411798,-24.0,35.85,12.15,-604.49219,37.59766,814.45312,0.0971256530113072,-0.0242480338308824,-0.1320322380511938,91.35,5.7,67.8,-987.79297,20.01953,-83.49609,0.132165406673121,-0.0816707624848974,0.091529778363563,52.5,23.1,-14.1
-653.80859,147.46094,-729.98047,0.0803383781339249,0.006128723668378,-0.0174532925199432,-24.0,35.85,12.15,-609.86328,20.50781,813.47656,0.0374380105869791,0.004529827540626,-0.0851347174513306,91.35,5.7,67.8,-983.88672,26.85547,-98.14453,0.1783965605645728,-0.0538254305327295,0.0091929982361045,52.5,23.1,-14.1
-655.76172,141.60156,-725.58594,0.0744763407752516,0.0430337107017981,-0.0298437339457014,-22.95,35.85,13.2,-617.1875,20.99609,823.24219,0.0575558972759422,-0.0143890179522168,-0.1063184767144865,91.35,6.9,68.1,-988.76953,25.87891,-87.40234,0.1783965605645728,-0.0655498543159266,0.0503614755662963,52.5,20.55,-16.2
-660.64453,122.07031,-738.28125,0.1181760691196108,-0.0422343499043847,-0.0142556747973644,-24.3,35.1,12.9,-594.23828,29.29688,829.58984,0.063018428768834,0.0218499514386422,-0.1295008125041012,91.65,6.0,67.95,-1007.32422,40.52734,-86.42578,0.162275652395602,-0.0712787230526728,0.0727442760255724,52.95,22.2,-15.75
-667.48047,138.18359,-728.51562,0.1296339811260284,0.0071944217096458,-0.0812710820861907,-24.45,34.95,12.6,-591.30859,50.29297,824.21875,0.0662158719584876,-0.023981696587028,-0.1640077171452811,90.75,8.4,68.1,-983.88672,35.15625,-99.12109,0.1658729505168874,0.011191400229638,0.0762082309920056,51.75,21.6,-15.9
-651.85547,140.13672,-740.72266,0.1273690673557154,0.0013323843509724,-0.0635512777894679,-23.7,34.35,13.5,-603.51562,47.36328,814.45312,0.0053291883380394,-0.0648836621404404,-0.1604104190239956,91.2,4.8,68.4,-984.86328,54.19922,-130.37109,0.1284349399299083,-0.0317089673173077,0.0683476171068735,52.65,22.5,-17.1
-647.46094,133.78906,-727.53906,0.2143690181786523,-0.0760750623700784,-0.0543582795533633,-23.7,34.35,13.5,-610.83984,48.82813,832.03125,0.0616860444178615,-0.0515605167624164,-0.2111715749889987,91.95,4.8,67.95,-1007.32422,51.75781,-95.21484,0.1384272989634262,0.032375159492794,0.0556906639043358,52.95,23.25,-16.05
-656.73828,127.92969,-728.51562,0.1316323831195619,-0.0238483534321757,-0.0462311538914518,-22.8,34.95,12.6,-602.05078,43.45703,796.875,0.0730107878023519,-0.0325085026476463,-0.1392266597608396,91.95,5.25,66.9,-1000.97656,54.19922,-98.63281,0.1308330223221485,-0.0051960197161123,0.0869999508229369,51.45,24.15,-15.9
-653.32031,125.48828,-728.51562,0.1059187963157798,-0.0141225061754373,-0.077007591789419,-23.1,33.75,12.3,-606.93359,42.96875,806.64062,0.0293108849250675,-0.0608866836204481,-0.1870567097800435,91.95,5.25,66.9,-996.09375,67.38281,-105.95703,0.146687593247265,0.0069280844657914,0.0455651362488907,51.45,24.15,-15.9
-652.34375,105.95703,-737.30469,0.2182328280767173,-0.0357059458372999,-0.0155880591483369,-23.7,34.05,12.3,-601.5625,59.57031,806.64062,0.0539585991546566,-0.0476967068643514,-0.1546815502872494,91.65,6.0,69.0,-966.79687,83.00781,-111.32813,0.1358958734163337,0.0250473946282958,0.037970859607613,51.0,23.1,-15.6
-656.25,100.58594,-736.32812,0.1921193863413034,-0.0230489926347623,-0.1027213531261262,-23.7,34.05,13.5,-600.09766,36.62109,810.54687,0.0543582795533633,-0.0153215473715574,-0.1602772504020684,92.1,4.95,67.8,-975.58594,53.71094,-104.98047,0.0908637607210019,0.0467641774450108,0.0583552580733556,51.0,23.1,-15.6
-663.57422,100.09766,-718.75,0.225294081164436,-0.049162259837251,-0.0884655037958365,-23.7,34.05,13.5,-601.5625,34.66797,798.82812,0.011191400229638,-0.0401026047559989,-0.1819938586858583,93.45,5.25,67.95,-966.79687,59.08203,-109.86328,0.1316323831195619,0.0852680606061829,0.0097258472567384,51.9,24.0,-15.0
-650.39062,83.49609,-735.83984,0.2472772012250054,-0.0999234158022541,-0.0259800985805615,-24.15,34.2,12.3,-542.96875,25.87891,796.38672,0.0205175670876697,0.0671485759107534,-0.179062752740059,91.05,5.4,67.5,-982.91016,75.19531,-138.67187,0.0723445956268657,0.1085833904847996,-0.0165205885676775,52.5,21.9,-16.65
-662.10937,88.37891,-738.28125,0.2468775208262987,-0.0731439564242791,-0.0780734643636119,-23.1,34.95,13.35,-721.67969,29.29688,771.48437,0.0967257980796753,0.1714686506317065,-0.230356757725696,91.2,5.55,67.65,-988.76953,66.89453,-128.41797,0.0627519169920545,0.0779402957416847,-0.0270459711547545,52.95,22.2,-15.75
-643.06641,87.40234,-737.30469,0.2729907880287874,-0.0559571756811154,-0.0639509581881746,-23.7,34.35,12.15,-605.46875,53.22266,811.52344,0.0583552580733556,0.0503614755662963,-0.1676048407336414,91.05,5.4,67.8,-995.11719,75.68359,-133.78906,0.020117886688963,0.0840688448771376,-0.0640843013430269,49.35,24.3,-15.75
-665.03906,93.26172,-762.20703,0.3250841538118378,-0.1181760691196108,0.0309096065198943,-22.95,32.85,12.45,-620.11719,65.42969,798.82812,0.0755420388165193,0.0483628990398376,-0.1713353074768541,91.05,5.4,67.8,-997.55859,76.66016,-140.625,0.0504946441882235,0.1520167815853045,-0.0341072242424731,49.35,24.3,-15.75
-656.73828,87.89063,-752.44141,0.285514572609398,-0.1281684281531288,0.0261132672024887,-23.4,32.4,11.55,-618.16406,48.82813,817.87109,0.046897346066938,0.0756753819713717,-0.1649402465646217,91.05,5.4,67.05,-985.83984,67.38281,-136.23047,0.050761155965003,0.1396263401595463,-0.0901975685455157,52.5,22.65,-16.65
-646.48437,85.9375,-752.44141,0.2744563410016871,-0.0866002704242302,-0.0543582795533633,-23.1,34.95,12.3,-621.09375,73.73047,790.03906,0.0367718184114929,0.0366386497895657,-0.152283293362084,92.55,4.95,66.0,-984.86328,62.98828,-139.64844,0.0411684773301918,0.0977916706538682,-0.0081271256619115,52.5,22.65,-16.65
-666.01562,88.86719,-759.27734,0.23981626773858,-0.0562235129249697,-0.0592879620256213,-23.4,31.95,12.3,-635.74219,63.47656,788.57422,0.032908183046353,-0.0021317451483858,-0.1566799522807829,91.2,6.0,67.2,-996.09375,64.94141,-149.90234,0.0600873228230347,0.0993905667816202,-0.0430337107017981,51.9,22.2,-16.05
-668.94531,76.66016,-775.87891,0.2679279369346023,-0.0712787230526728,0.0119907610270514,-23.7,32.85,11.4,-645.01953,71.28906,769.04297,0.0146553551960711,0.0490290912153239,-0.1047197551196597,91.2,6.0,67.2,-1007.32422,75.68359,-144.04297,0.0662158719584876,0.0799386977352182,-0.0277121633302407,52.5,20.85,-16.65
-665.03906,66.89453,-780.76172,0.2298239087050621,-0.0814042507081179,-0.0153215473715574,-23.7,32.85,11.4,-653.80859,65.42969,770.50781,0.0543582795533633,0.0566231933236764,-0.1207074946667034,93.0,4.05,67.2,-1001.46484,55.66406,-125.48828,0.0538254305327295,0.0624854052152749,0.0381042027624654,51.6,21.75,-15.75
-666.50391,75.19531,-769.04297,0.2251607380095836,-0.04849624219469,-0.032375159492794,-22.35,32.7,12.0,-638.67187,40.52734,770.01953,-0.0318423104721601,0.0415681577288985,-0.1172435397002702,92.4,5.25,67.65,-1001.95312,25.87891,-142.57812,0.0838025076332833,0.1027213531261262,-0.0178529729186499,51.9,21.75,-16.05
-677.24609,63.47656,-756.34766,0.2568698798598167,-0.0674150876875329,0.0590214502488418,-24.3,32.55,12.15,-667.96875,39.55078,766.60156,-0.0219831200605693,0.1560137601052967,-0.0969923098564548,92.4,5.25,67.65,-1019.53125,10.74219,-149.41406,0.0367718184114929,0.0528927265804637,-0.0357059458372999,50.55,21.0,-15.45
-682.12891,70.80078,-768.55469,0.1814610096652244,-0.0426340303030914,0.0255804181818548,-24.15,32.7,11.55,-679.6875,34.66797,760.74219,-0.0386370517830992,0.0812710820861907,-0.0819372742616769,92.7,3.75,67.95,-1022.46094,19.53125,-115.72266,0.0714118916745999,0.0832694840797242,0.0210505906412288,50.25,23.4,-15.9
-672.36328,68.35938,-767.08984,0.1891882803955041,0.0003996803987067,-0.0003996803987067,-24.15,32.7,11.55,-659.17969,36.62109,763.67187,-0.043566559722432,0.0831363154577971,-0.0969923098564548,92.55,4.95,66.75,-1018.55469,0.48828,-127.44141,0.0965926294577481,0.0544916227082157,0.0258469299586344,50.25,23.4,-15.9
-672.36328,57.61719,-763.67187,0.2819172744881125,-0.1163108357480045,0.0506278128101507,-23.4,33.45,12.3,-672.36328,19.04297,786.62109,-0.0514271736075641,0.1179097318757565,-0.0884655037958365,92.85,5.4,67.8,-1015.13672,18.55469,-154.78516,0.1737335644020195,0.1048529237415869,-0.0526263893366094,50.25,23.4,-15.9
-661.62109,88.86719,-748.04687,0.2057090434961068,-0.0357059458372999,0.025713586803782,-22.95,32.55,11.85,-664.0625,14.16016,778.80859,-0.0627519169920545,0.1175098769441246,-0.1163108357480045,92.85,5.4,67.8,-1000.0,8.78906,-133.30078,0.1211071750654101,0.0852680606061829,-0.0151883787496302,51.75,21.9,-16.65
-650.87891,80.07813,-751.46484,0.1430902951259795,0.0347734164179594,0.0333078634450597,-22.8,31.65,12.6,-667.96875,24.41406,770.01953,-0.0415681577288985,0.0807380585326316,-0.1068515002680456,92.85,3.15,67.8,-1027.34375,10.25391,-122.07031,0.1502848913685505,0.0850015488294034,-0.0226493122360556,51.75,21.9,-16.65
-658.20312,64.45313,-750.0,0.177330862523305,0.0283781809728018,0.0612863640191548,-22.95,32.1,12.15,-662.59766,15.625,771.48437,-0.1111148160318922,0.1105819670112583,-0.1369617459905266,93.0,4.05,67.2,-991.69922,41.01563,-146.97266,0.131099534098928,0.1782633919426456,-0.0155880591483369,51.45,21.15,-16.65
-647.46094,83.49609,-729.49219,0.1079173728422385,0.0317089673173077,-0.0487625794385443,-22.95,32.1,12.15,-658.69141,29.29688,777.83203,-0.094860564708069,0.0972588216332344,-0.1008561197545199,92.55,3.9,67.8,-1025.39063,24.41406,-150.87891,0.1700030976588069,0.0350397536618137,-0.0667488955120467,52.65,20.7,-17.55
-655.27344,98.14453,-740.72266,0.1472204422678988,0.063684446411395,-0.0464976656682313,-22.65,32.85,12.9,-646.48437,24.41406,777.34375,-0.0971256530113072,0.1293674693492489,-0.1051194355183664,92.4,3.9,67.8,-1016.60156,35.15625,-116.21094,0.1564134405040034,0.0546247913301429,-0.0722112524720134,51.15,22.95,-17.1
-651.36719,83.49609,-736.81641,0.1092495826602858,0.0891316959713228,-0.0105252080541518,-23.1,31.65,10.95,-639.64844,50.29297,771.48437,-0.0586217698501351,0.1697365858820273,-0.1213736868421896,92.4,4.05,67.95,-998.53516,55.17578,-122.07031,0.1845252842329509,0.0070612530877186,-0.051827028539196,52.05,23.1,-15.9
-649.90234,83.98438,-736.32812,0.0965926294577481,0.1253706653621819,-0.0552909835056291,-23.85,31.95,12.3,-638.67187,23.92578,789.0625,-0.1061853080925594,0.1229724084370164,-0.0885988469506889,92.4,3.75,67.2,-1004.88281,43.45703,-140.625,0.1632081818149425,0.0185191650941362,-0.0734104682010586,52.35,22.2,-16.8
-661.13281,72.26563,-727.05078,0.0595542992694757,0.1452220402743654,-0.0527595579585365,-23.85,31.95,12.3,-616.21094,30.76172,789.0625,-0.0983246942074273,0.0560903443030425,-0.1141790905996186,93.45,4.5,66.6,-1001.95312,57.12891,-105.95703,0.0750091897958855,0.0274456515534612,-0.0555574952824086,51.75,20.85,-17.4
-661.62109,85.9375,-718.26172,0.1005896079777403,0.1409587245105188,-0.0555574952824086,-23.1,31.65,12.3,-631.83594,21.97266,797.36328,-0.1065849884912661,0.089797888146809,-0.0759418937481512,93.45,4.5,66.6,-991.21094,78.61328,-114.25781,0.1239051123892822,0.0225161436141284,-0.0261132672024887,51.75,20.85,-17.4
-665.52734,73.73047,-717.28516,0.0576890658978693,0.1782633919426456,-0.1169770279234907,-23.4,30.9,12.0,-617.1875,15.625,795.41016,-0.0972588216332344,0.0871332939777893,-0.0852680606061829,93.45,4.8,67.95,-981.93359,64.94141,-136.71875,0.094860564708069,0.0856677410048896,-0.0578224090527217,51.9,22.2,-16.8
-654.78516,59.57031,-716.30859,0.0546247913301429,0.1696034172601001,-0.098724374606134,-22.35,30.45,11.25,-600.58594,6.83594,796.875,-0.1149786259299572,0.0166539317225298,-0.1064518198693389,91.95,3.3,67.65,-997.55859,51.75781,-147.94922,0.0233155044115418,0.0522267089379027,-0.0924624823158288,52.5,21.15,-17.4
-650.87891,76.17188,-728.51562,0.0818039311068246,0.1398928519363259,-0.0598208110462552,-23.25,31.8,12.9,-613.28125,2.44141,800.29297,-0.0976585020319411,0.0431668793237253,-0.0642174699649541,92.7,4.5,66.15,-962.40234,65.42969,-121.58203,0.043566559722432,0.0814042507081179,-0.0664823837352672,52.65,22.95,-16.8
-668.45703,62.01172,-725.09766,0.039569755735365,0.1826600508613445,-0.0868667822010097,-23.25,31.8,12.9,-622.07031,-18.55469,778.80859,-0.1103154552344788,0.0109248884528585,-0.0730107878023519,92.7,4.5,66.15,-956.05469,64.94141,-106.44531,0.077540615342978,0.1101822866125516,-0.0551578148837019,51.9,21.0,-15.45
-663.08594,59.57031,-740.72266,0.0434333911005048,0.1614762915981885,-0.0659495347146333,-24.3,32.55,12.15,-625.0,-18.55469,768.55469,-0.0997902471803269,0.023981696587028,-0.0674150876875329,93.45,3.75,66.6,-995.60547,44.43359,-129.88281,0.0608866836204481,0.1850581332535847,-0.0358392889921523,52.5,20.85,-15.9
-654.78516,69.82422,-735.35156,0.1337641282679478,0.1317657262744143,-0.059687642424328,-23.25,32.55,11.4,-613.76953,-10.25391,759.27734,-0.0568897051004559,0.0750091897958855,-0.1346968322202135,92.85,1.95,66.3,-963.86719,27.34375,-128.41797,0.0221164632154217,0.1284349399299083,-0.0303767574992605,52.35,20.7,-16.5
-656.25,49.31641,-739.74609,0.1009892883764471,0.2079739572664199,-0.1273690673557154,-23.85,32.4,11.25,-616.21094,-26.85547,806.64062,-0.0794058487145844,0.1011224569983742,-0.0277121633302407,92.85,1.95,66.3,-986.81641,16.60156,-124.02344,0.0191853572696224,0.1574793130781963,-0.1207074946667034,52.35,20.7,-16.5
-652.83203,48.33984,-733.88672,0.1139127533557643,0.1682710329091277,-0.0835359958565038,-23.85,32.4,11.25,-604.98047,1.95312,829.10156,-0.0981913510525749,0.1183094122744632,-0.06634921511334,91.95,3.3,66.9,-1004.39453,0.48828,-112.30469,-0.04849624219469,0.1528161423827179,-0.0883323351739094,51.0,20.85,-17.4
-644.53125,37.10938,-744.62891,0.1228392398150893,0.1617428033749681,-0.0307764378979672,-23.25,31.35,10.8,-625.97656,-42.48047,814.45312,-0.0550244717288496,0.0762082309920056,-0.0780734643636119,93.0,3.3,66.6,-984.86328,-13.18359,-99.60938,0.0117244237831971,0.087532974376496,-0.096459460835821,51.0,20.85,-17.4
-642.08984,38.57422,-743.16406,0.0999234158022541,0.2334212068263476,-0.0840688448771376,-24.0,31.35,12.15,-628.41797,-32.71484,819.82422,-0.1069846688899728,0.0690138092823597,-0.1280352595312016,91.2,3.75,66.15,-987.79297,-15.13672,-109.86328,0.0522267089379027,0.0834028272345766,-0.0688804661275074,50.1,21.45,-18.15
-642.08984,36.62109,-754.39453,0.1330979360924615,0.1569464640575625,-0.0287778613715085,-24.15,31.65,12.15,-634.27734,-38.57422,837.40234,-0.1220398790176759,0.0548913031069224,-0.1728008604497538,91.2,3.75,66.15,-975.58594,-1.46484,-107.42188,0.0739433172216925,0.0499617951675896,-0.040235773377926,51.75,20.85,-16.95
-648.4375,30.27344,-746.09375,0.1641408857672083,0.1718683310304132,-0.023981696587028,-24.0,31.65,10.95,-614.74609,-55.17578,831.54297,-0.1360290420382608,0.0347734164179594,-0.1029876903699806,92.7,2.55,66.9,-991.21094,32.71484,-86.91406,0.0879326547752027,0.0095926786348112,-0.0818039311068246,50.25,19.8,-16.95
-623.53516,44.92188,-763.18359,0.2031776179490143,0.1349631694640679,-0.051827028539196,-24.0,31.05,11.85,-620.60547,-21.97266,857.91016,-0.1450888716524382,0.0091929982361045,-0.1420244225517865,92.7,3.0,66.6,-984.86328,20.50781,-104.98047,0.1449555284975858,0.1007227765996675,-0.0991240550048407,51.0,21.15,-17.4
-643.06641,21.48438,-752.92969,0.1706692898342931,0.1577458248549758,-0.0230489926347623,-24.0,31.05,11.85,-625.97656,-35.64453,835.44922,-0.1248376418086228,-0.0219831200605693,-0.1520167815853045,92.1,2.7,66.0,-1010.25391,31.73828,-75.68359,0.0612863640191548,0.0091929982361045,-0.1108484787880378,51.0,21.15,-17.4
-629.88281,29.29688,-770.01953,0.164540566165915,0.2131699769825322,-0.0567565364785288,-24.9,30.45,11.55,-637.20703,-44.43359,832.51953,-0.0943277156874351,-0.0531592383572432,-0.1317657262744143,93.0,2.55,66.6,-1000.0,49.80469,-91.30859,0.10205516095064,0.0458314734927451,-0.0854012292281101,51.0,21.15,-17.4
-628.90625,17.57813,-768.55469,0.2442129266572789,0.1818606900639311,0.0162542513238231,-23.7,30.3,11.85,-641.11328,-48.33984,808.59375,-0.0479632186411309,-0.0105252080541518,-0.1473537854227512,92.55,2.7,66.0,-998.53516,76.17188,-87.40234,0.0604870032217414,0.0803383781339249,-0.0654165111610742,51.9,21.0,-16.5
-632.32422,11.23047,-762.69531,0.2306232695024755,0.1616094602201157,-0.054091942309509,-24.75,30.6,10.05,-630.37109,-53.71094,810.54687,-0.042900542079871,-0.0207840788644492,-0.1763981585710393,91.35,4.65,66.0,-992.67578,62.5,-92.77344,0.0715452348294523,0.080871401687484,-0.073676805444913,51.9,21.0,-16.5
-629.88281,18.06641,-771.97266,0.3186890928996054,0.1374945950111605,0.0237151848102485,-24.75,30.6,10.05,-626.95312,-48.33984,822.26562,0.0049295079393327,-0.0021317451483858,-0.1600107386252889,91.35,4.65,66.0,-993.16406,56.64063,-104.49219,0.0171867807431637,0.0907304175661496,-0.057422728654015,52.05,20.55,-17.4
-625.97656,25.39063,-782.22656,0.3113613280351072,0.1245711300318432,-0.0118575924051242,-24.0,30.6,11.85,-620.11719,-41.01563,828.61328,-0.0018652333716063,0.0255804181818548,-0.1867901980032639,91.95,2.25,66.9,-989.74609,66.40625,-106.44531,0.0631515973907612,0.031309286918601,0.0031976177225788,52.05,20.55,-17.4
-623.04687,4.88281,-780.76172,0.3180229007241191,0.1113813278086717,-0.0531592383572432,-25.05,31.05,10.8,-622.07031,-56.15234,825.19531,0.0262466103573411,0.0085268060606182,-0.1787964154962047,94.35,1.95,66.75,-987.79297,40.03906,-104.00391,0.0799386977352182,0.0720780838500862,-0.0668820641339739,51.75,19.35,-16.95
-631.34766,-3.41797,-770.01953,0.4419280131134014,0.0836691644784309,-0.0154548905264097,-22.65,30.3,11.4,-618.16406,-52.24609,824.21875,0.0398360929792193,-0.0365053066347134,-0.1340306400447273,93.3,2.7,66.75,-974.60937,37.59766,-101.5625,0.0526263893366094,0.1163108357480045,-0.0642174699649541,51.0,20.55,-16.65
-618.65234,-17.57813,-781.73828,0.3999601749857961,0.074209828998472,0.0243813769857347,-25.05,29.85,10.8,-623.53516,-54.19922,819.33594,0.0443659205198454,-0.0110582316077108,-0.1710689702329998,93.3,2.7,66.75,-971.67969,31.73828,-115.72266,0.0254472495599277,0.0818039311068246,-0.0202512298438154,50.85,20.7,-17.1
-611.32812,-6.34766,-770.01953,0.408753492823194,0.1161776671260773,-0.060753514998521,-25.05,29.85,10.8,-656.25,-78.125,785.15625,0.020117886688963,-0.296705972839036,-0.1869233666251911,93.6,3.45,66.75,-976.07422,18.06641,-118.16406,0.0114579120064175,0.0258469299586344,-0.0452986244721112,52.5,19.8,-16.95
-608.39844,11.71875,-769.53125,0.4616462194036577,0.0318423104721601,-0.0118575924051242,-25.2,29.7,10.95,-595.21484,-64.94141,833.98437,0.0889985273493956,-0.0330413516682802,-0.2050428513206206,92.55,3.45,67.5,-966.79687,17.57813,-134.76562,-0.005595700114819,0.0702128504784798,-0.0158545709251164,53.25,19.8,-17.7
-609.86328,-7.8125,-774.90234,0.4802985531197211,0.0009327039522657,-0.0317089673173077,-23.25,31.35,9.75,-615.23437,-52.73438,795.89844,0.0671485759107534,-0.068081105330094,-0.2101057024148057,92.55,3.45,67.5,-981.93359,27.83203,-125.97656,-0.0253139064050753,0.0382373713843925,0.0153215473715574,52.35,21.45,-17.1
-608.88672,-2.92969,-780.27344,0.4351332718024623,0.057422728654015,-0.0436999028772844,-24.15,30.9,10.95,-613.28125,-62.5,791.99219,0.0863337586474507,-0.046897346066938,-0.1873230470238978,93.45,-0.75,66.6,-971.19141,0.0,-134.76562,0.0310429496747467,-0.0460979852695246,-0.0679479367081668,52.35,21.45,-17.1
-615.72266,-23.4375,-774.90234,0.4953537632474242,-0.0042633157638465,0.0095926786348112,-24.15,30.9,10.95,-624.51172,-50.78125,781.25,0.0548913031069224,-0.0514271736075641,-0.1945176432664688,92.7,1.5,67.2,-984.86328,0.48828,-133.78906,0.0058622118915985,0.0219831200605693,-0.0373046674321268,51.9,19.2,-17.85
-612.30469,-20.01953,-777.83203,0.4842955316397134,-0.063684446411395,-0.0374380105869791,-25.05,28.8,9.3,-606.93359,-48.33984,785.64453,0.0528927265804637,-0.0138559943986577,-0.1982481100096814,92.85,1.65,66.0,-993.16406,10.25391,-137.69531,0.0079939570399844,-0.0106585512090041,-0.0487625794385443,52.8,19.8,-17.7
-627.44141,-25.39063,-780.76172,0.4699065136874965,0.0198513749121835,-0.077007591789419,-24.75,29.85,9.3,-627.92969,-29.29688,810.54687,0.0684807857288007,-0.0062618922903052,-0.1620091406188224,92.85,1.65,66.0,-987.30469,18.06641,-127.92969,-0.0095926786348112,0.0382373713843925,-0.0490290912153239,51.45,21.15,-16.95
-602.05078,-28.32031,-772.46094,0.5022818477132157,-0.0363721380127862,-0.0107917198309313,-24.75,28.5,10.35,-630.37109,-32.22656,808.59375,0.0888651841945432,0.0035972981212855,-0.1745329251994329,94.2,2.55,67.2,-975.58594,16.11328,-150.87891,0.0361056262360067,-0.0237151848102485,-0.074209828998472,52.35,19.5,-17.85
-592.28516,-31.73828,-768.06641,0.4914901278822843,-0.0945942274642146,-0.0053291883380394,-24.3,28.8,10.05,-635.25391,-40.52734,783.69141,0.0595542992694757,-0.0354394340605204,-0.176797838969746,93.9,0.9,67.5,-969.23828,19.04297,-165.52734,0.0246477142295891,0.0417013263508257,-0.0997902471803269,50.25,19.8,-16.95
-621.09375,-34.17969,-778.32031,0.3943644748709771,-0.0070612530877186,-0.0205175670876697,-24.3,28.8,10.05,-625.97656,-38.08594,781.73828,0.050228132411444,-0.0298437339457014,-0.1854578136522914,93.9,0.9,67.5,-977.05078,32.71484,-171.38672,0.0110582316077108,0.0297105653237742,-0.1005896079777403,51.9,20.7,-16.8
-605.95703,-44.43359,-769.04297,0.4010260475599891,-0.0094593354799588,-0.0251807377831481,-24.75,26.55,10.35,-652.83203,-51.26953,793.45703,0.0782068075184643,0.0163874199457503,-0.1305666850782942,93.9,0.9,67.5,-985.83984,41.50391,-161.13281,0.0282450123508746,-0.0241148652089552,-0.1091164140383586,51.9,20.7,-16.8
-616.69922,-57.61719,-789.0625,0.4148820419586469,-0.0579555776746489,0.0490290912153239,-25.8,27.0,10.8,-652.34375,-43.45703,784.17969,0.1317657262744143,-0.0221164632154217,-0.1472204422678988,93.3,3.45,67.8,-1000.0,61.52344,-149.90234,0.0038636353651398,-0.039569755735365,-0.0976585020319411,51.0,19.05,-16.95
-626.95312,-66.40625,-785.64453,0.3587916976556043,-0.0226493122360556,-0.0478300500192038,-24.15,28.95,9.6,-645.50781,-19.53125,789.0625,0.1312327027208552,0.0278453319521679,-0.1778637115439389,92.4,1.5,67.2,-979.98047,48.33984,-153.32031,0.002264913770313,0.0033307863445059,-0.1047197551196597,51.0,19.05,-16.95
-632.8125,-59.08203,-784.66797,0.3867703727626246,-0.0564900247017492,0.0170536121212365,-24.15,28.95,9.6,-653.32031,-4.88281,787.59766,0.1117810082073784,-0.0207840788644492,-0.1574793130781963,92.7,0.3,66.9,-1000.0,56.15234,-167.96875,-0.0556906639043358,0.0353062654385932,-0.1577458248549758,50.55,20.25,-17.55
-641.11328,-56.64063,-798.82812,0.3594578898310905,-0.0382373713843925,0.0069280844657914,-25.95,26.7,9.15,-647.46094,18.06641,797.85156,0.0975253334100139,-0.006128723668378,-0.1005896079777403,92.7,0.3,66.9,-1010.74219,58.59375,-164.55078,-0.0935283548900217,0.0139893375535101,-0.1564134405040034,50.7,18.6,-17.7
-655.76172,-61.52344,-779.78516,0.2945742276906501,-0.0278453319521679,-0.0105252080541518,-24.3,27.3,10.8,-616.69922,17.08984,763.67187,0.1509510835440367,-0.0559571756811154,-0.1084502218628724,92.55,1.2,66.3,-1018.55469,67.87109,-151.36719,-0.1192419416938038,0.0049295079393327,-0.1345634890653612,50.7,18.6,-17.7
-637.69531,-65.91797,-782.22656,0.2212971026444438,-0.025713586803782,-0.0103920394322246,-24.0,27.0,9.75,-632.8125,5.37109,777.34375,0.0772741035661985,0.0263797789792682,-0.1040535629441735,92.4,0.0,66.9,-1018.06641,38.57422,-150.39062,-0.1664057995375213,0.0079939570399844,-0.1490856756395052,52.35,19.95,-17.55
-637.20703,-62.98828,-775.87891,0.2443460952792061,-0.1051194355183664,0.0226493122360556,-25.2,26.4,10.2,-621.09375,-11.71875,791.50391,0.034640073263107,0.0385038831611721,-0.0526263893366094,93.45,0.75,68.4,-1016.60156,30.27344,-125.0,-0.1662726309155942,0.0046631706954784,-0.1508177403891844,50.85,19.5,-16.8
-642.08984,-67.38281,-775.39062,0.1112481591867445,-0.0066615726890119,-0.0102588708102974,-25.2,26.4,10.2,-612.79297,-0.97656,800.78125,0.0053291883380394,-0.0067947413109391,-0.0001331686219271,92.4,1.05,65.55,-1007.8125,8.78906,-124.51172,-0.1901209843477699,-0.0708790426539661,-0.172401180051047,50.1,19.5,-17.1
-640.13672,-80.07813,-764.16016,0.1576124817001235,-0.0047963393174056,-0.0006661921754862,-23.85,26.4,8.85,-630.85937,-9.76562,802.24609,0.0057288687367461,0.0083936374386911,-0.0683476171068735,93.45,1.5,66.15,-988.76953,21.97266,-137.20703,-0.1237717692344298,-0.0199847180670358,-0.0815375938629702,51.15,18.45,-17.85
-638.18359,-62.98828,-763.67187,0.1057856276938527,-0.032375159492794,0.0447657754514773,-23.25,27.0,10.05,-625.0,-4.39453,815.42969,-0.0105252080541518,0.0071944217096458,-0.0203843984657425,93.6,1.2,66.3,-987.30469,-16.11328,-127.92969,-0.1742664134226534,-0.0496952833908101,-0.1386936362072806,51.15,18.45,-17.85
-639.64844,-75.19531,-762.20703,0.0421010067495324,-0.0173201238980161,0.0077274452632048,-25.95,26.1,8.85,-605.95703,-3.41797,786.13281,0.0211837592631559,-0.0106585512090041,0.0090596550812521,93.6,1.2,66.3,-992.1875,-9.27734,-121.09375,-0.1486859952407985,-0.0065284040670847,-0.1409587245105188,50.85,17.7,-17.1
-651.36719,-77.14844,-751.95312,0.0375711792089063,-0.082603291904238,0.0241148652089552,-25.95,26.1,8.85,-640.13672,-20.01953,775.87891,-0.0382373713843925,0.0255804181818548,-0.0221164632154217,92.7,0.3,67.95,-986.81641,-18.06641,-135.25391,-0.1080505414641657,-0.0125237845806105,-0.0904640803222952,50.85,17.7,-17.1
-635.25391,-83.00781,-745.11719,0.0142556747973644,-0.0294440535469947,0.0102588708102974,-23.25,25.8,9.75,-634.27734,-2.44141,798.82812,-0.0373046674321268,0.0676814249313873,0.0600873228230347,93.9,0.9,65.7,-976.5625,-10.74219,-126.46484,-0.0989908863829135,-0.0094593354799588,-0.1263031947815224,51.45,19.35,-18.45
-637.69531,-87.40234,-755.37109,-0.0249142260063686,0.0174532925199432,-0.0277121633302407,-24.15,25.65,9.9,-605.46875,-29.29688,798.82812,-0.096459460835821,0.0746095093971788,0.0611531953972277,92.55,0.15,65.7,-983.88672,4.88281,-107.42188,-0.0536922619108023,-0.0230489926347623,-0.0984578628293545,51.6,20.25,-16.8
-619.62891,-80.56641,-749.51172,0.0065284040670847,0.006128723668378,0.040235773377926,-25.2,26.4,9.9,-624.02344,-18.55469,785.15625,-0.0640843013430269,0.0504946441882235,0.0646171503636608,92.55,0.15,65.7,-977.53906,15.625,-136.71875,-0.0815375938629702,0.0215834396618626,-0.116577347524784,52.65,18.75,-16.8
-640.625,-66.89453,-760.25391,-0.0523598775598298,-0.0305099261211876,0.0090596550812521,-24.45,26.4,8.85,-625.97656,-30.76172,791.99219,-0.0602204914449619,0.0417013263508257,0.1181760691196108,92.1,0.9,66.3,-979.49219,-3.90625,-129.39453,-0.0299770771005538,0.0,-0.1326982556937548,51.9,19.5,-17.55
-629.39453,-66.40625,-757.8125,-0.1101822866125516,0.0754088701945922,-0.0053291883380394,-24.45,26.4,9.9,-634.76562,-41.99219,809.08203,-0.0374380105869791,0.034640073263107,0.116577347524784,92.85,0.45,66.75,-997.55859,-0.48828,-114.25781,-0.0446324322966249,0.0123904414257581,-0.1370949146124538,50.7,19.05,-16.2
-631.34766,-67.87109,-754.88281,-0.0804717212887773,0.0066615726890119,0.0371714988101996,-24.45,26.4,9.9,-619.14062,-43.94531,811.52344,-0.0782068075184643,0.0638177895662474,0.1326982556937548,92.85,0.45,66.75,-993.16406,13.67187,-114.74609,-0.0818039311068246,-0.0151883787496302,-0.1209740064434829,51.6,18.0,-15.45
-635.74219,-74.21875,-760.74219,-0.1011224569983742,0.0250473946282958,0.0051960197161123,-23.85,27.15,11.25,-624.51172,-24.90234,809.57031,-0.0154548905264097,0.0141225061754373,0.1120475199841579,92.7,1.05,66.6,-987.30469,15.625,-125.0,-0.0459648166475974,0.0225161436141284,-0.1536156777130565,51.6,18.0,-15.45
-637.69531,-68.35938,-774.41406,-0.1373614263892333,0.0563568560798221,-0.0371714988101996,-24.45,26.7,9.9,-637.20703,-34.66797,787.10937,-0.0463644970463041,0.049162259837251,0.1617428033749681,92.1,1.65,67.5,-1005.85937,15.625,-125.0,-0.0880658233971298,-0.0074609334864253,-0.1509510835440367,51.75,19.35,-17.7
-643.06641,-69.82422,-764.64844,-0.1561469287272238,-0.0417013263508257,-0.0403691165327784,-24.3,27.0,11.1,-641.11328,-33.69141,803.71094,0.0245145456076619,0.0230489926347623,0.1322985752950481,92.7,0.3,65.1,-994.62891,14.16016,-120.60547,-0.0309096065198943,-0.0460979852695246,-0.1253706653621819,51.45,19.8,-17.4
-635.25391,-55.66406,-765.625,-0.1276355791324949,0.0002665117767795,-0.0209172474863764,-24.3,27.0,11.1,-613.76953,-32.22656,786.62109,-0.0293108849250675,0.0456983048708179,0.1167105161467112,92.7,0.3,65.1,-1004.39453,-4.88281,-116.69922,-0.0419678381276052,-0.0039969785199922,-0.1306998537002213,50.85,19.5,-17.55
-628.90625,-72.26563,-763.67187,-0.1718683310304132,0.0527595579585365,-0.0795390173365115,-24.45,26.4,9.6,-633.78906,-27.34375,803.22266,0.0070612530877186,0.0189188454928429,0.1289677889505422,92.85,0.45,67.05,-992.67578,5.85937,-130.37109,-0.039569755735365,-0.0327748398915007,-0.1073843492886795,52.05,20.1,-17.7
-630.85937,-62.5,-771.97266,-0.1777305429220118,0.0067947413109391,-0.0606201718436686,-24.45,25.65,9.6,-624.02344,-50.29297,803.71094,-0.0085268060606182,0.0359724576140795,0.1405590441118121,93.9,1.95,66.3,-1001.95312,6.34766,-118.65234,-0.0716784034513795,-0.0170536121212365,-0.1453552088962925,52.65,18.75,-16.05
-622.07031,-56.15234,-771.48437,-0.2009127041787012,-0.0077274452632048,-0.0383705400063197,-24.0,28.05,9.75,-635.25391,-43.94531,785.15625,-0.018385996472209,0.0927289940926083,0.1303001733015146,93.9,1.95,66.3,-1000.0,-2.44141,-116.21094,-0.0606201718436686,-0.0242480338308824,-0.063018428768834,52.05,19.05,-15.9
-626.95312,-61.52344,-769.53125,-0.2406156285359934,0.0185191650941362,-0.0818039311068246,-24.45,28.2,9.15,-645.50781,-29.78516,798.33984,0.0426340303030914,0.0342403928644003,0.0996569040254746,93.75,2.55,67.65,-999.02344,-13.18359,-143.06641,-0.0417013263508257,-0.0194516945134768,-0.1105819670112583,52.05,19.05,-15.9
-633.78906,-78.125,-774.41406,-0.2302235891037688,0.0552909835056291,0.0233155044115418,-24.9,27.9,10.2,-637.20703,-47.85156,797.85156,-0.0425006871482391,0.0215834396618626,0.1179097318757565,93.3,1.65,67.05,-1000.97656,-15.625,-104.98047,-0.0644839817417337,-0.0186523337160634,-0.0628850856139816,50.55,17.7,-17.85
-621.09375,-58.10547,-770.50781,-0.2029111061722347,-0.0375711792089063,-0.0406354537766327,-24.75,26.55,8.25,-627.92969,-31.73828,790.52734,0.0579555776746489,0.0363721380127862,0.1251041535854023,93.3,0.9,66.3,-1006.83594,-7.32422,-97.65625,-0.0397029243572922,-0.0495619402359577,-0.0778071271197576,50.55,17.7,-17.85
-625.97656,-70.3125,-780.27344,-0.2287580361308692,0.0033307863445059,-0.0782068075184643,-24.15,24.6,9.6,-655.76172,-42.96875,782.71484,0.0038636353651398,0.0500949637895168,0.1231057515918688,93.3,0.9,66.3,-996.58203,-11.23047,-125.48828,-0.0543582795533633,-0.0394364125805126,-0.0815375938629702,50.55,17.7,-17.85
-629.39453,-61.52344,-774.90234,-0.2428805423063064,0.0070612530877186,-0.0618192130397887,-24.9,27.45,10.95,-639.16016,-34.66797,807.61719,-0.0151883787496302,0.0566231933236764,0.131099534098928,92.55,2.4,67.05,-1008.30078,-27.83203,-123.04688,-0.0390367321818059,-0.0355727772153728,-0.0716784034513795,52.65,19.2,-17.55
-623.53516,-51.75781,-778.80859,-0.2067749160702998,-0.079272505559732,0.0109248884528585,-24.9,27.45,10.95,-626.95312,-51.26953,800.78125,-0.0142556747973644,0.0293108849250675,0.1905206647464766,93.6,1.65,67.05,-1005.37109,-29.29688,-111.81641,-0.0881991665519822,-0.0130566336012443,-0.0599539796681824,53.25,19.05,-16.95
-625.48828,-38.08594,-771.48437,-0.2444792639011333,-0.0146553551960711,-0.0479632186411309,-22.8,27.15,10.2,-630.85937,-56.64063,796.38672,-0.023981696587028,0.0550244717288496,0.2224961438405639,92.4,2.25,66.6,-1002.44141,-48.33984,-117.67578,-0.103787051167394,-0.0282450123508746,-0.078606487917171,50.85,20.25,-16.8
-629.88281,-30.76172,-778.32031,-0.2693934899075019,0.0113245688515652,0.0163874199457503,-24.45,27.15,10.65,-653.32031,-41.99219,807.61719,-0.0158545709251164,0.0317089673173077,0.1749326055981396,91.95,1.05,65.1,-1015.13672,-29.78516,-110.83984,-0.0904640803222952,0.0149218669728507,-0.0920628019171221,51.6,18.45,-16.5
-607.42187,-38.57422,-774.90234,-0.2307564381244027,-0.0867336135790826,0.0740764858436197,-24.9,27.15,10.65,-630.85937,-49.31641,812.5,-0.0225161436141284,0.0253139064050753,0.2300904204818416,94.2,2.25,66.6,-1002.44141,-37.10938,-103.51563,-0.0556906639043358,-0.0217166082837898,-0.091529778363563,52.35,18.75,-17.1
-629.39453,-47.36328,-777.34375,-0.2475437130017849,0.0190520141147701,-0.0129234649793172,-24.9,27.15,10.65,-630.85937,-46.875,795.89844,-0.0476967068643514,0.0162542513238231,0.1802617939361791,93.9,2.4,67.05,-1005.37109,-32.22656,-119.62891,-0.050761155965003,-0.0472970264656447,-0.0367718184114929,52.35,18.45,-17.1
-617.67578,-40.03906,-783.20312,-0.2384838833876076,-0.0315757986953806,0.0338407124656936,-24.15,27.45,10.65,-635.74219,-50.29297,793.94531,-0.0427671989250186,0.0173201238980161,0.1743997565775057,93.9,2.4,67.05,-996.09375,-20.50781,-119.62891,-0.0159877395470436,-0.0450321126953316,-0.0047963393174056,52.35,18.45,-17.1
-621.58203,-44.92188,-769.04297,-0.2149020417322114,-0.0759418937481512,0.0466310088230837,-23.1,28.65,10.65,-638.67187,-38.08594,775.39062,-0.0199847180670358,0.0215834396618626,0.1737335644020195,93.9,2.4,67.05,-1018.06641,-31.25,-110.83984,-0.0355727772153728,-0.0494287716140306,0.0137228257767306,52.5,19.8,-16.2
-635.74219,-39.0625,-784.66797,-0.2595344740288364,-0.0227824808579827,-0.025713586803782,-23.4,27.15,9.15,-646.97266,-54.19922,787.10937,-0.0291777163031404,0.0241148652089552,0.1807948174897382,93.45,1.05,66.9,-999.51172,-28.32031,-98.63281,-0.041301645952119,-0.0207840788644492,-0.0142556747973644,52.5,19.8,-16.2
-620.60547,-36.62109,-771.97266,-0.2339540558469814,-0.0186523337160634,-0.0082602942838387,-24.75,28.05,11.1,-639.64844,-50.29297,793.94531,-0.0103920394322246,0.0069280844657914,0.1737335644020195,93.0,1.8,66.6,-1010.25391,-28.80859,-102.53906,-0.0254472495599277,-0.0583552580733556,-0.0107917198309313,52.05,19.8,-17.7
-626.95312,-29.78516,-768.06641,-0.1657396073620351,-0.0519601971611231,0.0520933657830503,-24.75,28.05,11.1,-633.78906,-55.17578,792.96875,-0.0015987215948268,0.0009327039522657,0.1716018192536337,93.75,2.55,66.6,-998.53516,-43.94531,-116.21094,-0.0010658725741929,-0.0623522365933478,-0.0322419908708668,52.35,19.5,-17.55
-632.32422,-24.41406,-759.27734,-0.2135696573812389,0.0031976177225788,0.0054625314928918,-23.7,28.05,10.35,-619.14062,-54.6875,810.54687,-0.0115910806283447,0.004529827540626,0.1369617459905266,93.75,2.55,66.6,-997.55859,-27.34375,-104.00391,-0.0099923590335179,-0.0261132672024887,-0.0017320647496791,52.8,20.1,-15.9
-614.25781,-30.27344,-754.88281,-0.2274256517798967,-0.0440995832759911,-0.0195850376683291,-23.85,27.45,9.9,-627.92969,-49.80469,799.80469,0.0679479367081668,0.0251807377831481,0.1521501247401568,91.8,2.4,66.3,-998.04687,-25.39063,-126.46484,0.0137228257767306,-0.0474303696204971,0.0422343499043847,52.5,19.8,-16.95
-636.23047,-25.87891,-759.76562,-0.1437564873014657,-0.0452986244721112,-0.0031976177225788,-24.45,29.4,10.65,-630.85937,-62.01172,796.875,0.0827366350590903,0.0285115241276541,0.1354961930176269,92.55,3.9,67.05,-988.28125,-56.15234,-134.27734,0.068081105330094,-0.0033307863445059,0.0210505906412288,52.5,19.8,-16.95
-630.85937,-25.87891,-763.67187,-0.1620091406188224,-0.110981647409965,0.0255804181818548,-24.45,29.4,10.65,-628.41797,-41.01563,783.69141,0.0720780838500862,-0.0069280844657914,0.1364287224369675,92.55,3.9,67.05,-985.83984,-15.625,-125.48828,-0.0011990411961201,-0.0373046674321268,0.0341072242424731,52.8,19.05,-16.65
-630.85937,-7.32422,-770.01953,-0.2271593145360423,-0.0322419908708668,-0.0082602942838387,-24.75,29.55,10.35,-633.78906,-26.36719,779.29687,0.0598208110462552,-0.0019984019935335,0.1021883295725672,92.7,3.3,66.15,-979.49219,-13.67187,-119.14063,0.0090596550812521,0.0013323843509724,0.0258469299586344,52.8,19.05,-16.65
-633.78906,-15.13672,-765.13672,-0.1572128013014168,-0.0901975685455157,0.1017886491738605,-24.3,28.5,11.4,-622.07031,-19.53125,787.59766,0.0253139064050753,0.0309096065198943,0.1413584049092255,92.4,2.25,68.4,-985.35156,1.46484,-132.8125,0.0410353087082646,0.023448673033469,-0.0010658725741929,52.05,19.35,-16.2
-651.85547,-20.01953,-778.32031,-0.2278255067115286,-0.0624854052152749,0.0342403928644003,-23.7,28.05,10.05,-627.92969,-12.20703,789.0625,0.0476967068643514,0.0177198042967228,0.1412250617543731,92.4,2.55,65.1,-986.32812,0.97656,-133.30078,0.0439662401211387,0.0385038831611721,-0.0099923590335179,52.35,18.45,-17.1
-641.11328,-18.06641,-782.71484,-0.1909203451451833,-0.1092495826602858,0.0253139064050753,-24.0,29.25,10.35,-645.01953,4.88281,772.46094,0.0700796818565527,0.0135896571548034,0.1449555284975858,92.4,2.55,65.1,-996.58203,-0.97656,-122.07031,0.0203843984657425,-0.0687472975055802,0.0037304667432126,52.35,19.2,-15.0
-645.50781,-1.95312,-778.80859,-0.1660061191388146,-0.1237717692344298,0.11990813386929,-24.0,29.25,10.35,-631.34766,8.30078,787.59766,0.0442327518979182,-0.011191400229638,0.141091893132446,93.3,3.45,67.5,-998.53516,16.60156,-117.1875,0.0126569532025376,-0.0283781809728018,0.0251807377831481,52.5,19.05,-15.15
-655.76172,12.20703,-767.57812,-0.2462113286508125,-0.0778071271197576,0.0367718184114929,-24.15,28.2,9.9,-629.39453,10.74219,791.50391,0.0690138092823597,-0.0247810573844414,0.1561469287272238,93.75,2.55,67.2,-996.58203,16.11328,-117.67578,-0.0034639549664331,-0.0198513749121835,0.020117886688963,51.0,19.35,-15.9
-629.39453,5.37109,-767.57812,-0.1979815982329019,-0.1580123366317554,0.0820704428836041,-23.1,28.65,10.95,-634.76562,8.78906,789.0625,0.0366386497895657,0.0151883787496302,0.1558805914833695,93.75,2.55,67.2,-1007.32422,25.39063,-98.14453,-0.0317089673173077,0.022382800459276,0.0162542513238231,52.95,18.75,-16.5
-645.99609,11.23047,-759.76562,-0.1893216235503565,-0.1336309596460206,0.0720780838500862,-24.0,29.55,10.35,-652.83203,3.90625,792.48047,0.0289112045263608,0.0222496318373489,0.161209779821409,93.6,3.9,67.8,-1007.32422,18.55469,-104.49219,-0.0173201238980161,0.0444992636746978,-0.0226493122360556,52.95,18.75,-16.5
-646.48437,12.20703,-757.8125,-0.2494089463733912,-0.1077840296873862,0.0823369546603836,-24.0,29.55,10.35,-650.39062,14.64844,798.33984,0.0301102457224809,0.0282450123508746,0.2248944007657293,94.5,4.05,66.15,-1011.71875,25.39063,-92.28516,-0.0495619402359577,0.0350397536618137,-0.0730107878023519,53.4,18.75,-17.55
-628.90625,4.39453,-754.39453,-0.1581455052536826,-0.0972588216332344,0.1016554805519333,-24.0,29.55,10.35,-641.60156,19.04297,798.33984,0.0548913031069224,-0.0007993607974134,0.1746660938213601,92.7,3.75,67.95,-1013.67187,6.83594,-101.5625,-0.0162542513238231,-0.0357059458372999,-0.0330413516682802,53.4,18.75,-17.55
-626.95312,36.13281,-752.92969,-0.2200980614483237,-0.0656830229378538,0.0676814249313873,-23.25,29.55,11.85,-636.23047,27.83203,797.85156,0.0334410320669869,0.0019984019935335,0.208107125888347,92.7,3.75,67.95,-1014.16016,-0.48828,-95.21484,-0.0298437339457014,0.0510274932088574,-0.0455651362488907,53.4,18.75,-17.55
-624.51172,30.27344,-746.58203,-0.2380842029889009,-0.0391699008037331,0.0612863640191548,-23.7,30.6,10.05,-640.625,23.4375,809.08203,-0.0119907610270514,-0.023981696587028,0.1938514510909826,92.4,4.5,66.6,-1034.17969,15.625,-88.86719,-0.0711455544307456,-0.0626187483701273,-0.0119907610270514,52.95,19.95,-16.8
-652.83203,22.46094,-752.92969,-0.2037106415025733,-0.0421010067495324,0.1153783063286639,-22.65,29.25,12.15,-632.8125,16.11328,796.38672,-0.0281118437289474,-0.0302434143444081,0.2010458728006284,93.75,4.05,65.85,-1001.46484,0.97656,-81.05469,-0.1012558001532266,0.0496952833908101,0.023448673033469,52.65,18.0,-16.5
-645.50781,36.13281,-746.09375,-0.2444792639011333,-0.0691469779042869,0.0611531953972277,-25.05,31.35,11.1,-645.99609,22.46094,806.64062,-0.0173201238980161,-0.0604870032217414,0.2383507147656804,91.8,4.2,66.3,-1006.34766,-29.78516,-82.51953,-0.1263031947815224,0.0207840788644492,-0.0253139064050753,52.5,18.3,-15.15
-642.57812,41.50391,-745.60547,-0.2941745472919434,-0.032908183046353,0.0187856768709157,-25.05,31.35,11.1,-636.23047,29.29688,791.99219,-0.0237151848102485,-0.0142556747973644,0.2354196088198811,91.95,3.75,66.6,-1002.44141,0.48828,-100.58594,-0.1414915735311527,0.0195850376683291,0.0037304667432126,51.9,19.5,-16.05
-641.11328,65.91797,-753.41797,-0.2324885028740818,-0.0444992636746978,0.0567565364785288,-24.15,30.9,10.95,-622.55859,34.66797,811.03516,-0.0118575924051242,-0.0624854052152749,0.2495421149953184,91.35,3.45,67.05,-1016.60156,-4.39453,-90.33203,-0.118842261295097,0.0219831200605693,-0.0295773967018471,51.15,18.75,-15.75
-634.27734,57.61719,-745.60547,-0.2078407886444927,-0.0307764378979672,0.0738101485997654,-24.45,32.4,12.3,-626.46484,10.74219,820.3125,-0.0727442760255724,-0.0980581824306478,0.2404824599140662,92.85,4.2,67.5,-992.1875,-4.88281,-85.9375,-0.1240382810112094,0.0294440535469947,-0.0655498543159266,52.5,18.6,-15.6
