IMU1_AccX,IMU1_AccY,IMU1_AccZ,IMU1_GyrX,IMU1_GyrY,IMU1_GyrZ,IMU1_MagX,IMU1_MagY,IMU1_MagZ,IMU2_AccX,IMU2_AccY,IMU2_AccZ,IMU2_GyrX,IMU2_GyrY,IMU2_GyrZ,IMU2_MagX,IMU2_MagY,IMU2_MagZ,IMU3_AccX,IMU3_AccY,IMU3_AccZ,IMU3_GyrX,IMU3_GyrY,IMU3_GyrZ,IMU3_MagX,IMU3_MagY,IMU3_MagZ
-633.30078,29.78516,-756.83594,0.2367519931708536,-0.0255804181818548,-0.0283781809728018,-24.9,31.65,11.25,-612.30469,-70.80078,818.35937,-0.0109248884528585,-0.0326416712695735,-0.166805479936228,93.75,4.5,66.9,-993.65234,-12.20703,-107.91016,0.0804717212887773,0.0442327518979182,0.1303001733015146,51.15,19.2,-17.1
-636.71875,20.99609,-749.02344,0.2141026809347979,-0.0013323843509724,0.016787100344457,-24.45,30.9,11.55,-614.74609,-62.01172,796.875,0.0397029243572922,-0.0229158240128351,-0.1847917960097304,93.6,2.7,65.7,-990.23437,4.88281,-88.37891,0.086467101802303,0.0211837592631559,0.1565467836588557,51.15,19.2,-17.1
-632.8125,0.0,-762.20703,0.2780536391229726,-0.0389035635598788,-0.0031976177225788,-24.15,31.2,10.65,-619.62891,-53.22266,808.10547,-0.0030642745677264,-0.057422728654015,-0.2073077650909336,93.6,2.7,65.7,-967.28516,35.15625,-104.98047,0.041301645952119,0.089797888146809,0.1613431229762614,51.45,21.15,-15.9
-632.32422,13.67187,-750.0,0.2801852097384332,0.0097258472567384,-0.023448673033469,-24.0,30.6,10.8,-602.53906,-43.94531,812.5,0.031309286918601,-0.0242480338308824,-0.1476202971995308,91.95,2.55,68.4,-993.16406,29.29688,-104.98047,0.1268362183350815,0.0222496318373489,0.1441561677001724,51.45,21.15,-15.9
-621.58203,16.60156,-746.09375,0.268860640886868,0.0390367321818059,-0.0173201238980161,-24.0,30.6,10.8,-595.21484,-41.99219,828.61328,0.0115910806283447,-0.0274456515534612,-0.2331546950495681,92.1,1.95,67.5,-980.46875,36.62109,-96.19141,0.0876661429984231,0.0788728251610253,0.1931852589154963,51.75,18.3,-15.15
-615.23437,11.23047,-753.41797,0.340272532561468,-0.014522186574144,-0.0219831200605693,-23.25,30.6,10.05,-603.51562,-43.45703,822.75391,0.0554241521275563,-0.0053291883380394,-0.1682710329091277,93.9,3.9,67.5,-1001.95312,21.97266,-118.65234,0.0860674214035963,0.0698131700797731,0.1665389681594485,50.85,19.5,-18.15
-632.32422,2.44141,-753.90625,0.3274824107370032,-0.0389035635598788,0.0033307863445059,-25.2,29.7,10.2,-605.46875,-41.01563,819.82422,0.0516936853843436,-0.0740764858436197,-0.228624867508942,93.9,3.9,67.5,-985.35156,19.04297,-120.11719,0.070346019100407,0.0249142260063686,0.1666723113143009,51.75,19.05,-17.4
-627.44141,8.30078,-761.71875,0.3161576673525128,-0.0225161436141284,-0.0054625314928918,-24.15,28.95,9.9,-608.39844,-33.20313,836.42578,0.0506278128101507,-0.0511608363637097,-0.2803185528932856,93.9,3.9,67.5,-986.32812,35.15625,-120.60547,0.0355727772153728,0.1721348428071927,0.1243047927879889,52.05,20.1,-16.65
-620.60547,16.60156,-768.55469,0.3838392668168253,-0.0568897051004559,0.014522186574144,-25.05,28.8,10.8,-622.07031,-36.62109,808.59375,0.0383705400063197,-0.0479632186411309,-0.2458116482521058,93.9,2.7,66.75,-989.25781,29.29688,-129.39453,0.0955267568835552,0.0415681577288985,0.114312433754471,50.85,20.7,-17.85
-630.85937,-2.92969,-774.90234,0.3845052844593863,-0.0722112524720134,0.0179861415405771,-24.45,30.15,10.95,-624.02344,-44.92188,798.82812,0.0867336135790826,-0.1047197551196597,-0.2354196088198811,93.45,1.05,66.9,-973.63281,32.71484,-128.90625,0.0341072242424731,0.069680001457846,0.1536156777130565,51.75,21.15,-18.0
-635.74219,-10.25391,-766.11328,0.3526631485201514,-0.0687472975055802,-0.0464976656682313,-25.05,29.85,11.4,-615.72266,-47.36328,804.19922,0.0947273960861418,-0.0442327518979182,-0.2578024092791572,93.3,0.9,67.05,-985.35156,36.13281,-140.13672,0.1073843492886795,0.0226493122360556,0.1141790905996186,51.75,21.15,-18.0
-640.13672,-9.27734,-779.78516,0.4283383559585979,-0.0952604196397009,0.0059953805135257,-23.85,28.65,12.6,-614.25781,-31.25,813.47656,0.1128468807815713,-0.0794058487145844,-0.2394165873398733,93.6,2.7,66.75,-982.42187,45.89844,-124.51172,0.0444992636746978,0.1081837100860929,0.18625734898263,51.0,20.85,-18.45
-635.25391,-16.60156,-772.46094,0.4022250887561092,-0.0951270764848485,0.0155880591483369,-24.15,28.95,10.65,-617.1875,-42.48047,806.15234,0.0755420388165193,-0.0391699008037331,-0.2314226302998889,93.3,0.15,67.5,-971.19141,49.80469,-155.76172,0.0538254305327295,0.1108484787880378,0.1492190187943576,51.0,20.85,-18.45
-638.18359,-35.15625,-775.87891,0.3801088000736126,-0.0399694361340717,-0.0462311538914518,-24.15,28.95,10.65,-623.53516,-41.01563,796.875,0.091529778363563,-0.0459648166475974,-0.2135696573812389,92.55,3.15,66.75,-1004.39453,57.12891,-145.99609,0.0684807857288007,-0.002264913770313,0.1401591891801802,51.0,20.85,-18.45
-627.92969,-24.90234,-758.78906,0.4479233936269271,-0.0790061683158777,0.0263797789792682,-24.15,27.9,10.65,-625.97656,-32.71484,809.08203,0.1249709849634751,-0.1163108357480045,-0.261000027001736,92.55,3.15,66.75,-985.83984,44.43359,-147.46094,0.0297105653237742,0.0714118916745999,0.1185757495183175,52.65,20.7,-17.55
-639.64844,-32.71484,-769.53125,0.4617795625585101,-0.1153783063286639,-0.0587549384720623,-23.85,28.2,9.6,-615.72266,-21.97266,794.43359,0.1385604675853534,-0.0776737839649052,-0.2502083071708046,92.55,1.95,66.3,-981.93359,67.38281,-166.50391,0.0251807377831481,0.0371714988101996,0.0985910314512816,51.75,20.85,-18.0
-633.30078,-39.55078,-763.67187,0.3785099039458606,-0.0627519169920545,-0.059154618870769,-24.3,27.75,11.85,-635.25391,-31.25,776.36719,0.0909969293429291,-0.080871401687484,-0.200779535556774,93.3,1.65,67.05,-978.51562,55.66406,-168.45703,0.0526263893366094,-0.0019984019935335,0.1111148160318922,51.9,19.95,-18.6
-630.85937,-56.15234,-775.87891,0.4520535407688464,-0.1099157748357721,0.0015987215948268,-24.3,27.75,11.85,-633.30078,-21.97266,772.94922,0.1373614263892333,-0.0459648166475974,-0.2427473736843793,92.1,0.15,67.05,-976.5625,65.42969,-185.54687,0.0414349891069713,0.0602204914449619,0.0975253334100139,52.05,20.85,-16.95
-629.88281,-57.61719,-775.87891,0.461246539004951,-0.1128468807815713,0.0463644970463041,-24.45,27.45,9.9,-643.55469,-18.55469,771.97266,0.1273690673557154,-0.0425006871482391,-0.2134364887593117,92.1,0.15,67.05,-988.76953,62.5,-170.89844,0.0488959225933967,-0.037970859607613,0.1044532433428802,52.05,20.85,-16.95
-650.39062,-53.71094,-784.17969,0.4003598553845028,-0.0688804661275074,-0.0210505906412288,-24.9,28.65,10.2,-654.29687,-10.25391,769.53125,0.1220398790176759,-0.0407687969314851,-0.2137030005360913,93.9,1.65,67.5,-984.375,72.75391,-178.71094,0.0303767574992605,-0.0218499514386422,0.0980581824306478,50.85,21.75,-16.8
-647.46094,-58.59375,-787.59766,0.3926324101212979,-0.0490290912153239,0.0254472495599277,-23.85,26.4,11.25,-638.18359,3.41797,781.73828,0.1541485267336904,0.0233155044115418,-0.2122374475631916,93.6,1.2,68.85,-977.53906,69.33594,-167.96875,0.0269126279999021,-0.0119907610270514,0.0447657754514773,50.85,21.75,-16.8
-634.27734,-61.52344,-771.97266,0.421010765627025,-0.1083170532409452,0.0262466103573411,-24.3,26.55,9.75,-651.36719,0.97656,779.29687,0.1445558480988791,-0.023981696587028,-0.1781302233207184,93.6,1.2,68.85,-989.74609,70.80078,-173.82812,-0.0130566336012443,-0.0175864611418704,0.0155880591483369,52.5,20.1,-17.4
-659.17969,-67.38281,-779.78516,0.369716760641388,-0.0992572236267679,0.0193185258915496,-24.3,26.55,9.75,-629.88281,-5.37109,773.4375,0.1849249646316576,-0.0836691644784309,-0.1762649899491121,93.0,-1.05,67.2,-986.32812,73.73047,-156.73828,-0.0250473946282958,0.006128723668378,0.0187856768709157,52.5,20.85,-17.4
-655.76172,-69.82422,-770.99609,0.3938316258503432,-0.0944608843093623,-0.027312482931534,-23.1,26.7,9.9,-621.58203,-0.48828,738.76953,0.1745329251994329,0.0162542513238231,-0.1632081818149425,91.8,1.65,67.5,-983.39844,70.3125,-164.55078,-0.0634181091675407,0.0039969785199922,0.0327748398915007,50.25,20.1,-16.2
-650.87891,-80.07813,-771.97266,0.3968959004180697,-0.1096492630589925,0.0166539317225298,-23.85,28.2,10.2,-655.27344,-36.13281,792.96875,0.0993905667816202,0.0691469779042869,-0.134430320443434,93.9,0.9,67.05,-1000.0,86.91406,-158.69141,-0.0377045223637587,-0.0226493122360556,-0.0063950609122324,52.35,21.0,-18.15
-649.90234,-70.80078,-755.85937,0.31122815941318,-0.0716784034513795,-0.0073277648644981,-21.75,24.9,9.15,-610.35156,54.19922,800.78125,0.0338407124656936,0.0263797789792682,-0.0440995832759911,93.9,0.9,67.05,-1011.23047,77.63672,-159.17969,-0.0578224090527217,-0.0410353087082646,0.0077274452632048,51.45,20.55,-17.4
-639.16016,-78.125,-766.11328,0.2619325564210766,-0.0189188454928429,-0.004529827540626,-21.75,24.9,9.15,-623.53516,-16.60156,764.64844,0.085934078248744,0.0479632186411309,-0.0623522365933478,95.1,1.2,68.85,-992.67578,51.75781,-154.29687,-0.0571562168772355,-0.0515605167624164,0.0249142260063686,52.05,20.55,-17.7
-639.16016,-74.21875,-752.92969,0.3037672259267546,-0.0694134896810664,0.0371714988101996,-21.75,24.9,9.15,-663.57422,1.46484,789.55078,0.0414349891069713,0.0387702204050264,-0.1040535629441735,92.55,0.45,67.8,-976.07422,43.94531,-156.73828,-0.1024548413493467,-0.0086599746825454,0.0094593354799588,52.05,20.55,-17.7
-645.99609,-80.07813,-752.44141,0.2494089463733912,-0.0242480338308824,0.0399694361340717,-24.0,25.05,10.05,-662.59766,-13.18359,781.25,0.0957932686603347,-0.0133231453780239,-0.0463644970463041,92.55,0.45,67.8,-995.60547,72.26563,-146.97266,-0.1212403436873373,-0.0542251109314362,-0.0245145456076619,50.85,21.45,-18.6
-643.55469,-78.125,-750.48828,0.2568698798598167,-0.0123904414257581,0.0267794593779749,-23.85,26.7,10.95,-626.95312,-41.99219,798.33984,-0.0049295079393327,0.0238483534321757,0.0171867807431637,92.7,0.75,66.9,-994.14062,53.22266,-137.20703,-0.1119141768293056,-0.0073277648644981,-0.0207840788644492,50.85,21.45,-18.6
-647.46094,-94.72656,-746.09375,0.2161010829283315,0.0062618922903052,0.0908637607210019,-23.4,26.1,10.65,-633.30078,56.64063,778.80859,0.0570230482553083,0.0067947413109391,-0.0118575924051242,91.8,0.9,67.8,-991.69922,75.19531,-151.85547,-0.1079173728422385,-0.0206509102425221,-0.0037304667432126,51.6,21.0,-16.5
-639.64844,-81.05469,-746.09375,0.1496186991930643,0.050228132411444,0.0467641774450108,-22.8,26.1,9.6,-658.69141,-15.625,770.50781,0.042900542079871,0.0333078634450597,0.0341072242424731,93.3,1.2,68.55,-988.28125,65.42969,-142.08984,-0.0712787230526728,-0.0281118437289474,-0.0177198042967228,50.7,21.15,-18.0
-637.69531,-83.00781,-750.0,0.0976585020319411,0.0357059458372999,0.0901975685455157,-22.8,26.1,9.6,-646.97266,16.60156,786.62109,-0.0010658725741929,0.1147121141531777,0.0652833425391471,93.3,1.2,68.55,-1006.83594,67.38281,-133.78906,-0.0993905667816202,-0.0253139064050753,-0.0470306892217904,51.75,21.15,-18.0
-632.8125,-74.70703,-750.48828,0.1207074946667034,0.0443659205198454,0.0511608363637097,-24.75,25.8,9.0,-629.39453,-3.41797,828.125,-0.0174532925199432,0.0933951862680945,0.0652833425391471,91.8,-0.15,68.1,-993.65234,50.29297,-126.46484,-0.1239051123892822,-0.0405022851547056,-0.0427671989250186,51.0,21.15,-16.95
-642.08984,-75.68359,-742.67578,0.0464976656682313,0.0728774446474996,0.0632847660126884,-24.3,25.5,10.05,-631.83594,11.23047,827.14844,-0.0301102457224809,0.055823832526263,0.0034639549664331,92.7,1.05,66.6,-983.39844,65.42969,-137.69531,-0.1048529237415869,-0.0338407124656936,-0.0225161436141284,51.0,21.6,-17.4
-633.78906,-67.38281,-742.1875,0.0399694361340717,0.0527595579585365,-0.0074609334864253,-23.7,24.75,9.75,-642.08984,-9.76562,790.52734,-0.0632847660126884,0.0365053066347134,0.0638177895662474,93.6,0.15,67.8,-986.32812,78.125,-124.02344,-0.1665389681594485,-0.0335742006889141,-0.0417013263508257,51.0,21.6,-17.7
-633.30078,-63.47656,-746.58203,-0.0210505906412288,0.1175098769441246,0.0226493122360556,-23.7,24.75,9.75,-609.86328,19.04297,781.25,0.0189188454928429,0.0478300500192038,0.0929953313364626,93.3,0.15,66.75,-995.11719,81.05469,-123.04688,-0.143356806902759,-0.040235773377926,-0.0708790426539661,51.0,21.6,-17.7
-648.92578,-58.10547,-744.14062,-0.0057288687367461,0.0405022851547056,0.0486294108166172,-24.0,25.5,9.75,-619.14062,7.32422,818.84766,-0.0530260697353161,0.0726111074036452,0.0944608843093623,92.55,0.9,67.05,-975.58594,83.00781,-121.09375,-0.1746660938213601,-0.0401026047559989,-0.1081837100860929,50.55,21.0,-17.55
-631.34766,-59.08203,-750.48828,-0.0776737839649052,0.114312433754471,-0.0154548905264097,-25.2,26.1,8.85,-613.76953,19.53125,823.73047,-0.1153783063286639,0.0939280352887284,0.1229724084370164,94.35,0.15,67.5,-994.14062,58.59375,-116.21094,-0.1945176432664688,-0.015055210127703,-0.0510274932088574,52.05,21.9,-18.0
-641.60156,-60.54688,-759.27734,-0.0722112524720134,0.0619525561946411,0.0383705400063197,-23.4,25.35,9.9,-628.41797,-9.76562,803.71094,-0.0943277156874351,0.0522267089379027,0.1380276185647195,94.35,0.15,67.5,-1001.95312,66.40625,-102.53906,-0.1345634890653612,-0.0171867807431637,-0.1342971518215068,52.05,21.9,-18.0
-634.27734,-55.17578,-739.74609,-0.067015232755901,0.0515605167624164,0.0161209081689708,-24.45,26.1,9.6,-604.98047,-8.30078,798.82812,-0.0463644970463041,0.006128723668378,0.1994471512058016,93.45,1.8,68.4,-988.28125,54.6875,-109.86328,-0.1516171011865978,-0.0295773967018471,-0.1119141768293056,50.7,21.15,-16.95
-649.41406,-66.40625,-754.88281,-0.1632081818149425,0.1063184767144865,-0.0716784034513795,-24.45,26.1,9.6,-612.30469,-20.50781,815.42969,-0.0438330714992115,0.0285115241276541,0.1584120170304621,92.55,0.45,68.1,-988.28125,40.03906,-120.11719,-0.1658729505168874,-0.0207840788644492,-0.087532974376496,52.35,21.75,-16.8
-646.48437,-48.33984,-740.72266,-0.1417580853079322,0.0470306892217904,0.0411684773301918,-24.45,26.1,10.95,-607.91016,-33.69141,818.35937,-0.0339738810876208,0.0274456515534612,0.1927855785167896,93.9,-0.15,66.3,-995.60547,42.96875,-126.46484,-0.1947841550432483,0.0233155044115418,-0.0758085505932989,51.75,21.6,-16.65
-644.04297,-62.01172,-748.04687,-0.1621424837736748,0.1099157748357721,-0.018385996472209,-23.4,24.9,9.15,-614.25781,-26.85547,810.54687,0.0114579120064175,0.0341072242424731,0.1689372250846139,93.9,-0.15,66.3,-986.32812,38.57422,-98.63281,-0.1726676918278266,0.0023980823922402,-0.0628850856139816,51.9,21.45,-17.1
-643.06641,-56.15234,-753.41797,-0.1602772504020684,0.0919296332951949,-0.0155880591483369,-24.75,26.25,10.05,-601.5625,-40.03906,802.24609,-0.0303767574992605,0.0628850856139816,0.1386936362072806,93.9,-0.15,66.3,-989.74609,28.80859,-125.0,-0.1189754299170242,-0.0207840788644492,-0.1197749652473628,51.9,21.45,-17.1
-646.97266,-68.84766,-747.55859,-0.1324319184499005,0.0583552580733556,-0.0023980823922402,-24.75,26.25,10.05,-605.46875,-24.90234,806.15234,-0.0342403928644003,0.0552909835056291,0.191853049097449,93.0,-0.3,66.6,-989.25781,23.4375,-105.95703,-0.0904640803222952,-0.0620857248165682,-0.0991240550048407,51.15,21.75,-18.15
-644.53125,-64.94141,-758.30078,-0.19132002554389,0.0718115720733066,-0.0587549384720623,-23.25,27.0,10.8,-617.1875,-34.17969,813.96484,-0.0369049870334201,0.0514271736075641,0.2077074454896403,93.45,0.75,68.4,-986.32812,20.50781,-108.39844,-0.1093829258151382,-0.052493046181757,-0.0983246942074273,51.15,21.75,-18.15
-654.29687,-64.94141,-761.23047,-0.1521501247401568,0.0274456515534612,0.0281118437289474,-23.1,24.9,10.95,-612.30469,-33.69141,811.52344,0.0113245688515652,0.0662158719584876,0.1632081818149425,93.45,0.75,68.4,-996.58203,30.76172,-93.75,-0.0595542992694757,-0.0054625314928918,-0.0802052095119978,52.05,20.55,-18.45
-648.4375,-44.92188,-753.90625,-0.196249708016148,0.0121241041819038,-0.0403691165327784,-23.85,26.1,10.95,-611.32812,-19.04297,809.08203,-0.0029311059457992,0.1035207139235396,0.1648070779426945,93.0,1.5,69.45,-979.98047,30.76172,-115.72266,-0.0642174699649541,-0.0051960197161123,-0.1117810082073784,51.75,20.1,-15.6
-645.50781,-42.48047,-754.88281,-0.2095726788612467,-0.023448673033469,-0.0828698036810175,-24.15,25.65,8.85,-631.34766,-28.80859,815.42969,0.0171867807431637,0.0496952833908101,0.171202138854927,94.2,1.5,66.6,-996.09375,14.64844,-97.65625,-0.0960597804371143,0.0,-0.0820704428836041,52.05,20.55,-16.65
-632.8125,-41.99219,-751.46484,-0.1891882803955041,-0.0508943245869302,0.0286446927495813,-24.15,25.65,8.85,-617.1875,-30.76172,815.91797,0.0065284040670847,0.1035207139235396,0.1598775700033617,93.9,3.45,66.3,-999.02344,32.71484,-94.72656,-0.0947273960861418,0.0281118437289474,-0.0478300500192038,52.35,20.7,-16.8
-625.0,-48.33984,-768.06641,-0.1817273469090787,-0.0510274932088574,-0.0231821612566894,-25.05,25.5,10.05,-613.76953,-26.85547,815.91797,0.0534257501340228,0.0243813769857347,0.1228392398150893,93.9,3.45,66.3,-996.58203,45.41016,-108.88672,-0.0750091897958855,-0.0197182062902563,-0.0828698036810175,50.25,21.15,-17.4
-647.46094,-61.52344,-776.85547,-0.2184991653205717,0.0231821612566894,0.0319754790940873,-24.15,26.4,10.65,-611.81641,-43.45703,817.38281,0.0479632186411309,0.0126569532025376,0.1694700741052478,92.1,1.2,67.5,-990.23437,45.41016,-124.51172,-0.0178529729186499,-0.0242480338308824,-0.0714118916745999,52.8,20.85,-16.95
-636.23047,-63.47656,-776.85547,-0.1987809590303153,-0.0767412545455646,0.0411684773301918,-24.45,24.9,10.2,-623.04687,-49.31641,816.89453,0.0331745202902074,0.0550244717288496,0.1077840296873862,92.55,2.4,68.1,-1006.83594,41.50391,-115.72266,-0.0635512777894679,0.0237151848102485,-0.052493046181757,52.8,20.85,-16.95
-645.01953,-65.91797,-781.73828,-0.1497518678149914,-0.1013889687751538,-0.0217166082837898,-24.45,24.9,10.2,-642.57812,-35.15625,815.91797,0.0462311538914518,0.037970859607613,0.1005896079777403,92.7,1.5,68.4,-1016.60156,36.13281,-108.88672,-0.0259800985805615,0.0684807857288007,-0.082603291904238,52.65,21.45,-14.7
-654.78516,-50.29297,-786.62109,-0.1814610096652244,-0.0512940049856369,0.0098591904115907,-23.4,26.7,10.2,-629.39453,-44.43359,810.54687,0.0618192130397887,-0.0074609334864253,0.0832694840797242,93.0,0.3,67.2,-1008.30078,52.24609,-113.28125,-0.1032542021467601,0.0450321126953316,-0.063018428768834,52.65,21.45,-14.7
-653.32031,-47.85156,-779.29687,-0.1886554313748702,-0.0584886012282079,0.0530260697353161,-25.8,28.05,10.8,-641.11328,-23.4375,804.6875,0.1140459219776914,0.0462311538914518,0.1060521394706322,92.85,1.2,67.05,-1006.83594,35.15625,-124.51172,-0.10205516095064,0.0063950609122324,-0.0779402957416847,51.15,22.95,-17.55
-662.10937,-28.32031,-773.92578,-0.1414915735311527,-0.0836691644784309,0.0968591412345277,-23.25,26.25,10.05,-654.29687,-10.74219,806.15234,0.1007227765996675,0.0062618922903052,0.1228392398150893,94.2,1.05,66.9,-1004.39453,50.29297,-110.35156,-0.0919296332951949,0.0374380105869791,-0.0884655037958365,52.35,22.2,-16.5
-653.32031,-29.29688,-775.87891,-0.1709356270781474,-0.0877993116203503,0.0881991665519822,-23.1,26.7,11.25,-645.50781,-16.11328,795.89844,0.0830031468358699,0.0738101485997654,0.1597442268485094,94.2,1.05,66.9,-1007.8125,36.62109,-119.14063,-0.0692803210591393,0.0025314255470925,-0.0644839817417337,52.5,21.15,-17.7
-650.39062,-37.59766,-770.50781,-0.17346705262524,-0.0846018684306967,0.0877993116203503,-23.1,26.7,11.25,-644.04297,-20.99609,802.73437,0.070346019100407,0.0214502710399355,0.1658729505168874,93.45,3.75,66.6,-1008.78906,45.89844,-123.04688,-0.0814042507081179,0.0021317451483858,-0.0243813769857347,51.75,20.85,-17.7
-626.95312,-38.08594,-771.48437,-0.1409587245105188,-0.058088746296576,0.1127137121596442,-24.15,26.7,10.65,-651.85547,-33.20313,795.41016,0.0349065850398865,0.0165205885676775,0.1542816953556175,93.3,2.4,67.5,-972.65625,12.69531,-140.13672,-0.0796723604913639,0.0267794593779749,-0.0482297304179105,51.75,20.85,-17.7
-645.50781,-35.15625,-762.69531,-0.1814610096652244,-0.0202512298438154,0.0746095093971788,-25.05,25.8,10.35,-642.57812,-17.57813,800.78125,0.0690138092823597,0.0671485759107534,0.1376279381660128,94.35,2.4,67.05,-1008.30078,17.08984,-127.92969,-0.0940612039106556,0.0382373713843925,-0.0063950609122324,51.6,21.0,-17.55
-654.29687,-41.01563,-757.8125,-0.1758653095504054,-0.0691469779042869,0.0567565364785288,-23.7,27.3,10.8,-638.18359,-27.34375,775.87891,0.0409019655534123,0.0209172474863764,0.1229724084370164,94.2,2.25,67.2,-1009.76562,17.57813,-120.60547,-0.1000565844241813,0.0422343499043847,-0.0058622118915985,51.6,21.0,-17.55
-652.34375,-29.78516,-754.39453,-0.1177763887209041,-0.1124472003828646,0.1228392398150893,-23.7,27.3,10.8,-635.25391,-30.76172,794.92187,0.0466310088230837,0.0500949637895168,0.1183094122744632,91.8,1.95,68.1,-999.51172,20.50781,-124.51172,-0.1133797298022052,0.0511608363637097,-0.0314426300734534,51.6,21.0,-17.55
-636.23047,-41.50391,-747.07031,-0.1328315988486072,-0.068614128883653,0.0157212277702641,-23.7,27.3,10.8,-655.27344,-33.20313,790.03906,0.0730107878023519,0.0586217698501351,0.1381607871866467,93.45,2.55,66.6,-1000.48828,21.97266,-132.8125,-0.1203078142679967,0.0572893854991626,-0.0221164632154217,52.05,20.85,-17.4
-639.64844,-15.625,-749.51172,-0.1802617939361791,-0.0075941021083525,0.0214502710399355,-25.05,27.0,10.35,-650.39062,-26.85547,799.80469,0.0996569040254746,0.0450321126953316,0.1605435876459228,93.45,2.55,66.6,-996.58203,17.57813,-124.02344,-0.1287014517066878,-0.0086599746825454,0.0426340303030914,52.05,20.55,-16.95
-640.13672,-20.01953,-750.48828,-0.1240382810112094,-0.0178529729186499,0.1264363634034496,-24.3,27.3,10.8,-634.76562,-17.57813,772.94922,0.0726111074036452,0.0403691165327784,0.1313660458757076,92.1,1.95,65.7,-999.51172,4.39453,-132.32422,-0.0788728251610253,-0.0479632186411309,0.0343737360192527,52.65,21.75,-17.1
-635.25391,-23.4375,-744.62891,-0.1750657742200668,0.0202512298438154,0.043566559722432,-23.4,27.45,11.25,-636.23047,-24.90234,792.96875,0.0382373713843925,0.0779402957416847,0.1192419416938038,93.0,3.3,67.2,-989.74609,16.60156,-150.87891,-0.0858009096268168,-0.0860674214035963,0.043566559722432,51.6,21.0,-16.5
-622.07031,-27.83203,-749.51172,-0.179062752740059,0.0401026047559989,0.0123904414257581,-24.0,27.75,10.35,-655.27344,-19.53125,791.50391,0.0434333911005048,0.0531592383572432,0.1560137601052967,92.1,2.4,66.3,-996.09375,8.30078,-138.18359,-0.0531592383572432,-0.0358392889921523,0.0218499514386422,51.75,21.6,-15.9
-630.37109,-10.25391,-756.83594,-0.1175098769441246,0.03064326927604,0.0767412545455646,-24.0,27.75,10.35,-640.13672,-9.76562,780.27344,-0.0038636353651398,0.0271791397766816,0.1570796326794896,92.1,2.4,66.3,-1007.8125,26.36719,-124.51172,-0.087532974376496,-0.0567565364785288,0.0546247913301429,51.15,21.75,-16.8
-635.25391,-13.18359,-764.64844,-0.1649402465646217,0.0634181091675407,0.041834669505678,-25.35,27.3,10.35,-643.55469,-9.76562,791.50391,0.0499617951675896,0.0177198042967228,0.1092495826602858,93.45,4.5,66.9,-1006.83594,13.18359,-118.16406,-0.0818039311068246,-0.0229158240128351,0.0019984019935335,51.15,21.75,-16.8
-640.625,-27.34375,-771.97266,-0.1532159973143498,0.0783399761403914,0.0666155523571943,-25.05,28.8,10.05,-661.62109,-23.4375,783.69141,0.0423675185263119,0.031309286918601,0.1197749652473628,92.55,3.45,66.3,-997.07031,4.88281,-128.41797,-0.045165455850184,-0.0579555776746489,0.0286446927495813,50.85,21.75,-17.55
-653.32031,-15.13672,-770.99609,-0.167871352510421,0.0237151848102485,0.0863337586474507,-25.05,27.75,9.3,-648.4375,-17.57813,782.71484,0.045165455850184,0.0700796818565527,0.0888651841945432,92.55,3.45,66.3,-1003.90625,28.32031,-132.8125,-0.050761155965003,-0.0520933657830503,0.0610198522423753,50.85,21.75,-17.55
-641.60156,-18.55469,-761.23047,-0.1689372250846139,0.0623522365933478,0.0169204434993094,-25.05,27.75,9.3,-655.27344,-28.32031,779.29687,0.0488959225933967,0.0619525561946411,0.1112481591867445,93.45,3.0,68.4,-984.375,34.17969,-119.62891,-0.0117244237831971,-0.0746095093971788,-0.0031976177225788,52.8,21.9,-16.2
-650.87891,-21.48438,-764.16016,-0.1441561677001724,0.0367718184114929,0.0301102457224809,-25.05,28.05,11.1,-644.04297,-4.39453,793.45703,0.0438330714992115,0.0634181091675407,0.1220398790176759,93.3,2.7,67.05,-1005.85937,22.46094,-127.44141,-0.0127901218244648,-0.1147121141531777,0.0638177895662474,51.75,21.9,-16.2
-632.32422,-4.39453,-763.18359,-0.1044532433428802,-0.0215834396618626,0.0415681577288985,-24.45,27.9,11.55,-650.87891,2.44141,782.71484,0.0131899767560967,0.0425006871482391,0.1000565844241813,91.05,3.45,67.05,-990.72266,26.85547,-118.16406,-0.0242480338308824,-0.0671485759107534,0.0354394340605204,51.0,21.9,-15.9
-632.8125,2.44141,-752.92969,-0.1424242774834185,0.0606201718436686,0.0532925815120956,-23.1,26.7,9.9,-646.97266,6.34766,782.22656,0.0195850376683291,0.0726111074036452,0.0928621627145355,91.05,3.45,67.05,-988.28125,41.99219,-114.74609,-0.0211837592631559,-0.0907304175661496,0.0378376909856858,52.35,21.45,-16.05
-638.18359,8.78906,-755.37109,-0.165073589719474,0.0603538345998143,0.0325085026476463,-23.1,26.7,9.9,-648.4375,18.06641,785.15625,0.0287778613715085,0.063018428768834,0.113246561180278,91.05,3.45,67.05,-1007.32422,32.71484,-103.51563,-0.0291777163031404,-0.0519601971611231,0.0297105653237742,52.35,21.45,-16.05
-617.1875,3.41797,-756.34766,-0.1509510835440367,0.0560903443030425,0.032375159492794,-24.3,27.75,10.05,-647.94922,23.92578,797.85156,0.040235773377926,0.0807380585326316,0.1075176924435318,93.3,3.15,66.3,-985.83984,36.62109,-108.39844,-0.0217166082837898,-0.022382800459276,0.0097258472567384,52.05,21.9,-16.65
-612.79297,9.76562,-758.78906,-0.1771975193684527,0.1016554805519333,-0.0319754790940873,-23.25,29.55,10.35,-644.53125,19.53125,787.59766,0.0595542992694757,0.0115910806283447,0.0945942274642146,92.85,2.7,66.75,-991.21094,48.33984,-101.5625,-0.0143890179522168,-0.0354394340605204,0.0390367321818059,52.05,21.9,-16.65
-630.85937,7.32422,-759.76562,-0.1867901980032639,0.0881991665519822,0.0229158240128351,-23.7,29.25,12.15,-635.25391,46.38672,796.38672,0.0603538345998143,0.0274456515534612,0.1528161423827179,93.9,3.45,65.7,-1023.92578,52.73438,-102.05078,-0.0460979852695246,-0.0794058487145844,0.0350397536618137,52.5,22.65,-15.6
-638.18359,17.57813,-757.8125,-0.1389601479840601,0.0562235129249697,0.0554241521275563,-24.45,28.65,10.95,-652.83203,14.16016,774.41406,0.059687642424328,0.0587549384720623,0.143356806902759,93.3,4.65,66.3,-1014.16016,49.80469,-89.35547,0.032908183046353,-0.0652833425391471,0.0514271736075641,50.7,20.1,-15.9
-630.85937,15.13672,-772.94922,-0.2047763395438411,0.0656830229378538,0.023981696587028,-24.45,28.65,10.95,-632.8125,27.34375,793.94531,0.08420218803199,0.0098591904115907,0.0956601000384076,92.55,4.2,66.75,-981.44531,28.80859,-98.63281,0.0023980823922402,-0.0627519169920545,0.0570230482553083,51.9,21.45,-15.45
-625.97656,14.64844,-758.30078,-0.2083736376651266,0.0722112524720134,-0.0026645941690197,-25.35,29.25,10.05,-620.11719,16.11328,808.10547,0.0283781809728018,0.0178529729186499,0.1306998537002213,93.6,4.2,67.05,-989.74609,43.94531,-98.63281,-0.0474303696204971,-0.0157212277702641,0.0181194846954295,51.9,21.45,-16.05
-628.90625,15.13672,-755.37109,-0.1674716721117143,0.0403691165327784,0.0579555776746489,-24.0,28.8,10.05,-626.46484,26.85547,803.22266,0.0554241521275563,0.0121241041819038,0.1454885520511449,93.6,4.2,67.05,-980.95703,26.85547,-94.72656,-0.0341072242424731,0.031309286918601,-0.0321086477160144,51.0,22.35,-16.95
-633.30078,29.29688,-757.8125,-0.2280918439553829,0.1177763887209041,-0.0042633157638465,-25.65,28.65,11.25,-618.16406,39.0625,802.73437,-0.0050628510941851,-0.0090596550812521,0.1237717692344298,93.0,3.3,66.15,-981.93359,52.73438,-93.75,-0.0538254305327295,0.0301102457224809,0.0042633157638465,52.35,22.95,-16.5
-640.625,27.83203,-750.48828,-0.2761884057513663,0.0487625794385443,-0.0335742006889141,-25.65,28.65,11.25,-626.46484,27.34375,802.24609,0.0294440535469947,0.0163874199457503,0.1641408857672083,91.8,3.15,66.3,-983.88672,41.50391,-72.75391,-0.0659495347146333,0.043566559722432,-0.032375159492794,52.35,22.95,-16.5
-625.0,31.25,-742.67578,-0.1763981585710393,-0.0013323843509724,0.0434333911005048,-25.65,29.4,10.2,-603.51562,26.85547,791.99219,0.0038636353651398,-0.4436600778630806,0.1280352595312016,91.35,3.9,65.25,-980.95703,36.13281,-88.37891,-0.0099923590335179,-0.0197182062902563,0.007860613885132,52.35,22.95,-16.5
-628.90625,28.80859,-754.88281,-0.2578024092791572,0.0266462907560478,-0.0162542513238231,-25.05,29.55,9.3,-608.39844,32.22656,847.65625,0.0271791397766816,-0.0018652333716063,0.1073843492886795,91.35,3.9,65.25,-982.91016,50.78125,-89.35547,-0.0383705400063197,-0.0071944217096458,-0.0031976177225788,50.7,20.85,-15.9
-628.90625,26.36719,-761.71875,-0.2462113286508125,0.0724777642487929,0.0341072242424731,-25.95,29.7,12.3,-618.65234,21.97266,800.78125,-0.0355727772153728,-0.031309286918601,0.1261700261595952,92.85,4.2,67.8,-983.88672,33.20313,-84.47266,-0.0359724576140795,0.0253139064050753,0.036238969390859,50.7,20.85,-15.9
-639.16016,31.25,-756.34766,-0.211437912232853,-0.0155880591483369,0.0075941021083525,-25.2,28.65,10.95,-626.95312,11.71875,797.36328,0.0357059458372999,-0.0282450123508746,0.1229724084370164,93.45,2.55,67.2,-993.16406,36.13281,-83.49609,-0.040235773377926,0.0142556747973644,0.015055210127703,52.5,22.65,-18.45
-632.32422,32.22656,-764.64844,-0.1906538333684037,-0.0142556747973644,0.0566231933236764,-25.2,28.65,10.95,-617.1875,52.73438,775.87891,0.0700796818565527,-0.061419532641082,0.1388269793621329,93.45,2.55,67.2,-1000.0,27.34375,-77.63672,-0.0294440535469947,-0.0199847180670358,-0.0030642745677264,51.9,21.75,-16.5
-628.90625,46.38672,-767.08984,-0.2338208872250543,0.0211837592631559,0.0013323843509724,-23.25,30.3,11.85,-617.1875,-38.57422,813.96484,0.0699463387017003,-0.0642174699649541,0.1897213039490632,92.55,3.9,67.5,-997.07031,37.59766,-76.66016,-0.0378376909856858,0.0440995832759911,-0.0361056262360067,51.6,22.5,-14.4
-632.32422,40.03906,-746.09375,-0.2202312300702509,-0.0233155044115418,0.0551578148837019,-23.1,30.15,12.0,-611.32812,45.89844,826.17187,-0.1072511806667523,-0.0572893854991626,0.1572128013014168,92.1,4.2,67.5,-987.79297,40.52734,-65.91797,-0.014522186574144,0.0093261668580317,0.0197182062902563,51.9,22.95,-16.5
-637.69531,48.33984,-750.0,-0.2295573969282826,-0.0197182062902563,0.0142556747973644,-24.15,29.4,9.9,-633.30078,16.11328,816.40625,0.039569755735365,-0.071944915228159,0.1108484787880378,92.1,5.7,66.75,-991.69922,32.22656,-101.5625,-0.0042633157638465,-0.0546247913301429,0.0067947413109391,52.95,21.75,-15.0
-637.69531,49.31641,-757.8125,-0.2446126070559856,0.0082602942838387,-0.0217166082837898,-24.15,29.4,9.9,-616.21094,60.54688,820.80078,-0.0506278128101507,-0.0483628990398376,0.1714686506317065,92.1,5.7,66.75,-987.30469,44.92188,-84.47266,-0.0436999028772844,-0.0191853572696224,0.007860613885132,52.35,22.2,-14.4
-637.69531,37.10938,-758.30078,-0.2131699769825322,-0.0354394340605204,-0.0141225061754373,-23.7,30.3,11.1,-612.79297,13.67187,801.75781,0.0658161915597809,-0.0803383781339249,0.0600873228230347,93.6,4.95,67.05,-996.58203,47.85156,-86.42578,0.0081271256619115,-0.0222496318373489,-0.0750091897958855,52.35,22.2,-14.4
-644.04297,53.22266,-759.76562,-0.1798621135374724,-0.0794058487145844,-0.002264913770313,-25.05,28.5,9.75,-621.58203,9.27734,797.36328,-0.0011990411961201,-0.1501515482136981,0.1032542021467601,92.4,5.25,67.2,-979.98047,37.10938,-99.12109,0.0142556747973644,-0.0158545709251164,-0.0114579120064175,51.9,21.0,-16.5
-646.97266,48.82813,-760.25391,-0.2360858009953673,-0.0528927265804637,0.0081271256619115,-26.25,31.95,11.25,-594.72656,45.41016,813.96484,-0.0265129476011954,-0.165073589719474,0.1240382810112094,91.95,4.8,67.95,-992.1875,34.66797,-98.63281,-0.034640073263107,0.0357059458372999,0.0370383301882724,53.4,21.75,-15.0
-640.13672,31.73828,-760.25391,-0.215301722130918,-0.0727442760255724,0.041834669505678,-25.35,29.85,10.35,-608.39844,47.85156,800.78125,-0.0135896571548034,-0.0446324322966249,0.1488193383956508,94.2,4.8,67.65,-997.07031,29.29688,-112.30469,-0.0716784034513795,0.0480965617959833,0.0053291883380394,51.45,23.1,-15.15
-649.41406,38.08594,-737.79297,-0.2009127041787012,-0.0911300979648563,0.041301645952119,-25.35,29.85,10.35,-612.30469,14.16016,787.10937,0.041301645952119,-0.1164441789028568,0.0810045703094112,91.2,5.25,67.2,-980.95703,38.57422,-101.07422,-0.020117886688963,0.0293108849250675,-0.0154548905264097,52.5,21.15,-15.15
-642.57812,55.17578,-746.58203,-0.2026447689283804,-0.06634921511334,0.0107917198309313,-25.35,29.85,10.35,-612.79297,42.48047,789.55078,0.0170536121212365,-0.032375159492794,0.1133797298022052,92.55,4.2,66.75,-984.375,23.92578,-119.62891,-0.0101255276554451,0.0149218669728507,0.0185191650941362,51.9,21.75,-15.45
-643.06641,51.75781,-757.32422,-0.181327666510372,-0.0916631215184153,0.0202512298438154,-25.2,30.9,9.9,-622.55859,20.50781,779.29687,0.037970859607613,-0.045165455850184,0.0807380585326316,92.55,4.2,66.75,-984.375,38.08594,-120.60547,0.039569755735365,0.051827028539196,0.0101255276554451,52.8,22.35,-15.6
-644.53125,45.89844,-748.04687,-0.1261700261595952,-0.091529778363563,0.0007993607974134,-24.0,31.8,11.1,-611.32812,36.13281,803.71094,0.0270459711547545,-0.0189188454928429,0.1089830708835063,92.1,4.95,67.05,-985.35156,27.34375,-109.375,0.0361056262360067,0.0275788201753884,0.0291777163031404,52.8,22.35,-15.6
-646.48437,59.57031,-758.78906,-0.2047763395438411,-0.0608866836204481,-0.0086599746825454,-25.05,30.6,9.3,-623.53516,33.69141,802.24609,0.014522186574144,-0.054091942309509,0.0843353566539172,91.8,5.7,67.8,-975.58594,29.78516,-121.09375,0.0430337107017981,0.0508943245869302,-0.0065284040670847,51.6,22.2,-15.0
-642.08984,57.61719,-764.64844,-0.1966493884148547,-0.080871401687484,0.0169204434993094,-25.05,30.6,9.3,-640.13672,40.52734,784.17969,0.0163874199457503,-0.0355727772153728,0.0928621627145355,92.7,4.05,67.65,-986.81641,32.22656,-130.37109,0.0090596550812521,0.0869999508229369,0.0109248884528585,51.6,22.2,-15.0
-664.55078,74.21875,-752.92969,-0.1462879128485583,-0.0917962901403425,0.0165205885676775,-24.45,30.15,10.95,-630.85937,45.89844,786.13281,0.040235773377926,0.0057288687367461,0.1136462415789847,92.7,6.3,66.9,-998.04687,29.78516,-137.69531,0.0175864611418704,0.05475795995207,-0.0486294108166172,53.4,22.5,-16.05
-653.32031,71.28906,-762.20703,-0.2006461924019217,-0.0266462907560478,-0.005595700114819,-23.85,30.9,12.0,-635.74219,44.92188,791.99219,0.0146553551960711,0.0195850376683291,0.0919296332951949,92.1,5.4,66.3,-997.07031,36.13281,-133.78906,0.0069280844657914,0.0672817445326806,-0.0033307863445059,52.5,23.1,-16.2
-657.71484,69.82422,-773.92578,-0.1770643507465255,-0.1237717692344298,0.0295773967018471,-24.3,29.85,10.8,-656.73828,34.17969,788.57422,-0.0242480338308824,0.0247810573844414,0.0439662401211387,92.85,5.7,67.5,-997.55859,25.39063,-136.23047,0.0480965617959833,0.0467641774450108,-0.0218499514386422,52.65,22.2,-14.4
-652.34375,64.94141,-783.69141,-0.1580123366317554,-0.0478300500192038,-0.0097258472567384,-24.75,30.6,11.1,-655.76172,48.82813,789.55078,-0.0139893375535101,0.0227824808579827,0.0916631215184153,92.85,5.7,67.5,-1005.37109,38.08594,-133.30078,0.0242480338308824,0.03064326927604,-0.0572893854991626,53.4,22.5,-17.1
-634.27734,70.3125,-770.50781,-0.1754656291516987,-0.0483628990398376,-0.0483628990398376,-24.75,30.6,11.1,-653.80859,33.69141,793.94531,-0.0221164632154217,0.039569755735365,0.1212403436873373,91.05,5.4,66.0,-1004.88281,34.17969,-127.92969,0.0231821612566894,0.0103920394322246,-0.0353062654385932,53.4,22.5,-17.1
-640.625,80.07813,-754.39453,-0.1233720888357231,-0.0706125308771865,0.0341072242424731,-23.85,31.2,11.25,-656.25,42.48047,794.43359,-0.0009327039522657,0.0066615726890119,0.103787051167394,92.7,6.3,66.9,-1016.11328,41.50391,-117.67578,0.0414349891069713,-0.0202512298438154,-0.0093261668580317,51.9,21.75,-16.8
-646.48437,82.51953,-755.37109,-0.1564134405040034,-0.0622190679714206,0.016787100344457,-24.15,32.7,11.55,-649.90234,41.50391,785.64453,-0.0374380105869791,0.0255804181818548,0.0855343978500373,91.05,4.95,67.8,-997.07031,46.38672,-120.60547,-0.0230489926347623,-0.0027979373238721,-0.051827028539196,50.55,22.2,-16.8
-649.41406,90.33203,-764.16016,-0.19132002554389,0.0021317451483858,0.0070612530877186,-24.15,32.7,9.9,-649.41406,44.92188,782.71484,0.0081271256619115,0.0245145456076619,-0.0033307863445059,91.05,4.95,67.8,-1019.53125,34.17969,-116.69922,-0.0207840788644492,0.0293108849250675,-0.011191400229638,50.55,22.2,-16.8
-622.55859,73.24219,-762.20703,-0.1460214010717788,-0.0343737360192527,0.0173201238980161,-24.15,32.7,9.9,-660.15625,18.55469,793.45703,-0.0101255276554451,0.0170536121212365,0.0530260697353161,91.05,4.95,67.8,-1003.90625,49.31641,-115.72266,-0.0317089673173077,-0.0017320647496791,-0.0678147680862396,51.9,21.75,-15.75
-630.85937,62.5,-767.08984,-0.1482863148420918,-0.0187856768709157,0.0287778613715085,-23.7,31.8,11.1,-650.87891,25.87891,792.96875,-0.0355727772153728,0.04849624219469,0.0077274452632048,91.95,3.75,66.9,-1014.16016,38.08594,-122.55859,-0.0301102457224809,-0.0041301471419193,0.0337075438437664,52.65,21.45,-16.5
-644.53125,73.73047,-784.17969,-0.1330979360924615,0.0237151848102485,-0.0506278128101507,-23.85,32.7,12.3,-658.20312,27.83203,790.52734,-0.0141225061754373,0.0291777163031404,0.0241148652089552,92.1,7.35,67.5,-1008.30078,43.45703,-117.1875,0.0170536121212365,-0.0014655529728996,-0.0175864611418704,51.9,23.25,-15.45
-652.34375,67.38281,-783.69141,-0.094860564708069,0.0161209081689708,0.0294440535469947,-23.4,30.15,10.95,-647.46094,37.59766,796.875,-0.006128723668378,0.0390367321818059,0.1149786259299572,92.1,7.35,67.5,-1001.46484,47.36328,-119.14063,0.0146553551960711,-0.0359724576140795,0.0130566336012443,52.5,21.15,-16.2
-645.99609,79.10156,-786.62109,-0.1171101965454179,-0.0162542513238231,0.0218499514386422,-23.4,30.45,11.25,-633.78906,36.62109,791.99219,0.0095926786348112,-0.0123904414257581,0.0590214502488418,93.3,4.65,67.05,-998.04687,49.31641,-139.64844,-0.0242480338308824,-0.0129234649793172,-0.0226493122360556,50.7,21.6,-15.9
-676.26953,82.03125,-770.50781,-0.1441561677001724,0.0583552580733556,-0.0302434143444081,-23.4,30.45,11.25,-627.92969,47.36328,796.38672,-0.0407687969314851,0.0131899767560967,-0.0023980823922402,90.15,5.25,67.65,-990.72266,21.97266,-133.78906,-0.0627519169920545,-0.0031976177225788,-0.0347734164179594,50.55,21.45,-15.75
-643.55469,94.72656,-773.4375,-0.0852680606061829,0.0245145456076619,0.0221164632154217,-24.15,32.4,9.9,-631.34766,16.11328,776.85547,-0.018385996472209,-0.0190520141147701,0.0503614755662963,92.1,5.7,66.75,-975.58594,20.99609,-157.71484,-0.0660827033365605,-0.0119907610270514,-0.005595700114819,50.55,21.45,-15.75
-645.99609,84.96094,-750.0,-0.0722112524720134,-0.0157212277702641,-0.0302434143444081,-24.75,31.35,10.8,-610.83984,10.74219,759.76562,-0.0318423104721601,0.0203843984657425,0.0142556747973644,92.1,5.7,66.75,-971.67969,7.8125,-166.50391,0.0023980823922402,0.0303767574992605,0.0386370517830992,52.8,22.35,-15.15
-652.34375,83.98438,-741.21094,-0.1125803690047918,0.0722112524720134,-0.0251807377831481,-25.35,32.55,11.4,-632.8125,18.06641,763.18359,-0.029044373148288,0.049162259837251,-0.0065284040670847,94.5,5.55,67.2,-997.07031,-17.08984,-103.02734,0.0496952833908101,-0.061419532641082,0.0311761182966739,52.8,22.35,-15.15
-624.51172,71.28906,-763.18359,-0.0847350370526239,0.0349065850398865,0.0027979373238721,-25.35,32.55,11.4,-642.57812,4.88281,768.06641,-0.0399694361340717,0.077540615342978,0.0254472495599277,92.1,5.4,64.95,-989.74609,-24.90234,-83.00781,0.0439662401211387,-0.0490290912153239,0.006128723668378,51.75,22.35,-15.6
-645.99609,74.70703,-750.97656,-0.0840688448771376,0.0582220894514284,0.0169204434993094,-24.9,30.15,11.25,-606.44531,-0.97656,775.87891,-0.0117244237831971,0.0911300979648563,-0.0213169278850831,92.4,5.55,67.2,-984.375,-21.48438,-91.30859,0.1064518198693389,0.0163874199457503,0.1001899275790336,52.35,22.2,-16.05
-649.90234,83.00781,-761.23047,-0.0909969293429291,0.057422728654015,-0.0856677410048896,-23.7,31.05,11.1,-624.51172,-21.48438,805.17578,-0.0247810573844414,0.1148452827751048,-0.0568897051004559,92.55,5.7,67.05,-983.39844,-28.32031,-119.62891,0.1446891912537315,0.0317089673173077,0.0951270764848485,52.05,22.35,-15.9
-641.60156,84.96094,-750.0,-0.0868667822010097,0.086467101802303,-0.0715452348294523,-23.7,32.85,11.4,-636.71875,-45.89844,810.54687,0.0210505906412288,0.1129800494034985,-0.0355727772153728,91.95,4.8,67.95,-1008.30078,-22.94922,-111.32813,0.1251041535854023,0.0472970264656447,0.0358392889921523,51.75,21.15,-15.15
-659.66797,65.91797,-758.78906,-0.0154548905264097,0.0049295079393327,-0.0058622118915985,-24.3,32.55,12.45,-611.81641,-37.10938,810.54687,0.0254472495599277,0.0985910314512816,-0.0980581824306478,91.8,5.4,67.05,-1007.8125,12.69531,-77.63672,0.1432236382808319,0.0969923098564548,0.0472970264656447,52.05,24.15,-16.2
-645.99609,68.35938,-746.58203,-0.0532925815120956,0.052493046181757,-0.0447657754514773,-24.45,31.65,12.0,-625.48828,5.85937,798.82812,0.0885988469506889,0.0828698036810175,-0.1107151356331855,91.8,5.4,67.05,-1005.37109,41.99219,-96.19141,0.1782633919426456,0.011191400229638,0.0623522365933478,52.05,21.15,-16.95
-637.20703,58.59375,-742.1875,-0.0227824808579827,0.0514271736075641,-0.0199847180670358,-24.15,32.4,9.9,-623.04687,-7.8125,822.75391,0.1025880099712739,0.0571562168772355,-0.1360290420382608,92.7,6.75,67.2,-1008.78906,78.61328,-82.51953,0.1553475679298105,0.0245145456076619,0.0062618922903052,52.05,21.15,-16.95
-648.4375,68.84766,-745.60547,0.0241148652089552,0.0443659205198454,0.0035972981212855,-25.05,31.8,11.4,-633.78906,38.57422,821.77734,0.1113813278086717,0.041301645952119,-0.1638743739904287,93.45,5.25,67.2,-1006.34766,86.42578,-88.86719,0.193584939314203,-0.0710122112758932,0.0343737360192527,51.6,21.75,-15.0
-631.34766,64.94141,-747.07031,-0.0029311059457992,0.0860674214035963,-0.0390367321818059,-25.05,30.6,11.1,-627.92969,53.22266,822.75391,0.1448223598756587,0.0476967068643514,-0.1297671497479555,91.95,5.55,66.15,-998.53516,79.10156,-75.19531,0.1461547442266311,-0.0389035635598788,-0.0194516945134768,51.6,21.75,-15.0
-628.41797,78.125,-749.51172,0.0289112045263608,0.0848683802074762,-0.007860613885132,-25.05,30.6,11.1,-623.04687,52.24609,796.38672,0.1181760691196108,0.0163874199457503,-0.1533491659362769,92.7,6.0,66.15,-981.93359,81.05469,-95.70313,0.1029876903699806,-0.0090596550812521,0.0562235129249697,51.9,22.5,-16.05
-633.30078,71.28906,-761.23047,0.1115144964305989,0.0411684773301918,0.0246477142295891,-25.8,31.05,10.35,-604.00391,72.26563,801.75781,0.1345634890653612,-0.0358392889921523,-0.1013889687751538,92.4,7.05,68.7,-973.63281,77.14844,-97.16797,0.0450321126953316,0.0002665117767795,0.0595542992694757,51.9,22.2,-16.05
-643.06641,57.61719,-754.88281,0.0389035635598788,0.0836691644784309,-0.0146553551960711,-25.05,31.8,11.85,-602.53906,69.82422,815.42969,0.0550244717288496,-0.0337075438437664,-0.0772741035661985,92.1,4.65,66.75,-972.16797,76.17188,-87.89063,0.060753514998521,0.0139893375535101,-0.0094593354799588,51.0,21.6,-16.05
-626.46484,73.24219,-752.44141,0.0508943245869302,0.0546247913301429,-0.004529827540626,-24.3,31.8,12.15,-606.44531,69.82422,808.10547,0.0162542513238231,-0.034640073263107,-0.1231057515918688,92.1,4.65,66.75,-980.46875,70.3125,-97.16797,0.0415681577288985,0.0508943245869302,0.0361056262360067,51.9,21.6,-16.95
-618.16406,75.19531,-748.04687,0.0916631215184153,0.0087933178373978,-0.0017320647496791,-24.3,31.8,12.15,-612.30469,65.42969,807.61719,0.0315757986953806,-0.0037304667432126,-0.0912634411197086,91.65,4.8,66.6,-995.60547,69.82422,-106.44531,-0.0082602942838387,0.0538254305327295,-0.0051960197161123,51.9,22.5,-15.75
-617.67578,77.14844,-738.76953,0.0567565364785288,0.0726111074036452,-0.0066615726890119,-24.3,31.8,12.15,-618.65234,38.08594,812.98828,0.032375159492794,-0.0123904414257581,-0.0370383301882724,93.45,5.25,66.6,-968.75,57.61719,-113.28125,0.0302434143444081,0.0330413516682802,-0.0049295079393327,51.9,22.5,-15.75
-637.20703,81.05469,-757.32422,0.1119141768293056,0.0105252080541518,-0.0298437339457014,-24.75,32.55,11.85,-623.04687,38.08594,815.42969,0.0121241041819038,-0.0103920394322246,-0.0403691165327784,91.65,4.05,66.9,-999.02344,39.55078,-97.65625,-0.0175864611418704,0.0241148652089552,-0.0046631706954784,51.75,21.15,-15.9
-630.37109,63.47656,-757.8125,0.1305666850782942,0.0294440535469947,-0.0011990411961201,-26.1,31.8,10.8,-612.30469,41.50391,814.45312,0.0314426300734534,0.0215834396618626,-0.0920628019171221,91.65,4.05,66.9,-996.09375,55.17578,-81.05469,-0.0397029243572922,0.0459648166475974,-0.0149218669728507,51.75,21.15,-15.9
-641.11328,56.64063,-768.55469,0.1404257009569597,0.0660827033365605,0.005595700114819,-25.95,31.65,10.95,-617.67578,37.59766,808.10547,-0.0035972981212855,0.0259800985805615,-0.068614128883653,91.8,5.4,66.75,-1010.74219,37.59766,-98.14453,-0.0459648166475974,0.1009892883764471,0.0860674214035963,51.45,21.15,-16.2
-635.74219,65.91797,-773.92578,0.1236386006125027,0.0301102457224809,-0.0419678381276052,-25.8,31.05,10.35,-616.69922,31.73828,810.54687,0.0071944217096458,-0.0293108849250675,-0.0406354537766327,91.8,3.15,66.75,-997.07031,34.17969,-104.98047,-0.0126569532025376,0.0923293136939016,0.0199847180670358,52.05,21.9,-15.9
-640.625,54.6875,-772.94922,0.1708024584562202,-0.0526263893366094,0.0251807377831481,-25.8,31.05,10.35,-626.46484,20.99609,803.22266,-0.0249142260063686,-0.0118575924051242,-0.0490290912153239,91.8,3.15,66.75,-1008.30078,42.96875,-98.14453,-0.0286446927495813,0.0370383301882724,0.0287778613715085,51.0,21.6,-15.9
-642.08984,55.66406,-765.13672,0.0981913510525749,-0.0410353087082646,-0.0612863640191548,-24.75,29.55,10.35,-612.30469,22.46094,796.38672,-0.0214502710399355,-0.0443659205198454,-0.0341072242424731,92.85,4.65,67.05,-1007.32422,51.75781,-111.81641,-0.0682144484849463,0.0307764378979672,0.007860613885132,50.85,21.75,-16.05
-641.60156,59.57031,-774.90234,0.0672817445326806,0.0075941021083525,-0.061419532641082,-24.0,31.8,11.4,-634.76562,41.50391,783.69141,-0.0727442760255724,-0.0151883787496302,-0.0285115241276541,92.4,5.25,67.2,-999.02344,34.66797,-112.30469,0.0265129476011954,0.0333078634450597,0.0277121633302407,51.6,22.2,-16.5
-631.34766,71.28906,-756.34766,0.1291011321053945,-0.050761155965003,-0.0417013263508257,-24.3,32.1,10.8,-627.92969,37.59766,782.22656,-0.0658161915597809,0.0085268060606182,-0.078606487917171,91.8,5.4,66.3,-998.04687,27.34375,-107.42188,0.0031976177225788,-0.022382800459276,0.068614128883653,52.8,22.35,-16.2
-626.95312,66.40625,-756.83594,0.086467101802303,-0.0251807377831481,-0.0121241041819038,-24.3,32.1,10.8,-638.67187,36.62109,810.05859,-0.0588882816269146,0.2796523607177994,-0.0935283548900217,91.8,5.4,66.3,-979.49219,21.97266,-102.05078,0.0085268060606182,0.0086599746825454,0.0170536121212365,52.8,22.35,-16.2
-633.78906,62.5,-756.34766,0.1099157748357721,-0.0266462907560478,0.0227824808579827,-25.35,31.35,10.05,-626.95312,26.36719,769.53125,-0.0302434143444081,0.0138559943986577,-0.0568897051004559,92.7,4.8,66.15,-1019.53125,24.90234,-97.16797,0.050761155965003,-0.0181194846954295,0.031309286918601,50.25,21.6,-16.2
-628.41797,68.35938,-770.50781,0.1280352595312016,-0.0690138092823597,-0.0394364125805126,-24.45,31.65,10.95,-635.74219,41.99219,804.6875,-0.0452986244721112,0.0989908863829135,-0.0682144484849463,92.4,3.3,67.2,-978.51562,24.90234,-101.07422,0.0359724576140795,0.0600873228230347,0.0075941021083525,50.25,21.6,-16.2
-628.90625,54.6875,-764.64844,0.1052526041402936,0.013456313999951,-0.0556906639043358,-25.05,32.1,10.05,-655.76172,30.76172,785.64453,-0.1127137121596442,0.0887320155726161,-0.0884655037958365,92.7,5.55,66.6,-1029.29688,36.13281,-108.88672,0.0393032439585855,0.0219831200605693,-0.0387702204050264,52.05,22.65,-17.4
