IMU1_AccX,IMU1_AccY,IMU1_AccZ,IMU1_GyrX,IMU1_GyrY,IMU1_GyrZ,IMU1_MagX,IMU1_MagY,IMU1_MagZ,IMU2_AccX,IMU2_AccY,IMU2_AccZ,IMU2_GyrX,IMU2_GyrY,IMU2_GyrZ,IMU2_MagX,IMU2_MagY,IMU2_MagZ,IMU3_AccX,IMU3_AccY,IMU3_AccZ,IMU3_GyrX,IMU3_GyrY,IMU3_GyrZ,IMU3_MagX,IMU3_MagY,IMU3_MagZ
-572.26562,-44.43359,-806.15234,-0.0075941021083525,0.0414349891069713,0.0692803210591393,-28.65,28.8,9.3,-614.74609,0.48828,794.43359,0.0996569040254746,-0.0335742006889141,0.0237151848102485,92.7,1.5,65.55,-1011.23047,46.875,-138.67187,-0.1481531462201646,0.0041301471419193,0.0632847660126884,50.7,20.55,-17.4
-568.84766,-41.01563,-803.71094,0.0007993607974134,0.0186523337160634,0.0700796818565527,-27.75,29.7,10.95,-649.41406,10.74219,799.31641,0.0759418937481512,-0.0179861415405771,0.0456983048708179,93.75,2.25,65.55,-983.88672,54.19922,-123.04688,-0.2178331476780106,-0.0019984019935335,0.0414349891069713,51.75,22.35,-18.0
-563.47656,-46.38672,-811.03516,0.0398360929792193,-0.0102588708102974,0.0575558972759422,-27.15,27.3,9.3,-609.86328,39.55078,798.82812,0.1027213531261262,-0.0667488955120467,0.077007591789419,93.75,2.25,65.55,-973.14453,51.26953,-128.41797,-0.1569464640575625,0.0157212277702641,0.0330413516682802,50.7,21.6,-16.95
-581.54297,-28.80859,-809.57031,-0.0199847180670358,0.0419678381276052,0.0157212277702641,-27.9,28.8,10.35,-647.94922,1.95312,767.08984,0.1064518198693389,-0.0029311059457992,0.1119141768293056,94.35,2.4,66.3,-995.60547,41.01563,-129.39453,-0.1545482071323971,0.0174532925199432,0.0838025076332833,50.7,20.55,-17.7
-582.03125,-36.62109,-807.12891,0.020117886688963,-0.0472970264656447,0.0923293136939016,-27.9,28.8,10.35,-607.91016,-25.39063,800.78125,0.0102588708102974,-0.2098391906380262,0.0559571756811154,93.45,1.5,65.85,-979.49219,52.73438,-128.90625,-0.1245711300318432,0.0365053066347134,-0.0109248884528585,50.7,20.55,-17.7
-583.00781,-20.99609,-803.22266,-0.0007993607974134,-0.0171867807431637,0.0788728251610253,-26.4,27.3,10.35,-646.48437,46.38672,794.92187,0.1751991173749191,-0.1160443239712249,0.0876661429984231,93.45,1.5,65.85,-969.23828,46.875,-122.55859,-0.0674150876875329,0.0087933178373978,0.0546247913301429,50.7,21.6,-16.65
-582.51953,-40.03906,-802.24609,-0.0480965617959833,-0.0131899767560967,0.0570230482553083,-28.2,28.05,10.35,-665.52734,34.17969,745.11719,0.1228392398150893,-0.0371714988101996,0.1263031947815224,93.75,1.8,66.15,-995.11719,45.41016,-119.62891,-0.0979250138087206,0.036238969390859,0.0800720408900706,50.7,21.6,-16.65
-586.91406,-20.50781,-797.36328,-0.0243813769857347,-0.0916631215184153,0.0872664625997164,-27.3,28.2,9.15,-631.34766,28.32031,756.34766,0.0820704428836041,-0.0303767574992605,0.0339738810876208,93.45,2.55,65.55,-993.65234,55.17578,-103.51563,-0.0514271736075641,0.040235773377926,0.0711455544307456,51.45,22.35,-17.7
-591.79687,-14.64844,-795.89844,-0.0690138092823597,-0.0937948666668012,0.118842261295097,-27.3,28.2,9.15,-583.49609,39.0625,802.73437,0.0783399761403914,-0.1354961930176269,0.0570230482553083,93.9,1.65,65.7,-992.67578,58.59375,-118.65234,-0.0576890658978693,0.0885988469506889,0.0740764858436197,51.45,21.15,-17.7
-594.72656,-14.16016,-796.875,-0.1205743260447762,-0.0070612530877186,0.0932618431132422,-28.05,28.2,9.9,-645.50781,53.71094,798.33984,0.0612863640191548,-0.0153215473715574,0.1099157748357721,93.9,1.65,65.7,-977.05078,64.94141,-134.76562,-0.0170536121212365,0.0314426300734534,0.0652833425391471,51.9,21.75,-16.5
-583.00781,-2.44141,-809.08203,-0.0570230482553083,-0.0879326547752027,0.1155114749505911,-27.75,29.4,9.6,-619.62891,53.71094,793.45703,0.0071944217096458,-0.0989908863829135,0.1398928519363259,94.2,1.5,65.55,-994.62891,70.80078,-125.97656,-0.078606487917171,0.0640843013430269,0.0371714988101996,50.25,20.55,-16.95
-577.63672,3.41797,-794.92187,-0.0852680606061829,-0.1209740064434829,0.148952507017578,-26.85,28.8,9.75,-623.04687,60.54688,783.20312,0.0357059458372999,-0.0281118437289474,0.1216401986189692,93.6,1.95,66.0,-996.09375,80.07813,-121.09375,-0.0530260697353161,0.0338407124656936,0.049162259837251,50.85,21.0,-18.6
-595.21484,-1.95312,-795.89844,-0.1843921156110237,-0.0464976656682313,0.0928621627145355,-27.15,27.3,10.35,-657.71484,68.35938,780.27344,0.0303767574992605,0.0568897051004559,0.148952507017578,93.75,1.8,66.6,-981.44531,83.00781,-128.41797,-0.0229158240128351,0.0127901218244648,0.0235820161883213,52.65,21.45,-16.5
-583.98437,5.85937,-803.71094,-0.1180429004976836,-0.0564900247017492,0.0794058487145844,-27.15,27.3,10.35,-653.32031,86.42578,787.59766,0.0219831200605693,0.0692803210591393,0.1673385034897871,92.85,3.15,65.7,-996.09375,68.35938,-123.04688,-0.0250473946282958,0.0831363154577971,0.0246477142295891,52.65,21.45,-16.5
-590.33203,18.55469,-791.99219,-0.1334976164911682,-0.0679479367081668,0.0893982077481023,-26.85,29.25,9.3,-624.02344,60.54688,802.24609,0.0305099261211876,0.0207840788644492,0.17346705262524,93.75,2.55,66.6,-1000.48828,105.95703,-114.74609,-0.0472970264656447,0.0222496318373489,0.0294440535469947,50.7,21.6,-17.7
-586.42578,36.13281,-796.875,-0.2022450885296737,0.0009327039522657,0.1095160944370653,-27.3,28.2,10.65,-642.08984,65.42969,816.40625,-0.0123904414257581,0.0103920394322246,0.1753322859968463,93.0,3.0,67.95,-999.02344,84.96094,-108.88672,-0.0550244717288496,0.0542251109314362,0.0187856768709157,50.7,21.6,-17.7
-577.14844,27.83203,-791.50391,-0.1554809110846628,-0.0575558972759422,0.0943277156874351,-26.25,29.7,10.65,-637.20703,47.36328,819.33594,0.0385038831611721,-0.0050628510941851,0.1694700741052478,93.0,3.0,67.95,-970.21484,93.26172,-123.04688,-0.0706125308771865,0.085934078248744,0.0054625314928918,51.9,22.5,-17.85
-586.91406,34.17969,-791.01562,-0.1890551117735769,-0.0398360929792193,0.0932618431132422,-26.25,29.7,10.65,-621.09375,68.84766,820.3125,0.0267794593779749,0.0195850376683291,0.2306232695024755,94.2,3.0,66.9,-988.76953,63.96484,-125.97656,-0.0622190679714206,0.0831363154577971,0.0479632186411309,52.95,21.75,-17.85
-589.35547,41.50391,-794.43359,-0.22702597138119,0.0033307863445059,0.1081837100860929,-27.15,28.5,10.35,-655.76172,56.64063,696.77734,-0.0065284040670847,-0.1200413024912172,0.2215636144212233,93.45,3.3,67.65,-1005.37109,85.9375,-116.69922,-0.0893982077481023,0.068081105330094,0.032375159492794,50.1,21.75,-17.85
-604.00391,48.82813,-790.03906,-0.2716585782107402,-0.0727442760255724,0.068081105330094,-26.4,28.8,9.75,-613.28125,65.91797,804.6875,-0.0293108849250675,-0.0620857248165682,0.1998468316045083,93.9,3.9,64.95,-995.11719,78.125,-112.79297,-0.0606201718436686,0.1047197551196597,-0.0286446927495813,50.1,22.5,-17.55
-574.70703,53.71094,-799.31641,-0.2282251871102353,-0.036238969390859,0.0615528757959344,-28.2,30.6,9.0,-628.90625,68.84766,792.96875,-0.0247810573844414,-0.0981913510525749,0.1830597312600512,93.9,3.9,64.95,-1004.39453,80.07813,-108.88672,-0.0945942274642146,0.0679479367081668,0.0075941021083525,51.0,23.4,-18.75
-577.14844,44.43359,-816.89453,-0.2668622388933346,0.0101255276554451,0.0107917198309313,-28.35,29.7,11.25,-637.20703,71.28906,793.45703,-0.0159877395470436,-0.1468207618691921,0.1930520902935692,93.9,3.9,64.95,-994.14062,75.19531,-124.02344,-0.1418912539298594,0.0327748398915007,0.0086599746825454,52.8,22.35,-16.65
-583.49609,47.36328,-803.71094,-0.2218299516650776,-0.0166539317225298,0.0608866836204481,-28.05,29.4,10.65,-625.48828,44.92188,808.59375,0.0185191650941362,-0.0688804661275074,0.1978484296109748,92.55,3.45,66.0,-993.16406,87.89063,-120.60547,-0.0911300979648563,0.0209172474863764,-0.0095926786348112,50.85,22.2,-16.05
-594.23828,44.92188,-805.66406,-0.2404824599140662,-0.0225161436141284,0.0198513749121835,-27.3,29.4,10.65,-630.37109,69.82422,808.10547,0.0138559943986577,-0.0658161915597809,0.1462879128485583,93.6,4.2,67.05,-984.375,78.61328,-108.39844,-0.1805283057129587,0.0939280352887284,0.0193185258915496,50.85,22.2,-16.05
-609.375,41.99219,-804.19922,-0.2801852097384332,-0.0448989440734045,-0.0190520141147701,-28.2,31.35,10.05,-642.08984,62.5,803.22266,-0.0275788201753884,-0.0672817445326806,0.2015788963541875,93.6,4.2,67.05,-997.07031,75.19531,-119.14063,-0.1564134405040034,0.0916631215184153,-0.0017320647496791,50.85,21.75,-17.85
-595.70312,54.6875,-802.24609,-0.2026447689283804,-0.0434333911005048,0.0319754790940873,-27.0,29.7,10.95,-637.69531,75.68359,800.29297,-0.0206509102425221,-0.1117810082073784,0.1926524098948624,93.45,3.3,67.95,-992.67578,75.68359,-122.07031,-0.1646737347878422,0.023981696587028,0.0071944217096458,51.6,22.2,-17.1
-605.46875,55.66406,-799.31641,-0.1794624331387657,-0.0567565364785288,0.0327748398915007,-27.0,29.7,10.95,-625.97656,43.45703,816.40625,-0.0427671989250186,-0.0349065850398865,0.1994471512058016,92.4,3.75,66.9,-997.55859,62.5,-140.13672,-0.1358958734163337,0.0141225061754373,-0.0021317451483858,51.6,21.75,-16.5
-586.91406,79.10156,-790.03906,-0.212503784807046,-0.0494287716140306,0.0207840788644492,-26.1,29.55,10.8,-623.04687,68.84766,800.78125,0.0014655529728996,-0.0378376909856858,0.1841256038342442,93.6,4.65,66.75,-970.70312,60.54688,-148.4375,-0.0983246942074273,0.0051960197161123,0.0237151848102485,51.75,24.6,-16.95
-589.84375,74.70703,-785.64453,-0.2065084042935202,-0.1099157748357721,0.064750318985588,-26.4,29.85,10.8,-617.67578,51.26953,793.94531,-0.0403691165327784,-0.0279785005740951,0.1717349878755608,93.6,4.65,66.75,-986.32812,43.45703,-144.04297,-0.1228392398150893,0.0066615726890119,-0.0299770771005538,51.0,22.65,-16.2
-589.35547,74.70703,-786.13281,-0.2135696573812389,-0.0666155523571943,0.0087933178373978,-27.9,30.6,10.35,-623.04687,46.875,782.71484,-0.0747426780191059,-0.0131899767560967,0.1793292645168386,93.6,3.45,66.3,-979.49219,48.82813,-139.16016,-0.0993905667816202,0.0571562168772355,-0.0369049870334201,50.25,21.15,-18.45
-571.77734,62.98828,-794.43359,-0.2311562930560345,-0.0182526533173567,0.0289112045263608,-27.9,30.6,10.35,-623.53516,36.62109,786.62109,-0.0616860444178615,0.0121241041819038,0.1787964154962047,93.6,4.2,67.5,-971.67969,38.57422,-150.39062,-0.1305666850782942,0.0210505906412288,-0.0293108849250675,50.25,21.15,-18.45
-593.75,54.6875,-793.45703,-0.1834594116587579,-0.0538254305327295,0.0211837592631559,-27.6,30.3,10.05,-632.8125,17.57813,776.36719,-0.0723445956268657,0.0081271256619115,0.1672051603349347,93.6,4.2,67.5,-978.02734,24.90234,-141.11328,-0.0790061683158777,0.063684446411395,-0.0098591904115907,50.7,22.35,-16.65
-586.42578,70.3125,-781.25,-0.1192419416938038,-0.0506278128101507,0.0149218669728507,-27.15,31.05,10.35,-646.48437,11.71875,783.20312,-0.014522186574144,0.0519601971611231,0.1504180599904777,92.85,4.2,65.7,-986.81641,37.10938,-154.29687,-0.093128674491315,0.0682144484849463,0.0091929982361045,50.7,22.35,-16.65
-585.44922,74.21875,-791.50391,-0.2086401494419061,-0.03064326927604,0.0021317451483858,-26.25,29.7,10.95,-634.27734,16.60156,777.83203,-0.055823832526263,0.051827028539196,0.1709356270781474,92.55,3.9,66.3,-980.46875,28.32031,-156.73828,-0.0319754790940873,0.0480965617959833,0.0298437339457014,50.25,21.15,-16.65
-589.84375,79.10156,-796.38672,-0.1204409828899239,-0.0606201718436686,0.0559571756811154,-29.25,30.3,9.75,-641.60156,14.16016,787.59766,-0.022382800459276,0.0952604196397009,0.1257703457608885,91.95,4.5,66.6,-994.14062,20.01953,-155.27344,-0.0114579120064175,0.0279785005740951,0.0375711792089063,49.8,23.7,-16.8
-589.84375,72.75391,-799.80469,-0.0623522365933478,-0.0799386977352182,-0.0017320647496791,-29.25,30.3,9.75,-636.71875,26.36719,788.08594,-0.0137228257767306,0.0307764378979672,0.0844685252758443,91.95,4.5,66.6,-986.32812,25.87891,-153.80859,0.0154548905264097,0.0423675185263119,0.06634921511334,50.85,22.5,-16.05
-591.79687,73.73047,-805.66406,-0.1564134405040034,-0.0194516945134768,-0.0281118437289474,-29.25,30.3,9.75,-645.99609,1.95312,795.41016,0.0169204434993094,0.0282450123508746,0.0843353566539172,91.95,5.25,65.55,-987.30469,29.78516,-174.31641,0.0552909835056291,0.0411684773301918,0.0548913031069224,51.45,23.85,-17.4
-597.65625,92.28516,-796.875,-0.1293674693492489,0.0149218669728507,-0.0021317451483858,-27.15,30.3,11.4,-650.87891,15.13672,780.76172,0.0113245688515652,0.0464976656682313,0.0869999508229369,93.9,3.9,67.05,-1000.48828,33.69141,-165.52734,0.0676814249313873,0.0662158719584876,0.0707458740320389,51.15,22.2,-18.6
-588.37891,87.89063,-809.57031,-0.0427671989250186,-0.04849624219469,-0.0059953805135257,-27.9,30.6,9.75,-662.59766,15.13672,763.18359,0.0612863640191548,0.0562235129249697,0.0098591904115907,93.45,5.25,67.2,-997.07031,62.5,-168.45703,0.0520933657830503,0.0098591904115907,0.0009327039522657,50.85,23.25,-18.15
-604.49219,88.37891,-806.15234,-0.1148452827751048,-0.0146553551960711,-0.0269126279999021,-26.85,31.05,11.1,-632.8125,22.94922,770.01953,0.036238969390859,0.0305099261211876,-0.0091929982361045,94.5,4.05,66.9,-989.74609,57.12891,-159.66797,0.0590214502488418,0.0149218669728507,0.0118575924051242,50.85,23.25,-18.15
-600.09766,87.89063,-808.10547,-0.0881991665519822,-0.0053291883380394,-0.0125237845806105,-26.85,31.05,11.1,-641.11328,8.78906,773.4375,0.0560903443030425,0.0578224090527217,-0.0266462907560478,92.55,5.4,66.3,-986.81641,66.40625,-161.62109,0.1329647674705344,0.027312482931534,0.0238483534321757,51.0,22.35,-17.4
-601.07422,70.3125,-813.47656,-0.0198513749121835,-0.0510274932088574,0.0185191650941362,-27.75,31.65,10.2,-648.92578,21.97266,770.01953,0.0730107878023519,0.1346968322202135,-0.0114579120064175,93.0,4.8,66.9,-993.16406,56.64063,-152.83203,0.091529778363563,0.0238483534321757,0.0238483534321757,51.0,22.35,-17.4
-602.53906,57.12891,-812.98828,-0.0746095093971788,0.0166539317225298,-0.0594211306475485,-27.3,30.45,10.2,-671.38672,16.11328,784.17969,0.0895313763700295,0.1312327027208552,-0.0322419908708668,93.0,4.8,66.9,-994.62891,57.61719,-147.46094,0.1207074946667034,0.0470306892217904,0.0656830229378538,49.65,21.6,-17.7
-598.63281,67.87109,-815.42969,-0.0115910806283447,-0.0165205885676775,-0.0623522365933478,-28.35,30.45,11.55,-642.08984,25.87891,788.57422,0.1303001733015146,0.0448989440734045,-0.0893982077481023,93.3,6.6,65.7,-1003.41797,63.47656,-160.15625,0.1083170532409452,0.0355727772153728,0.0855343978500373,51.75,22.65,-16.2
-589.84375,68.35938,-812.5,0.0819372742616769,-0.0455651362488907,0.0246477142295891,-27.9,31.05,12.45,-640.625,30.27344,783.69141,0.0683476171068735,0.0422343499043847,-0.0611531953972277,93.6,4.65,65.25,-981.44531,69.33594,-143.06641,0.1012558001532266,0.0333078634450597,0.0246477142295891,51.75,22.65,-16.2
-603.51562,65.91797,-809.08203,-0.0187856768709157,0.0238483534321757,-0.002264913770313,-27.9,31.05,12.45,-652.83203,34.17969,790.52734,0.068614128883653,0.0720780838500862,-0.0929953313364626,93.45,4.8,66.15,-989.25781,75.68359,-146.97266,0.0767412545455646,0.0422343499043847,0.049162259837251,51.0,21.6,-17.4
-587.89062,62.5,-811.03516,0.0520933657830503,0.0390367321818059,0.0125237845806105,-27.15,31.05,10.8,-656.25,30.27344,783.69141,0.078606487917171,0.0611531953972277,-0.0450321126953316,93.45,4.8,66.15,-999.02344,70.3125,-139.16016,0.0889985273493956,0.0397029243572922,0.059154618870769,50.25,22.35,-17.4
-589.84375,50.29297,-816.40625,0.0652833425391471,0.0091929982361045,0.0198513749121835,-26.1,29.85,11.1,-651.85547,44.92188,778.80859,0.0939280352887284,0.0723445956268657,-0.0627519169920545,93.45,4.8,65.55,-1002.44141,71.28906,-133.30078,0.0740764858436197,0.0483628990398376,0.0679479367081668,50.85,23.7,-17.55
-599.12109,39.55078,-801.26953,0.0610198522423753,0.0426340303030914,-0.0218499514386422,-27.9,32.55,10.05,-644.53125,55.66406,787.10937,0.0941945470655079,0.071944915228159,-0.0639509581881746,93.0,5.25,67.2,-975.58594,74.70703,-133.30078,0.1244379614099161,-0.0210505906412288,0.0536922619108023,51.6,22.5,-17.1
-598.14453,54.19922,-800.78125,0.0592879620256213,0.0570230482553083,0.0039969785199922,-27.9,32.55,10.05,-657.71484,57.12891,776.85547,0.1112481591867445,0.0731439564242791,-0.1220398790176759,93.0,5.25,67.2,-1004.88281,75.19531,-135.74219,0.1413584049092255,0.0057288687367461,0.0788728251610253,51.6,22.5,-17.1
-587.40234,54.6875,-801.26953,0.1163108357480045,-0.0073277648644981,0.0258469299586344,-27.75,31.2,10.2,-644.53125,57.61719,769.53125,0.1191087730718766,0.0791393369378048,-0.0338407124656936,92.85,5.4,66.3,-978.51562,69.33594,-142.08984,0.1141790905996186,0.002264913770313,0.0759418937481512,51.45,22.35,-17.7
-599.12109,42.96875,-810.54687,0.064750318985588,0.0219831200605693,0.0215834396618626,-28.05,30.9,9.9,-639.64844,64.94141,782.22656,0.0973919902551615,0.0668820641339739,-0.0520933657830503,92.4,4.8,66.9,-1004.88281,71.28906,-136.23047,0.0755420388165193,-0.0050628510941851,0.0907304175661496,49.05,21.75,-17.55
-582.03125,59.08203,-799.31641,0.0401026047559989,0.0321086477160144,0.0394364125805126,-28.05,30.45,10.65,-648.92578,73.24219,787.59766,0.0884655037958365,0.079272505559732,-0.0422343499043847,92.4,3.0,64.35,-995.11719,66.89453,-132.32422,0.0820704428836041,-0.0138559943986577,0.0664823837352672,50.25,21.15,-17.7
-590.82031,53.22266,-791.50391,0.132165406673121,-0.0001331686219271,0.0343737360192527,-27.0,30.45,10.2,-626.95312,41.99219,794.92187,0.0651499993842947,0.1021883295725672,-0.0555574952824086,92.4,3.0,64.35,-992.1875,74.21875,-121.09375,0.0820704428836041,-0.034640073263107,0.0700796818565527,49.8,21.75,-17.1
-585.44922,57.61719,-778.32031,0.0610198522423753,0.0448989440734045,0.0122572728038309,-27.0,30.45,10.2,-629.39453,43.94531,785.64453,0.0487625794385443,0.0679479367081668,-0.0819372742616769,93.45,3.3,66.15,-990.23437,91.79688,-125.97656,0.0087933178373978,0.0142556747973644,0.0643506385868813,51.15,22.2,-17.85
-576.66016,45.41016,-798.33984,0.0851347174513306,0.0075941021083525,0.0877993116203503,-27.9,31.8,9.0,-633.78906,46.38672,797.36328,0.0455651362488907,0.1380276185647195,-0.0844685252758443,94.35,3.9,66.15,-982.91016,81.05469,-118.16406,0.1341638086666545,0.0017320647496791,0.085934078248744,52.05,22.35,-18.0
-576.66016,42.48047,-782.22656,0.0771409349442713,-0.0195850376683291,0.0466310088230837,-26.7,31.2,8.85,-626.95312,55.17578,806.15234,0.0748760211739583,0.1077840296873862,-0.0391699008037331,92.7,3.0,65.7,-979.00391,83.98438,-112.30469,0.0903307371674429,-0.0572893854991626,0.0570230482553083,52.05,22.35,-18.0
-578.61328,62.01172,-780.27344,0.0751423584178126,0.0359724576140795,0.0401026047559989,-28.05,30.15,10.95,-624.51172,62.5,802.24609,0.0294440535469947,0.0746095093971788,-0.0949939078629213,92.7,3.0,66.15,-983.39844,96.67969,-120.60547,0.0550244717288496,-0.0643506385868813,0.0546247913301429,49.2,24.15,-16.2
-589.84375,50.78125,-790.52734,0.063018428768834,0.0728774446474996,0.0446324322966249,-28.05,30.15,10.95,-634.27734,68.35938,802.73437,0.0450321126953316,0.0530260697353161,-0.0318423104721601,93.9,4.65,64.95,-991.21094,88.37891,-121.58203,0.0879326547752027,-0.0126569532025376,0.0266462907560478,49.2,24.15,-16.2
-605.46875,52.73438,-796.875,0.098724374606134,-0.0170536121212365,0.0286446927495813,-26.85,29.85,11.4,-630.85937,79.10156,803.22266,0.0474303696204971,0.0345069046411798,-0.060753514998521,93.9,4.65,66.3,-985.83984,95.21484,-118.65234,0.0169204434993094,0.0053291883380394,0.0173201238980161,50.7,23.1,-17.7
-600.58594,55.66406,-791.50391,0.0867336135790826,-0.0117244237831971,-0.0187856768709157,-28.8,30.15,10.2,-626.46484,93.26172,799.31641,0.0146553551960711,0.0333078634450597,-0.0583552580733556,92.85,4.95,66.75,-978.02734,131.34766,-120.60547,0.0318423104721601,0.0011990411961201,0.0277121633302407,50.85,22.95,-16.8
-596.19141,44.43359,-791.99219,0.0679479367081668,-0.0035972981212855,0.0393032439585855,-26.85,29.85,10.05,-624.02344,87.40234,790.52734,0.0539585991546566,0.0217166082837898,-0.06634921511334,92.85,4.95,66.75,-972.16797,112.30469,-134.27734,0.0039969785199922,0.0490290912153239,-0.0081271256619115,50.85,23.25,-16.5
-587.40234,62.5,-787.59766,0.0928621627145355,-0.0249142260063686,0.1017886491738605,-27.9,31.05,10.8,-634.27734,84.47266,783.69141,0.0480965617959833,0.0714118916745999,-0.0355727772153728,93.45,4.5,65.55,-973.14453,109.375,-132.8125,0.0287778613715085,0.0233155044115418,0.0559571756811154,51.6,22.2,-17.55
-598.63281,54.19922,-787.59766,0.0862005900255235,0.0515605167624164,-0.020117886688963,-27.9,31.05,10.8,-636.23047,84.96094,792.96875,0.0294440535469947,0.0375711792089063,-0.0194516945134768,92.7,3.3,65.55,-983.88672,102.53906,-115.72266,-0.0077274452632048,0.041301645952119,-0.004529827540626,49.35,22.95,-18.15
-594.23828,45.89844,-791.01562,0.0335742006889141,-0.0077274452632048,-0.0754088701945922,-28.65,29.55,10.35,-628.41797,88.86719,791.50391,0.0058622118915985,0.0334410320669869,-0.0520933657830503,92.55,3.45,64.65,-993.16406,97.65625,-118.16406,-0.0333078634450597,0.0302434143444081,0.0165205885676775,50.85,23.25,-16.5
-581.54297,49.31641,-789.55078,0.0892648645932499,-0.0771409349442713,-0.004529827540626,-27.75,30.45,12.0,-647.94922,86.91406,776.85547,-0.0102588708102974,0.0137228257767306,0.0014655529728996,93.3,3.45,66.3,-982.91016,91.79688,-126.95313,-0.0245145456076619,0.027312482931534,0.0067947413109391,50.85,23.25,-16.5
-582.51953,63.96484,-787.10937,0.0965926294577481,-0.0498284520127373,0.0286446927495813,-28.35,29.7,10.95,-649.41406,81.54297,792.96875,-0.0588882816269146,0.0037304667432126,-0.0173201238980161,94.35,2.7,65.7,-1003.90625,67.87109,-104.49219,-0.0189188454928429,0.0349065850398865,0.0187856768709157,51.45,22.65,-18.0
-587.40234,62.98828,-806.15234,-0.0025314255470925,0.0492956029921034,-0.0347734164179594,-28.35,29.7,10.95,-659.17969,60.05859,776.85547,-0.0582220894514284,0.027312482931534,0.0014655529728996,92.7,4.05,65.55,-1008.78906,33.69141,-131.83594,-0.0034639549664331,0.027312482931534,0.0419678381276052,51.45,22.65,-18.0
-601.07422,59.08203,-800.29297,0.0698131700797731,-0.0079939570399844,-0.0600873228230347,-26.25,29.4,11.25,-677.24609,72.75391,758.30078,-0.0500949637895168,0.152283293362084,-0.0334410320669869,92.7,4.05,65.55,-1022.94922,18.55469,-154.78516,0.0353062654385932,-0.0039969785199922,-0.0215834396618626,51.45,22.65,-18.0
-579.10156,51.75781,-821.77734,-0.0005328490206338,-0.0189188454928429,-0.0648836621404404,-28.35,30.45,10.2,-699.21875,61.52344,742.67578,-0.0534257501340228,0.0611531953972277,-0.0381042027624654,95.25,2.25,65.85,-1019.04297,1.46484,-128.90625,0.0937948666668012,-0.063684446411395,0.0195850376683291,50.55,21.75,-16.8
-589.84375,58.10547,-839.35547,-0.0085268060606182,0.0053291883380394,-0.0925956509377559,-25.8,29.85,10.05,-685.54687,105.95703,733.88672,-0.0444992636746978,0.0806048899107045,-0.0310429496747467,92.7,4.05,65.55,-1051.75781,0.48828,-116.21094,0.1304333419234418,-0.1476202971995308,0.0759418937481512,49.8,21.75,-17.85
-598.63281,73.24219,-856.93359,0.0029311059457992,-0.0179861415405771,-0.1184425808963904,-29.25,29.85,10.8,-720.21484,106.44531,745.11719,-0.0554241521275563,0.0375711792089063,0.0338407124656936,92.85,4.65,65.7,-1040.52734,-23.4375,-84.96094,0.1818606900639311,-0.0755420388165193,0.0587549384720623,50.7,21.15,-18.75
-607.91016,61.52344,-865.72266,-0.025713586803782,-0.0149218669728507,0.0203843984657425,-29.25,29.85,10.8,-718.75,144.04297,738.76953,-0.0800720408900706,0.0929953313364626,-0.0470306892217904,92.85,4.65,65.7,-1047.36328,-16.60156,-108.88672,0.2296907400831349,-0.1219065358628235,0.0175864611418704,50.55,23.7,-18.15
-621.09375,62.98828,-862.79297,-0.0830031468358699,0.0351730968166661,-0.0611531953972277,-29.25,29.85,10.8,-709.96094,133.30078,774.90234,-0.1334976164911682,0.1761316467942597,-0.0588882816269146,92.85,4.65,66.0,-1056.64063,-28.80859,-105.46875,0.2819172744881125,-0.0635512777894679,0.0381042027624654,50.55,23.7,-18.15
-616.21094,104.00391,-833.98437,-0.0374380105869791,-0.0460979852695246,0.0129234649793172,-26.7,28.95,11.25,-696.77734,144.04297,803.22266,-0.1264363634034496,0.1901209843477699,-0.0011990411961201,93.0,5.55,65.1,-1059.57031,-23.4375,-81.05469,0.2360858009953673,-0.0390367321818059,0.0051960197161123,49.95,23.4,-16.95
-618.65234,111.81641,-812.5,-0.0783399761403914,-0.0436999028772844,-0.0077274452632048,-27.6,30.3,10.8,-619.14062,99.12109,822.75391,-0.2711255546571811,0.210771894590292,0.032375159492794,93.0,5.55,65.1,-1081.54297,9.76562,-142.08984,0.3041669063254614,-0.0891316959713228,0.0275788201753884,49.95,23.4,-16.95
-592.77344,114.25781,-788.08594,-0.1682710329091277,0.0123904414257581,-0.0117244237831971,-27.15,30.3,11.4,-666.50391,17.08984,838.86719,-0.3863706923639179,0.1977150864561224,0.0370383301882724,93.75,4.05,64.05,-1078.125,-7.32422,-142.08984,0.3278820911357099,-0.1469541050240445,0.0278453319521679,50.7,22.65,-16.65
-565.91797,121.58203,-758.78906,-0.1573461444562691,-0.032908183046353,-0.0479632186411309,-27.15,30.3,11.4,-601.07422,78.61328,835.44922,-0.4684409607145969,0.0391699008037331,0.0907304175661496,93.9,3.15,64.65,-1062.01172,39.0625,-121.09375,0.2574027288804505,-0.0195850376683291,-0.0187856768709157,50.7,21.9,-17.4
-551.75781,110.83984,-757.8125,-0.1950504922871027,-0.0259800985805615,-0.0903307371674429,-28.2,29.85,11.1,-686.52344,-124.51172,856.93359,-0.3248178165679835,-0.0546247913301429,-0.067015232755901,93.75,3.3,64.35,-1032.71484,105.95703,-89.84375,0.3370750893718144,-0.0094593354799588,-0.0099923590335179,50.25,23.1,-16.95
-560.05859,105.46875,-741.69922,-0.2476768816237121,0.0494287716140306,-0.1472204422678988,-26.25,29.4,10.2,-587.89062,-8.78906,868.16406,-0.6083338126509228,-0.0678147680862396,0.0174532925199432,93.75,3.3,64.35,-978.02734,87.40234,-129.39453,0.1341638086666545,0.205842212118034,-0.037970859607613,50.85,21.75,-17.85
-533.69141,93.26172,-756.34766,-0.1794624331387657,0.0161209081689708,-0.1213736868421896,-26.7,29.7,10.2,-608.39844,-44.92188,842.28516,-0.2735238115823465,-0.2033109611038666,-0.0620857248165682,92.55,3.45,64.2,-991.69922,148.4375,-129.39453,0.3039003945486819,0.1084502218628724,-0.064750318985588,50.7,22.65,-17.4
-549.80469,101.07422,-764.64844,-0.2199647182934713,0.0018652333716063,-0.1418912539298594,-26.1,29.85,10.35,-612.79297,-18.55469,836.42578,-0.3514641073240313,-0.3462679130749938,-0.0177198042967228,91.65,3.0,65.55,-950.19531,174.80469,-153.32031,0.1401591891801802,-0.0375711792089063,-0.0535589187559499,50.55,22.2,-16.05
-559.08203,85.44922,-777.83203,-0.2599341544275431,0.087532974376496,-0.1791960958949114,-26.1,29.85,10.35,-601.07422,-38.08594,810.05859,-0.2242282085902431,-0.5249311599492713,-0.0698131700797731,95.1,1.65,64.2,-921.875,151.36719,-144.04297,0.1718683310304132,0.0504946441882235,-0.0923293136939016,50.55,22.2,-16.05
-565.42969,72.75391,-783.20312,-0.2227626556173434,0.0563568560798221,-0.1127137121596442,-28.8,30.9,10.2,-662.10937,-66.40625,826.17187,-0.3734472273846007,-0.6444394388869294,-0.0309096065198943,93.3,4.65,65.25,-893.06641,159.17969,-144.04297,0.1838590920574646,0.1361623851931132,-0.0335742006889141,51.15,22.2,-18.15
-564.45312,48.82813,-786.13281,-0.1851914764084371,0.04849624219469,-0.1213736868421896,-28.05,30.9,10.2,-706.54297,-122.55859,757.8125,-0.0622190679714206,-0.4485895858024133,-0.2057090434961068,92.7,2.25,65.55,-844.23828,154.29687,-79.10156,0.1661392877607418,0.3194884536970188,-0.0139893375535101,51.15,22.2,-18.15
-585.44922,36.13281,-795.89844,-0.1842587724561713,0.0848683802074762,-0.1673385034897871,-27.0,31.65,10.95,-629.88281,-4.88281,668.94531,-0.2608666838468836,-0.2613997074004427,-0.1079173728422385,92.55,2.4,66.3,-903.32031,161.62109,-166.50391,0.0939280352887284,0.2404824599140662,-0.0173201238980161,51.15,20.25,-16.8
-580.56641,25.87891,-806.15234,-0.0514271736075641,0.0129234649793172,-0.1630750131930153,-27.0,31.65,10.95,-681.64062,-64.45313,674.80469,-0.1169770279234907,-0.143356806902759,-0.2042434905232072,92.55,2.4,66.3,-889.16016,164.0625,-187.98828,0.0876661429984231,0.1513507639427435,-0.058088746296576,50.25,20.85,-15.15
-584.96094,46.38672,-800.78125,-0.0294440535469947,0.0058622118915985,-0.1950504922871027,-26.7,31.2,10.2,-519.53125,20.01953,649.90234,0.0063950609122324,-0.0378376909856858,-0.1993139825838744,94.35,0.9,66.3,-932.61719,193.84766,-174.80469,0.0995237354035474,0.0623522365933478,-0.1096492630589925,50.7,21.15,-18.0
-572.26562,44.92188,-794.43359,-0.0353062654385932,0.0131899767560967,-0.1389601479840601,-27.0,31.2,10.65,-601.07422,6.34766,776.36719,0.0695466583029936,-0.0426340303030914,-0.1637412053685016,92.7,4.05,66.9,-926.75781,115.72266,-170.89844,0.1160443239712249,0.0977916706538682,-0.1120475199841579,50.55,21.75,-19.65
-590.33203,29.29688,-798.33984,0.0492956029921034,-0.0043966589186989,-0.1123138572280122,-28.05,31.2,11.25,-613.28125,65.91797,828.125,0.058088746296576,-0.0295773967018471,-0.2467441776714463,94.65,2.7,66.0,-946.28906,134.76562,-190.42969,0.0888651841945432,0.1300336615247351,-0.0843353566539172,50.85,21.0,-18.6
-584.96094,19.04297,-783.69141,0.0772741035661985,-0.0995237354035474,-0.1561469287272238,-27.6,31.05,10.05,-656.73828,25.87891,782.71484,-0.0299770771005538,0.0154548905264097,-0.1742664134226534,94.65,2.7,66.0,-942.38281,82.03125,-170.41016,0.1444226794769519,-0.1176432200989769,-0.0293108849250675,49.65,20.85,-18.0
-591.79687,36.13281,-802.24609,0.1107151356331855,-0.0510274932088574,-0.1554809110846628,-27.6,31.05,10.05,-555.66406,57.12891,798.82812,0.0314426300734534,-0.0001331686219271,-0.1850581332535847,94.65,2.7,66.0,-962.40234,108.88672,-177.24609,0.1462879128485583,-0.0303767574992605,-0.0727442760255724,49.65,20.85,-18.0
-587.40234,11.23047,-797.85156,0.1473537854227512,-0.0672817445326806,-0.0798055291132911,-26.4,30.6,10.35,-585.9375,8.30078,805.17578,-0.0233155044115418,0.0650168307623675,-0.2019785767528942,92.55,3.45,66.75,-955.07812,60.05859,-144.04297,0.1786630723413523,-0.0455651362488907,-0.036238969390859,49.65,20.85,-18.0
-593.75,28.80859,-803.22266,0.1354961930176269,-0.0578224090527217,-0.1057856276938527,-27.0,30.9,9.9,-674.31641,8.30078,850.09766,-0.0154548905264097,0.2430137109282336,-0.1509510835440367,92.55,2.4,66.75,-959.96094,62.01172,-141.60156,0.1681378642872005,0.0546247913301429,-0.0851347174513306,50.1,20.7,-18.15
-596.67969,15.625,-793.45703,0.1833262430368307,-0.0858009096268168,-0.1224395594163826,-26.4,31.05,11.4,-633.30078,35.64453,782.22656,-0.0748760211739583,-0.0538254305327295,-0.0763415741468579,92.55,2.4,66.75,-985.83984,58.10547,-127.44141,0.1281684281531288,0.1233720888357231,-0.1025880099712739,50.1,21.45,-16.5
-593.75,6.34766,-806.64062,0.2243613772121702,-0.1260366830047429,-0.0238483534321757,-26.4,31.05,11.4,-618.65234,5.37109,810.54687,-0.0925956509377559,0.103787051167394,-0.110981647409965,92.4,3.0,65.85,-999.51172,63.47656,-139.64844,0.1349631694640679,0.0969923098564548,-0.0828698036810175,50.1,20.25,-17.85
-586.42578,-9.76562,-802.73437,0.22702597138119,-0.1140459219776914,-0.0599539796681824,-27.3,29.7,10.65,-643.55469,-15.13672,770.01953,-0.0631515973907612,0.0314426300734534,-0.1115144964305989,93.0,1.5,65.1,-987.30469,65.91797,-151.36719,0.1770643507465255,0.0751423584178126,-0.085934078248744,50.25,20.1,-17.4
-589.84375,2.92969,-812.01172,0.1977150864561224,-0.0811377389313384,-0.0860674214035963,-27.9,30.3,10.35,-660.15625,-16.11328,785.15625,-0.0291777163031404,0.0567565364785288,-0.1172435397002702,92.7,2.25,66.9,-992.1875,45.89844,-153.80859,0.128834620328615,0.0762082309920056,-0.1080505414641657,50.55,20.25,-17.85
-601.07422,11.71875,-813.47656,0.2563368563062576,-0.105385947295146,-0.040235773377926,-27.0,31.2,10.95,-659.66797,-19.53125,800.29297,-0.1083170532409452,0.1875895588006773,-0.0750091897958855,92.7,2.25,66.9,-990.72266,57.61719,-142.57812,0.1718683310304132,0.0587549384720623,-0.0570230482553083,49.65,18.6,-18.75
-606.44531,6.83594,-803.71094,0.1783965605645728,-0.0266462907560478,-0.0506278128101507,-26.1,30.3,10.35,-671.38672,-34.66797,769.04297,-0.0229158240128351,0.1401591891801802,-0.0929953313364626,96.0,1.05,65.1,-957.03125,62.5,-158.20312,0.145621720673072,0.0587549384720623,-0.1185757495183175,49.65,18.6,-18.75
-610.35156,5.85937,-808.59375,0.1570796326794896,-0.0843353566539172,-0.0839356762552105,-26.1,30.3,10.35,-697.26562,-53.71094,804.19922,-0.0341072242424731,0.0750091897958855,-0.0991240550048407,93.45,3.0,65.85,-997.55859,62.98828,-166.99219,0.0877993116203503,0.1987809590303153,-0.0374380105869791,50.7,20.1,-18.45
-598.14453,6.34766,-822.75391,0.2162342515502586,-0.1171101965454179,-0.0126569532025376,-27.75,30.15,10.95,-665.03906,-40.03906,817.38281,-0.0446324322966249,-0.0170536121212365,-0.093128674491315,93.75,1.8,66.15,-1004.39453,74.70703,-154.78516,0.0728774446474996,0.1799954566923248,-0.1015221373970809,50.7,20.1,-18.45
-611.32812,57.12891,-775.87891,-0.1201746456460695,-0.0608866836204481,0.016787100344457,-25.2,28.95,9.9,-649.41406,-19.53125,816.89453,0.0221164632154217,-0.0487625794385443,0.1063184767144865,92.85,2.7,66.0,-1017.08984,74.21875,-122.07031,-0.1200413024912172,0.0303767574992605,-0.0018652333716063,52.65,23.25,-17.55
-610.83984,46.38672,-749.02344,-0.061419532641082,0.0034639549664331,0.1157779867273706,-25.2,28.2,9.9,-650.39062,-6.83594,819.33594,0.0544916227082157,-0.0508943245869302,0.0999234158022541,91.2,3.0,66.9,-1013.67187,78.125,-133.78906,-0.1045865864977326,0.0265129476011954,-0.0229158240128351,52.65,23.25,-17.55
-607.42187,56.15234,-765.13672,-0.0656830229378538,0.0137228257767306,0.0584886012282079,-27.6,30.6,9.3,-624.51172,41.01563,806.15234,-0.0715452348294523,-0.0566231933236764,0.1362955538150403,93.45,3.75,67.2,-996.09375,46.875,-96.19141,-0.0795390173365115,0.042900542079871,-0.0242480338308824,50.55,24.3,-17.85
-590.82031,68.35938,-755.85937,-0.1604104190239956,0.0787396565390981,-0.0231821612566894,-27.6,30.6,9.3,-640.13672,34.17969,766.11328,0.0615528757959344,-0.0570230482553083,0.1145789455312505,92.55,3.45,66.3,-1001.95312,57.12891,-106.44531,-0.0504946441882235,0.0662158719584876,0.0217166082837898,50.55,24.3,-17.85
-581.54297,63.96484,-775.39062,-0.1235054319905755,0.052493046181757,0.0067947413109391,-27.75,28.95,11.25,-642.57812,10.25391,789.0625,0.0265129476011954,-0.0071944217096458,0.1141790905996186,91.8,3.45,67.05,-981.93359,57.12891,-143.55469,-0.039569755735365,0.0803383781339249,-0.0070612530877186,49.65,25.35,-16.95
-593.75,63.96484,-783.69141,-0.0913966097416358,0.0353062654385932,0.0081271256619115,-24.75,30.3,10.8,-643.55469,5.37109,767.57812,0.0011990411961201,0.0475635382424242,0.0988575432280612,91.65,3.3,66.6,-973.14453,47.85156,-142.57812,0.0369049870334201,0.0616860444178615,0.0682144484849463,51.15,22.2,-18.6
-587.40234,57.61719,-787.10937,-0.0578224090527217,0.0744763407752516,0.0194516945134768,-27.6,29.25,10.05,-638.67187,13.67187,765.625,-0.0181194846954295,0.0398360929792193,0.0843353566539172,93.45,3.0,66.9,-972.16797,61.03516,-157.22656,0.0063950609122324,0.0171867807431637,-0.0174532925199432,49.05,24.75,-16.8
-609.86328,58.59375,-791.50391,-0.0928621627145355,0.1068515002680456,0.0417013263508257,-26.1,29.25,10.8,-624.02344,44.92188,775.87891,-0.0019984019935335,0.0263797789792682,0.0784731447623186,93.45,3.0,66.9,-948.73047,53.22266,-167.48047,0.0301102457224809,0.0298437339457014,0.0031976177225788,51.0,23.4,-16.95
-611.81641,60.05859,-790.52734,-0.0802052095119978,0.1033873707686873,0.0059953805135257,-26.1,29.25,10.8,-643.06641,25.87891,775.87891,0.0103920394322246,0.0666155523571943,0.0844685252758443,93.3,3.9,67.05,-965.82031,61.03516,-172.36328,0.0186523337160634,0.036238969390859,0.0141225061754373,50.7,24.9,-17.7
-601.07422,60.05859,-810.05859,-0.050761155965003,0.0266462907560478,0.0013323843509724,-25.8,29.25,11.1,-652.83203,28.80859,767.08984,0.0058622118915985,0.051827028539196,0.0098591904115907,92.4,3.75,66.15,-978.51562,63.47656,-174.80469,0.0118575924051242,0.0085268060606182,-0.005595700114819,50.25,24.6,-16.95
-594.72656,55.66406,-803.71094,-0.0996569040254746,0.0901975685455157,-0.0206509102425221,-26.4,31.8,10.35,-635.25391,77.63672,754.88281,0.0143890179522168,0.0688804661275074,0.0542251109314362,92.85,3.9,66.75,-984.86328,83.00781,-175.78125,0.0235820161883213,0.0305099261211876,-0.0119907610270514,50.25,24.6,-16.95
-594.23828,51.26953,-791.50391,-0.1092495826602858,0.0555574952824086,0.0006661921754862,-27.3,29.4,10.65,-646.97266,32.71484,741.21094,0.0390367321818059,0.0891316959713228,0.04849624219469,92.85,3.9,66.75,-997.07031,79.58984,-161.62109,0.032908183046353,0.0007993607974134,-0.0042633157638465,51.0,23.1,-15.9
-599.12109,57.12891,-793.94531,-0.0711455544307456,0.0197182062902563,0.0776737839649052,-27.3,29.4,10.65,-652.83203,31.25,782.22656,0.0049295079393327,0.1103154552344788,0.0919296332951949,92.7,4.5,66.15,-995.60547,79.58984,-153.80859,0.0269126279999021,0.0189188454928429,0.020117886688963,49.8,24.3,-16.05
-585.9375,64.94141,-803.71094,-0.091529778363563,0.0472970264656447,-0.051827028539196,-27.9,30.3,10.8,-573.24219,25.87891,780.27344,-0.0330413516682802,0.078606487917171,0.025713586803782,93.6,4.95,67.8,-986.32812,77.14844,-136.23047,0.0662158719584876,-0.0464976656682313,0.0387702204050264,49.8,24.3,-16.05
-586.91406,60.05859,-798.82812,-0.0862005900255235,0.0819372742616769,-0.025713586803782,-27.6,31.05,9.75,-632.32422,24.90234,779.29687,0.0278453319521679,0.0873996312216436,0.0403691165327784,93.6,4.95,67.8,-991.69922,68.84766,-148.4375,0.0169204434993094,0.0611531953972277,-0.0321086477160144,50.25,23.4,-16.2
-589.35547,72.26563,-799.31641,-0.0417013263508257,0.0119907610270514,0.002264913770313,-26.25,29.4,10.65,-653.32031,7.8125,787.59766,0.0535589187559499,0.0760750623700784,0.0357059458372999,92.55,3.9,66.75,-1019.04297,58.59375,-150.87891,0.0393032439585855,0.058088746296576,0.0446324322966249,49.2,23.4,-17.7
-598.14453,62.5,-805.66406,-0.0724777642487929,0.0475635382424242,-0.0626187483701273,-27.0,28.95,9.9,-629.39453,36.62109,798.82812,0.0271791397766816,0.0943277156874351,-0.0098591904115907,93.45,4.5,66.15,-989.74609,57.61719,-137.20703,0.0387702204050264,0.0900643999235885,-0.0037304667432126,52.05,23.1,-15.6
-598.63281,70.3125,-813.47656,-0.0667488955120467,0.0600873228230347,-0.0289112045263608,-27.0,28.95,9.9,-663.08594,29.29688,776.36719,0.0474303696204971,0.0632847660126884,-0.0073277648644981,92.85,3.45,65.7,-984.375,69.82422,-135.25391,0.070346019100407,0.079272505559732,0.0079939570399844,51.15,22.95,-16.5
-583.00781,76.66016,-801.75781,-0.0282450123508746,0.0177198042967228,0.0772741035661985,-27.0,28.95,9.9,-668.94531,44.43359,787.10937,0.050228132411444,0.08420218803199,-0.041301645952119,92.85,3.45,65.7,-1000.48828,56.15234,-133.78906,0.0779402957416847,0.0726111074036452,0.0033307863445059,51.15,22.95,-16.5
-585.9375,69.82422,-811.52344,-0.0570230482553083,0.0178529729186499,-0.0075941021083525,-26.25,30.15,10.95,-667.48047,49.80469,786.62109,0.032908183046353,0.0818039311068246,-0.0351730968166661,94.2,4.05,66.15,-988.76953,62.01172,-137.69531,0.1376279381660128,0.0333078634450597,0.0318423104721601,50.85,24.75,-16.8
-600.09766,71.77734,-806.64062,-0.0997902471803269,0.0349065850398865,-0.0559571756811154,-26.25,29.4,10.95,-650.87891,40.03906,770.99609,0.0660827033365605,0.0508943245869302,-0.0053291883380394,91.8,4.2,66.75,-978.02734,76.17188,-123.53516,0.1364287224369675,-0.0082602942838387,0.0091929982361045,50.85,24.75,-16.8
-598.63281,66.40625,-798.33984,-0.0219831200605693,0.0347734164179594,0.0575558972759422,-25.95,31.2,9.15,-635.25391,45.89844,796.875,0.0074609334864253,0.0901975685455157,-0.0197182062902563,93.0,4.5,67.2,-989.74609,80.56641,-155.27344,0.158944866051096,0.0337075438437664,0.0014655529728996,51.0,23.85,-17.7
-591.79687,71.77734,-792.96875,-0.0139893375535101,0.0015987215948268,0.0523598775598298,-25.95,31.2,9.15,-650.87891,66.40625,790.52734,0.0033307863445059,0.2090398298406128,0.0155880591483369,93.3,1.65,64.95,-994.62891,91.30859,-135.74219,0.1116478395854512,-0.0277121633302407,-0.0225161436141284,49.35,24.75,-16.8
-589.35547,70.3125,-804.19922,-0.0487625794385443,0.0309096065198943,-0.004529827540626,-27.9,29.25,10.8,-631.83594,42.48047,784.17969,-0.0359724576140795,0.1152449631738115,-0.0013323843509724,93.75,3.75,66.9,-990.72266,86.42578,-117.1875,0.1052526041402936,0.0041301471419193,0.0077274452632048,49.95,24.6,-16.65
-599.12109,69.82422,-792.48047,-0.0130566336012443,-0.0389035635598788,0.0393032439585855,-27.3,29.7,9.9,-614.25781,36.13281,791.50391,0.031309286918601,0.1621424837736748,-0.0009327039522657,93.6,3.45,66.3,-989.25781,90.82031,-115.23438,0.1368284028356742,-0.0687472975055802,-0.0127901218244648,51.6,24.3,-18.6
-606.93359,63.96484,-796.875,-0.014522186574144,-0.0462311538914518,0.0377045223637587,-26.1,29.85,11.4,-651.36719,36.13281,776.36719,-0.0065284040670847,0.1167105161467112,-0.0326416712695735,93.6,3.45,66.3,-1002.92969,90.82031,-121.58203,0.0929953313364626,0.0102588708102974,0.0226493122360556,51.15,23.7,-16.5
-609.375,66.89453,-798.33984,-0.0655498543159266,0.043566559722432,-0.0258469299586344,-26.85,30.6,9.3,-633.78906,47.36328,809.08203,0.0110582316077108,0.0979250138087206,-0.0506278128101507,93.6,3.45,66.3,-994.14062,83.98438,-113.76953,0.125503833984109,-0.0242480338308824,0.0034639549664331,50.1,24.3,-17.1
-603.02734,63.96484,-793.94531,0.0187856768709157,0.0006661921754862,0.0414349891069713,-26.85,30.6,9.3,-627.92969,31.73828,800.29297,-0.0006661921754862,0.0598208110462552,-0.0562235129249697,93.9,3.45,65.7,-990.23437,79.10156,-122.55859,0.1340306400447273,-0.0327748398915007,0.029044373148288,50.1,24.3,-17.1
-606.44531,58.10547,-787.10937,-0.0322419908708668,-0.0137228257767306,0.0241148652089552,-26.7,30.15,11.25,-610.35156,57.61719,790.52734,0.0410353087082646,0.0162542513238231,-0.0350397536618137,91.8,3.9,65.7,-991.21094,80.56641,-132.32422,0.1474869540446784,-0.0071944217096458,-0.0389035635598788,49.05,23.25,-16.5
-615.23437,65.42969,-781.25,-0.0209172474863764,0.0556906639043358,-0.0253139064050753,-28.35,30.9,11.55,-625.97656,62.98828,787.59766,0.0142556747973644,0.0209172474863764,-0.0198513749121835,93.3,3.45,64.95,-987.30469,84.47266,-129.88281,0.1688040564626867,0.0377045223637587,0.0409019655534123,49.05,23.25,-16.5
-607.91016,78.61328,-773.4375,0.0221164632154217,-0.0366386497895657,-0.0050628510941851,-26.4,30.3,10.05,-635.25391,50.29297,785.64453,0.0374380105869791,0.0233155044115418,0.0062618922903052,93.3,3.45,64.95,-994.14062,81.05469,-115.72266,0.1384272989634262,-0.0110582316077108,0.0030642745677264,50.25,23.1,-16.95
-586.42578,71.28906,-776.85547,0.0259800985805615,-0.0238483534321757,0.0026645941690197,-26.4,30.3,10.05,-618.65234,49.31641,799.31641,-0.0298437339457014,-0.0117244237831971,-0.0439662401211387,92.7,4.05,66.15,-970.21484,88.86719,-125.0,0.1265697065583019,0.0556906639043358,-0.0378376909856858,48.75,21.45,-16.5
-600.09766,73.24219,-766.60156,-0.0225161436141284,0.0562235129249697,0.0066615726890119,-27.3,30.45,10.2,-613.28125,73.24219,803.22266,-0.0398360929792193,0.0643506385868813,-0.0062618922903052,95.1,3.15,67.05,-982.91016,82.51953,-131.83594,0.1163108357480045,-0.0049295079393327,-0.0611531953972277,50.1,24.75,-17.55
-595.21484,69.33594,-781.25,-0.0002665117767795,0.0504946441882235,0.0031976177225788,-25.95,30.9,9.9,-652.34375,58.10547,808.59375,-0.0186523337160634,0.0222496318373489,-0.0258469299586344,95.1,3.15,67.05,-1005.85937,77.63672,-125.97656,0.1501515482136981,0.054091942309509,-0.0345069046411798,49.2,24.15,-19.05
-601.5625,57.12891,-781.25,-0.0350397536618137,-0.0026645941690197,-0.0155880591483369,-26.4,31.35,10.35,-643.06641,41.50391,796.38672,-0.0203843984657425,-0.0286446927495813,-0.0209172474863764,93.3,3.15,64.95,-994.62891,94.72656,-120.60547,0.1426906147272728,0.0163874199457503,-0.0373046674321268,49.2,24.15,-19.05
-604.98047,70.80078,-791.01562,0.0166539317225298,-0.0138559943986577,0.0358392889921523,-25.95,30.9,9.9,-637.20703,51.26953,772.46094,-0.0710122112758932,0.0386370517830992,0.031309286918601,93.45,2.25,65.85,-980.95703,69.82422,-139.16016,0.0899310567687362,0.0492956029921034,-0.0514271736075641,51.9,23.7,-17.1
-610.35156,80.07813,-788.08594,-0.0476967068643514,0.0295773967018471,0.0034639549664331,-25.95,30.9,9.9,-634.27734,49.31641,776.36719,-0.0158545709251164,0.0225161436141284,-0.0031976177225788,93.3,3.15,66.3,-996.09375,76.17188,-128.41797,0.1444226794769519,-0.0030642745677264,-0.0009327039522657,51.9,23.7,-17.1
-621.09375,67.87109,-783.69141,-0.0230489926347623,0.0274456515534612,-0.0318423104721601,-26.1,31.05,11.85,-645.50781,71.77734,793.45703,-0.046897346066938,0.0399694361340717,-0.002264913770313,93.3,3.15,66.3,-991.69922,82.03125,-145.01953,0.1809279861116653,0.0682144484849463,-0.0590214502488418,50.85,24.0,-17.1
-602.53906,46.38672,-787.10937,0.0285115241276541,-0.0122572728038309,0.0253139064050753,-27.3,30.45,10.2,-625.97656,59.57031,788.08594,-0.0772741035661985,0.0214502710399355,-0.0209172474863764,94.65,3.45,65.7,-1003.41797,60.05859,-140.625,0.1785299037194251,-0.0255804181818548,-0.0242480338308824,51.0,23.85,-17.4
-603.02734,54.6875,-790.52734,-0.0146553551960711,0.0198513749121835,-0.0341072242424731,-27.6,29.85,11.1,-631.83594,23.92578,749.02344,-0.006128723668378,0.0047963393174056,0.020117886688963,93.75,2.55,66.15,-996.58203,71.28906,-135.74219,0.1877227274226045,0.0592879620256213,-0.0628850856139816,51.0,23.85,-17.4
-600.09766,45.41016,-802.73437,0.0143890179522168,0.0516936853843436,-0.0065284040670847,-27.6,29.85,11.1,-634.27734,42.48047,768.55469,-0.060753514998521,0.0299770771005538,-0.0285115241276541,92.85,3.9,64.95,-1005.37109,72.26563,-118.16406,0.1690703937065411,0.011191400229638,-0.0258469299586344,49.35,22.5,-16.8
-601.07422,60.54688,-804.19922,0.0436999028772844,-0.0077274452632048,0.0289112045263608,-28.05,30.15,9.9,-658.69141,68.35938,787.10937,0.023448673033469,0.0107917198309313,-0.0089264864593249,93.45,3.3,66.15,-991.21094,53.71094,-115.72266,0.1553475679298105,0.085934078248744,-0.0560903443030425,49.65,23.1,-17.7
-601.5625,63.96484,-810.05859,0.0122572728038309,0.0350397536618137,0.0033307863445059,-26.85,30.3,12.15,-642.57812,78.61328,774.41406,0.0911300979648563,-0.0047963393174056,-0.0504946441882235,92.4,2.25,65.1,-985.83984,48.33984,-135.25391,0.1950504922871027,0.0836691644784309,-0.0375711792089063,51.15,22.5,-17.55
-602.05078,46.875,-812.5,0.0221164632154217,0.0383705400063197,-0.0526263893366094,-27.6,32.1,10.05,-664.0625,36.62109,771.48437,0.0848683802074762,0.0598208110462552,-0.0595542992694757,93.0,2.55,65.55,-1006.34766,40.03906,-137.20703,0.2684609604881613,0.0648836621404404,-0.0243813769857347,48.75,22.5,-17.1
-608.39844,40.03906,-825.19531,0.069680001457846,-0.0165205885676775,0.0467641774450108,-26.85,29.55,10.35,-646.48437,-5.37109,787.59766,0.0377045223637587,0.0811377389313384,-0.0389035635598788,93.0,2.55,65.55,-1009.27734,20.99609,-126.95313,0.2371516735695603,0.085934078248744,-0.0406354537766327,48.75,22.5,-17.1
-627.92969,49.80469,-799.80469,-0.0074609334864253,0.0778071271197576,-0.0043966589186989,-26.85,29.55,10.35,-763.18359,16.11328,777.34375,0.0599539796681824,0.0062618922903052,-0.032908183046353,95.1,3.9,64.65,-1035.15625,35.15625,-152.83203,0.2996370787848353,0.0083936374386911,0.0038636353651398,50.25,23.85,-18.0
-600.09766,51.75781,-796.875,-0.004529827540626,0.0476967068643514,0.0399694361340717,-26.85,31.35,11.1,-749.51172,-98.14453,810.54687,0.0632847660126884,0.042900542079871,-0.05475795995207,93.45,3.3,64.35,-1010.74219,36.62109,-166.01562,0.3349433442234286,0.0058622118915985,-0.040235773377926,50.25,23.85,-18.0
-586.91406,57.12891,-783.20312,0.0556906639043358,-0.0259800985805615,-0.0139893375535101,-27.6,31.05,10.8,-788.08594,-83.00781,868.16406,0.0678147680862396,0.1422909343285661,-0.0407687969314851,94.5,3.75,64.35,-1005.85937,28.32031,-157.71484,0.3870367100064789,-0.0675482563094601,-0.0277121633302407,50.85,21.75,-16.5
