IMU1_AccX,IMU1_AccY,IMU1_AccZ,IMU1_GyrX,IMU1_GyrY,IMU1_GyrZ,IMU1_MagX,IMU1_MagY,IMU1_MagZ,IMU2_AccX,IMU2_AccY,IMU2_AccZ,IMU2_GyrX,IMU2_GyrY,IMU2_GyrZ,IMU2_MagX,IMU2_MagY,IMU2_MagZ,IMU3_AccX,IMU3_AccY,IMU3_AccZ,IMU3_GyrX,IMU3_GyrY,IMU3_GyrZ,IMU3_MagX,IMU3_MagY,IMU3_MagZ
-613.28125,-55.66406,-760.25391,-0.0627519169920545,0.0326416712695735,-0.0403691165327784,-26.25,27.9,10.2,-642.57812,-45.89844,780.27344,0.1449555284975858,0.0129234649793172,0.1151117945518844,94.35,1.65,66.0,-1015.13672,4.88281,-141.60156,-0.0550244717288496,-0.0587549384720623,0.1013889687751538,51.0,20.55,-17.4
-619.14062,-51.26953,-772.94922,-0.027312482931534,-0.0414349891069713,0.0758085505932989,-25.05,26.55,10.35,-727.53906,-48.82813,771.97266,0.1219065358628235,-0.0178529729186499,0.0871332939777893,92.7,1.05,66.15,-990.72266,10.25391,-145.01953,-0.079272505559732,-0.0411684773301918,0.0746095093971788,51.0,20.55,-17.4
-623.04687,-44.43359,-779.78516,-0.0880658233971298,0.0245145456076619,0.070346019100407,-25.05,26.55,10.35,-645.99609,-9.76562,783.69141,0.0846018684306967,-0.0250473946282958,0.1075176924435318,93.6,3.15,66.3,-990.72266,7.32422,-146.97266,-0.0959264372822619,-0.0470306892217904,0.0746095093971788,50.7,20.55,-15.9
-618.16406,-48.82813,-771.97266,-0.1272358987337882,0.027312482931534,0.04849624219469,-24.3,25.8,8.7,-627.92969,-12.69531,792.96875,0.1156446435725182,-0.0381042027624654,0.0566231933236764,93.6,3.15,66.3,-978.02734,23.4375,-154.78516,-0.0656830229378538,-0.0632847660126884,0.0779402957416847,50.7,20.55,-15.9
-611.32812,-50.29297,-768.55469,-0.064750318985588,-0.041834669505678,0.0559571756811154,-25.65,27.45,9.6,-638.67187,-7.32422,775.39062,0.0762082309920056,-0.04849624219469,0.0270459711547545,91.95,2.25,66.15,-968.75,34.17969,-158.20312,-0.0427671989250186,-0.0147886983509235,0.0249142260063686,48.9,21.6,-18.0
-622.07031,-43.45703,-775.87891,-0.0917962901403425,0.0174532925199432,-0.0326416712695735,-25.2,26.4,9.15,-543.94531,1.95312,806.64062,0.0403691165327784,-0.2803185528932856,0.143356806902759,93.3,1.65,64.65,-971.67969,49.31641,-161.62109,-0.0434333911005048,-0.0618192130397887,0.1183094122744632,51.6,21.45,-18.6
-636.23047,-54.19922,-769.53125,-0.1047197551196597,-0.0063950609122324,0.0253139064050753,-25.2,26.4,9.15,-627.44141,31.25,783.20312,0.1017886491738605,-0.046897346066938,0.118842261295097,93.6,1.65,66.3,-969.23828,59.08203,-154.29687,-0.0358392889921523,-0.002264913770313,0.1019218177957876,51.0,21.6,-17.4
-627.92969,-56.15234,-764.16016,-0.0957932686603347,-0.0087933178373978,0.1073843492886795,-26.7,26.7,9.6,-632.8125,20.99609,753.41797,0.0321086477160144,0.0127901218244648,0.1207074946667034,93.6,1.65,66.3,-961.42578,77.14844,-160.15625,-0.0650168307623675,-0.0425006871482391,0.0862005900255235,51.45,22.35,-18.0
-611.81641,-49.31641,-767.57812,-0.1155114749505911,-0.027312482931534,0.0508943245869302,-26.25,26.7,8.85,-693.35937,56.15234,751.46484,0.0945942274642146,-0.0847350370526239,0.1626753327943086,93.9,3.45,67.05,-957.03125,99.60938,-150.39062,-0.0492956029921034,0.0289112045263608,0.0571562168772355,52.5,20.85,-18.0
-611.81641,-36.62109,-764.64844,-0.1425574461053456,-0.0583552580733556,0.0475635382424242,-25.95,28.2,9.6,-608.39844,30.76172,778.80859,0.0115910806283447,-0.011191400229638,0.1533491659362769,93.6,2.4,66.3,-971.19141,96.67969,-132.8125,-0.1181760691196108,0.0285115241276541,0.0527595579585365,51.9,21.75,-18.15
-605.46875,-39.0625,-754.39453,-0.0688804661275074,-0.0679479367081668,0.0856677410048896,-26.1,26.55,9.0,-650.39062,56.15234,795.41016,-0.0107917198309313,0.0668820641339739,0.2067749160702998,93.0,2.55,66.15,-986.81641,92.77344,-151.36719,-0.1454885520511449,0.0492956029921034,0.073676805444913,51.9,21.75,-18.15
-605.95703,-41.50391,-761.71875,-0.1609432680446295,0.0065284040670847,0.0900643999235885,-26.1,26.55,9.0,-666.99219,-1.95312,755.37109,0.0458314734927451,0.0335742006889141,0.171202138854927,92.4,1.8,66.6,-987.79297,78.61328,-136.71875,-0.1356293616395541,0.0342403928644003,0.0281118437289474,51.6,22.5,-17.1
-616.69922,-46.875,-771.97266,-0.1442895108550248,-0.03064326927604,0.0587549384720623,-26.1,26.55,9.0,-644.53125,6.83594,786.13281,-0.0221164632154217,0.0309096065198943,0.1961163648612956,92.55,2.7,66.75,-1002.44141,33.20313,-122.55859,-0.1256370026060362,0.0254472495599277,-0.0213169278850831,51.0,21.9,-16.2
-631.83594,-40.52734,-761.71875,-0.1470872736459717,-0.0651499993842947,0.0903307371674429,-25.8,26.55,7.65,-651.85547,24.41406,819.82422,-0.0191853572696224,0.1216401986189692,0.2159679143064043,93.3,1.95,66.0,-1003.41797,9.76562,-115.72266,-0.1328315988486072,0.0075941021083525,-0.0101255276554451,51.0,21.9,-16.2
-627.44141,-12.20703,-765.13672,-0.1774640311452322,0.0077274452632048,0.0628850856139816,-25.2,26.7,10.65,-648.4375,-14.16016,822.75391,-0.0009327039522657,0.0357059458372999,0.1903874961245494,93.3,1.95,66.0,-1014.16016,9.76562,-129.39453,-0.0852680606061829,-0.0117244237831971,0.0317089673173077,52.8,21.6,-18.0
-637.69531,-4.39453,-776.36719,-0.1923858981180829,0.0652833425391471,0.1001899275790336,-25.2,27.45,9.15,-616.21094,73.73047,815.42969,-0.0447657754514773,-0.0206509102425221,0.2652633427655826,92.1,4.2,66.0,-1001.46484,-6.83594,-136.71875,-0.1183094122744632,-0.023981696587028,0.0523598775598298,50.25,20.55,-17.4
-635.25391,7.8125,-761.71875,-0.1923858981180829,-0.0129234649793172,0.1217733672408963,-25.2,27.45,9.15,-641.11328,45.41016,772.94922,0.1000565844241813,0.0407687969314851,0.2447457756779128,93.75,1.5,65.55,-1010.25391,-11.71875,-118.65234,-0.1064518198693389,-0.0083936374386911,0.0010658725741929,51.45,21.9,-17.7
-620.60547,9.27734,-770.01953,-0.2775206155694135,0.0077274452632048,0.114312433754471,-26.4,28.5,9.3,-653.32031,59.57031,783.69141,0.0026645941690197,0.0366386497895657,0.2355527774418083,93.3,3.15,65.7,-1000.0,2.92969,-104.00391,-0.1133797298022052,0.0427671989250186,0.0378376909856858,50.85,21.0,-16.8
-625.48828,1.95312,-768.06641,-0.2999035905616148,-0.0025314255470925,0.0488959225933967,-26.85,28.8,10.8,-642.57812,27.34375,790.03906,-0.0519601971611231,0.0311761182966739,0.2158345711515519,93.3,3.15,65.7,-1011.23047,19.53125,-112.79297,-0.0330413516682802,0.0466310088230837,0.0566231933236764,50.85,21.0,-16.8
-629.88281,28.80859,-769.53125,-0.24487894429984,-0.0496952833908101,0.0852680606061829,-23.85,27.9,10.2,-646.48437,37.10938,788.57422,-0.0767412545455646,0.0426340303030914,0.2587351132314229,93.3,3.15,64.95,-1005.85937,18.55469,-106.93359,-0.0025314255470925,-0.0131899767560967,0.0678147680862396,51.0,21.9,-16.95
-627.44141,36.62109,-770.99609,-0.3555942544659507,-0.015055210127703,0.0710122112758932,-24.15,29.4,9.6,-634.27734,36.62109,790.03906,-0.1133797298022052,0.0487625794385443,0.2368851617927808,93.6,3.45,67.05,-1006.34766,10.25391,-95.70313,0.040235773377926,-0.0267794593779749,-0.0019984019935335,51.0,21.9,-16.95
-622.55859,37.59766,-779.78516,-0.3641208859936438,-0.0365053066347134,0.0182526533173567,-24.15,29.4,9.6,-643.06641,29.29688,790.03906,-0.064750318985588,0.0747426780191059,0.218632508475424,93.6,3.45,67.05,-994.62891,41.99219,-99.60938,0.0227824808579827,0.0251807377831481,-0.0131899767560967,51.45,21.9,-15.9
-637.69531,43.94531,-767.57812,-0.3879694139587447,-0.0523598775598298,0.0482297304179105,-25.2,27.9,9.6,-635.74219,15.625,813.96484,-0.0037304667432126,0.0552909835056291,0.218099484921865,93.6,3.45,67.05,-997.07031,35.64453,-113.28125,0.0139893375535101,0.0137228257767306,-0.0349065850398865,52.05,21.6,-16.95
-628.41797,54.6875,-763.18359,-0.3815741785135871,-0.0403691165327784,0.063684446411395,-25.05,28.05,9.75,-646.97266,33.20313,807.12891,-0.0287778613715085,0.0190520141147701,0.1997136629825811,92.7,3.75,66.15,-986.81641,49.80469,-121.58203,-0.0181194846954295,0.0027979373238721,0.0659495347146333,51.6,21.75,-15.75
-607.42187,54.6875,-770.99609,-0.4385972267688954,0.0139893375535101,0.0278453319521679,-26.4,28.05,9.75,-626.46484,16.11328,819.33594,0.0093261668580317,-0.0409019655534123,0.2161010829283315,92.4,4.8,66.15,-991.21094,43.45703,-111.32813,-0.032908183046353,0.0486294108166172,-0.0053291883380394,50.7,21.15,-18.45
-638.18359,63.47656,-748.53516,-0.3871700531613313,-0.0229158240128351,0.0664823837352672,-26.4,28.05,9.75,-638.67187,21.97266,813.96484,0.005595700114819,0.0181194846954295,0.1870567097800435,93.0,3.3,65.55,-991.21094,60.54688,-125.97656,-0.0207840788644492,0.034640073263107,0.0170536121212365,51.75,20.55,-16.2
-622.07031,56.64063,-754.39453,-0.4246080637483105,-0.0305099261211876,-0.0129234649793172,-25.05,28.05,10.35,-627.44141,10.25391,807.61719,-0.0005328490206338,-0.0179861415405771,0.1906538333684037,93.0,3.3,65.55,-987.30469,53.71094,-112.30469,-0.0005328490206338,-0.0262466103573411,0.0215834396618626,50.1,21.75,-16.8
-626.95312,67.38281,-754.88281,-0.5062786517002827,0.0227824808579827,-0.0504946441882235,-25.2,29.7,10.2,-625.0,25.39063,788.08594,-0.0222496318373489,-0.0133231453780239,0.1989143021851677,93.9,3.9,66.0,-985.35156,43.45703,-128.41797,-0.0289112045263608,0.011191400229638,0.0417013263508257,50.1,21.75,-16.8
-610.35156,46.38672,-743.16406,-0.4183461714580052,-0.018385996472209,0.0266462907560478,-27.15,29.85,10.8,-631.83594,0.97656,792.48047,-0.0087933178373978,-0.0005328490206338,0.1557472483285172,91.95,3.75,66.15,-982.42187,36.62109,-132.32422,-0.023448673033469,0.0433002224785777,0.0159877395470436,51.0,21.15,-16.95
-616.21094,58.59375,-746.09375,-0.3818406902903666,-0.0410353087082646,0.0311761182966739,-25.65,28.2,10.95,-645.50781,2.92969,793.94531,-0.0039969785199922,-0.0295773967018471,0.132165406673121,93.0,4.5,66.15,-983.39844,29.29688,-132.8125,0.0095926786348112,0.0444992636746978,0.0258469299586344,51.0,21.15,-16.95
-618.65234,50.78125,-747.55859,-0.4024916005328887,0.0219831200605693,-0.0307764378979672,-24.9,29.4,12.0,-619.14062,28.80859,786.13281,-0.0142556747973644,-0.2531394131166039,0.1793292645168386,93.0,3.3,66.6,-973.63281,29.29688,-138.67187,-0.0450321126953316,0.103787051167394,-0.0069280844657914,52.65,22.95,-18.15
-625.0,62.5,-744.14062,-0.3314793892569954,-0.0115910806283447,0.0383705400063197,-24.3,28.8,11.1,-617.67578,36.62109,802.24609,0.0175864611418704,-0.0311761182966739,0.1269693869570086,93.75,3.75,66.15,-988.28125,26.85547,-140.625,-0.0662158719584876,0.0542251109314362,0.0330413516682802,50.85,22.2,-16.8
-625.48828,56.15234,-759.76562,-0.3738469077833074,-0.069680001457846,0.0182526533173567,-26.1,29.85,10.35,-628.90625,11.71875,781.73828,0.0141225061754373,-0.0214502710399355,0.0916631215184153,92.85,3.9,65.25,-977.05078,26.36719,-158.69141,-0.0627519169920545,0.0588882816269146,0.0478300500192038,51.15,21.45,-17.1
-629.88281,65.42969,-760.74219,-0.3537290210943443,0.0099923590335179,-0.0538254305327295,-25.35,29.85,10.8,-640.13672,15.625,799.80469,0.0532925815120956,-0.0005328490206338,0.1041869060990259,92.85,3.9,65.25,-983.88672,25.87891,-153.32031,-0.0263797789792682,0.0282450123508746,0.0238483534321757,50.1,21.0,-16.8
-632.8125,57.61719,-781.25,-0.3193552850750916,0.0039969785199922,0.0326416712695735,-25.35,29.85,10.8,-639.64844,14.16016,787.10937,0.0455651362488907,0.0448989440734045,0.1111148160318922,93.45,4.05,65.85,-984.86328,53.22266,-152.83203,-0.0347734164179594,0.0099923590335179,0.061419532641082,50.1,21.0,-16.8
-635.25391,65.42969,-791.99219,-0.212503784807046,-0.0410353087082646,0.0342403928644003,-26.4,30.3,10.05,-631.83594,13.67187,802.24609,0.0094593354799588,0.0057288687367461,0.1027213531261262,93.45,4.05,65.85,-984.86328,42.48047,-128.90625,-0.011191400229638,0.050761155965003,0.1035207139235396,50.55,22.5,-18.6
-634.76562,62.98828,-788.08594,-0.2157014025296248,-0.0539585991546566,-0.0082602942838387,-25.8,29.85,11.4,-642.57812,26.36719,786.13281,0.032908183046353,-0.0038636353651398,0.0727442760255724,92.1,4.2,65.7,-987.30469,28.80859,-142.08984,0.0014655529728996,-0.0059953805135257,-0.0075941021083525,50.55,22.5,-18.6
-634.76562,62.5,-799.31641,-0.1915865373206695,-0.057422728654015,0.0523598775598298,-25.8,31.35,11.4,-656.73828,25.39063,781.73828,0.0603538345998143,0.0221164632154217,0.116577347524784,92.1,4.2,65.7,-1007.32422,26.36719,-151.36719,-0.0049295079393327,0.0470306892217904,0.0089264864593249,50.85,23.25,-18.6
-654.29687,57.61719,-795.41016,-0.2204977418470304,-0.0186523337160634,-0.0074609334864253,-25.8,31.35,11.4,-645.50781,20.01953,779.29687,0.0684807857288007,-0.0115910806283447,0.0385038831611721,92.4,5.55,67.2,-997.55859,40.03906,-145.99609,-0.0005328490206338,0.022382800459276,-0.0121241041819038,51.75,23.25,-17.55
-635.74219,64.45313,-786.62109,-0.1708024584562202,-0.0121241041819038,0.0094593354799588,-25.95,30.9,9.9,-641.60156,16.60156,766.60156,0.057422728654015,0.0281118437289474,0.0559571756811154,92.7,4.5,65.85,-988.76953,31.73828,-165.52734,0.0030642745677264,0.0452986244721112,0.077007591789419,51.75,21.15,-16.65
-643.55469,67.87109,-775.87891,-0.1124472003828646,-0.0956601000384076,0.0726111074036452,-26.25,31.65,11.55,-665.03906,27.83203,767.08984,0.0351730968166661,0.0135896571548034,0.0179861415405771,92.7,4.5,65.85,-1010.74219,19.53125,-146.48437,0.0321086477160144,-0.03064326927604,0.0246477142295891,50.7,21.6,-17.4
-618.65234,79.58984,-794.92187,-0.1253706653621819,-0.0285115241276541,-0.0129234649793172,-26.1,31.05,12.15,-667.96875,22.94922,782.71484,0.0868667822010097,0.0704793622552594,-0.0013323843509724,92.4,5.25,66.15,-990.72266,26.36719,-133.78906,0.0285115241276541,-0.0475635382424242,0.1031210335248329,50.55,21.45,-17.55
-621.09375,69.82422,-781.25,-0.0772741035661985,-0.0439662401211387,0.063684446411395,-25.35,31.8,11.85,-658.20312,11.71875,751.95312,0.0598208110462552,0.0370383301882724,0.0438330714992115,91.35,3.45,66.75,-986.81641,21.97266,-151.85547,0.0391699008037331,0.040235773377926,0.0205175670876697,51.75,23.85,-16.95
-621.58203,70.80078,-776.85547,-0.0568897051004559,-0.0209172474863764,0.0631515973907612,-25.35,31.8,11.85,-661.62109,23.4375,763.18359,0.0935283548900217,0.037970859607613,0.0245145456076619,92.7,4.05,66.15,-985.35156,7.8125,-168.45703,0.029044373148288,0.0146553551960711,0.0710122112758932,51.15,23.7,-16.8
-639.16016,76.17188,-777.83203,-0.1099157748357721,0.0131899767560967,0.0443659205198454,-25.65,31.95,10.2,-665.52734,-7.32422,784.66797,0.0293108849250675,0.0704793622552594,-0.0277121633302407,92.7,4.05,66.15,-996.09375,18.06641,-145.01953,0.0921959705390492,-0.0083936374386911,0.0763415741468579,51.15,23.7,-16.8
-612.79297,80.07813,-778.80859,-0.0309096065198943,-0.0358392889921523,0.0608866836204481,-25.05,32.55,12.45,-651.36719,0.97656,772.46094,0.1209740064434829,0.0527595579585365,-0.0225161436141284,93.9,3.15,65.25,-990.72266,12.69531,-134.76562,0.0876661429984231,0.0283781809728018,0.0690138092823597,50.7,21.9,-16.2
-618.16406,69.33594,-770.99609,-0.0106585512090041,0.0089264864593249,0.0925956509377559,-25.05,31.35,10.8,-656.73828,5.37109,775.39062,0.1096492630589925,0.041301645952119,0.0027979373238721,93.3,4.2,66.75,-998.53516,27.34375,-146.97266,0.1131133925583509,0.013456313999951,0.0818039311068246,50.7,21.9,-16.2
-623.04687,72.26563,-774.90234,-0.0452986244721112,0.016787100344457,0.0409019655534123,-25.05,31.35,10.8,-661.13281,20.50781,770.99609,0.1183094122744632,0.0302434143444081,-0.074209828998472,93.3,4.2,66.75,-1001.46484,36.13281,-155.76172,0.1271025555789358,0.0017320647496791,0.0905972489442224,51.45,21.9,-16.2
-617.67578,78.125,-777.34375,-0.0584886012282079,0.0458314734927451,0.0182526533173567,-25.05,31.35,10.8,-663.57422,37.10938,792.96875,0.1564134405040034,0.0353062654385932,-0.0866002704242302,94.2,4.8,65.55,-989.25781,37.59766,-143.06641,0.1137794102009119,-0.0121241041819038,0.098724374606134,51.0,21.15,-18.0
-625.0,85.9375,-774.90234,-0.0166539317225298,0.0230489926347623,0.0819372742616769,-26.1,29.55,11.4,-671.38672,57.12891,776.85547,0.1224395594163826,0.0534257501340228,-0.0707458740320389,93.9,6.6,66.0,-1017.08984,62.01172,-129.39453,0.0867336135790826,0.0027979373238721,0.0612863640191548,52.35,22.2,-17.1
-614.25781,80.07813,-774.90234,-0.0262466103573411,0.0695466583029936,-0.0106585512090041,-23.7,32.1,10.35,-661.13281,48.82813,776.85547,0.1111148160318922,0.0305099261211876,-0.0535589187559499,92.55,5.7,64.95,-998.04687,56.64063,-151.85547,0.0730107878023519,-0.0081271256619115,0.0760750623700784,51.45,21.6,-15.6
-619.62891,72.26563,-757.8125,0.0191853572696224,0.0399694361340717,0.0054625314928918,-24.75,31.8,11.4,-642.08984,75.19531,782.71484,0.0888651841945432,0.0297105653237742,-0.0943277156874351,92.55,5.7,64.95,-997.07031,72.75391,-145.50781,0.0728774446474996,-0.0154548905264097,0.0936615235119489,50.85,22.2,-17.1
-613.76953,72.75391,-770.01953,0.0287778613715085,0.0655498543159266,0.0207840788644492,-25.2,31.2,13.35,-642.57812,62.01172,791.50391,0.0820704428836041,0.0652833425391471,-0.0863337586474507,92.55,4.95,65.7,-997.55859,67.87109,-124.02344,0.0991240550048407,0.0099923590335179,0.0644839817417337,49.8,22.2,-17.1
-626.46484,64.45313,-770.01953,0.0182526533173567,0.0835359958565038,-0.0399694361340717,-25.2,31.2,13.35,-651.36719,67.38281,785.15625,0.0768744231674918,0.050228132411444,-0.0639509581881746,93.9,4.65,64.95,-980.95703,62.5,-138.67187,0.0937948666668012,-0.0282450123508746,0.0936615235119489,49.8,22.2,-17.1
-615.23437,83.98438,-761.23047,0.0025314255470925,0.077007591789419,0.0307764378979672,-26.1,31.05,10.8,-635.25391,65.42969,782.22656,0.0702128504784798,0.039569755735365,-0.0543582795533633,92.1,6.6,66.0,-970.70312,45.41016,-145.01953,0.0871332939777893,0.0007993607974134,0.0949939078629213,51.6,21.75,-18.6
-608.88672,63.47656,-755.85937,0.0448989440734045,0.0760750623700784,0.0270459711547545,-25.65,31.2,10.65,-633.30078,52.73438,790.52734,0.0811377389313384,0.0321086477160144,-0.0181194846954295,92.1,3.9,64.95,-991.69922,49.31641,-148.4375,0.0917962901403425,-0.0246477142295891,0.1091164140383586,51.6,22.5,-17.55
-611.81641,74.21875,-769.04297,-0.0343737360192527,0.0784731447623186,0.0137228257767306,-25.2,30.45,10.2,-637.69531,50.78125,781.73828,0.0566231933236764,-0.0009327039522657,-0.0241148652089552,93.6,6.6,66.0,-987.30469,49.80469,-131.34766,0.0326416712695735,0.0397029243572922,0.0622190679714206,51.6,21.75,-17.85
-628.41797,70.3125,-777.83203,-0.0027979373238721,0.0767412545455646,-0.0227824808579827,-25.2,30.45,10.2,-628.90625,39.55078,795.89844,0.0528927265804637,0.0179861415405771,-0.0333078634450597,93.75,3.75,65.1,-987.30469,41.99219,-151.36719,0.068614128883653,0.050761155965003,0.0618192130397887,51.0,22.35,-17.4
-616.21094,73.24219,-778.80859,0.0406354537766327,0.0117244237831971,0.0005328490206338,-25.35,29.85,10.8,-639.64844,41.50391,783.69141,0.0520933657830503,0.0197182062902563,-0.0594211306475485,93.75,3.75,65.1,-981.44531,31.25,-141.11328,0.0503614755662963,0.0069280844657914,0.0238483534321757,49.8,21.0,-16.5
-622.55859,82.51953,-771.97266,0.0158545709251164,0.0546247913301429,0.0175864611418704,-25.2,31.65,11.55,-634.76562,47.36328,796.38672,0.055823832526263,0.0119907610270514,-0.0359724576140795,93.75,3.75,65.1,-992.67578,74.70703,-133.30078,0.0935283548900217,0.0447657754514773,-0.0555574952824086,50.7,22.65,-17.4
-624.51172,68.84766,-775.39062,-0.0093261668580317,0.0555574952824086,0.0119907610270514,-25.95,32.4,10.2,-632.32422,55.66406,786.13281,0.0504946441882235,0.0218499514386422,-0.0117244237831971,92.85,4.95,66.0,-980.95703,64.45313,-131.83594,0.0671485759107534,-0.0019984019935335,0.0871332939777893,50.7,22.65,-17.4
-625.0,76.66016,-777.83203,0.0699463387017003,-0.0222496318373489,-0.0026645941690197,-24.3,31.8,12.45,-637.20703,53.22266,781.73828,0.039569755735365,0.0337075438437664,-0.0393032439585855,92.85,4.65,64.95,-986.32812,72.75391,-140.13672,0.059687642424328,0.0199847180670358,0.0471638578437175,50.7,22.35,-16.65
-632.32422,70.3125,-772.94922,0.0157212277702641,0.0173201238980161,-0.007860613885132,-24.3,31.8,12.45,-641.60156,68.84766,792.48047,0.0343737360192527,0.0277121633302407,-0.0307764378979672,93.3,3.45,66.0,-979.49219,71.28906,-134.27734,0.0694134896810664,0.0153215473715574,0.0286446927495813,50.7,22.35,-16.65
-629.88281,74.21875,-773.92578,-0.0142556747973644,0.0193185258915496,0.0584886012282079,-26.1,31.05,12.15,-633.78906,68.84766,802.73437,0.0118575924051242,0.0307764378979672,-0.0470306892217904,93.3,3.45,66.0,-995.11719,71.77734,-124.51172,0.08420218803199,0.0118575924051242,0.0991240550048407,50.7,22.35,-16.65
-625.48828,87.40234,-770.50781,0.0427671989250186,-0.0707458740320389,0.0383705400063197,-26.1,30.3,10.8,-638.18359,77.63672,779.78516,0.0155880591483369,0.0727442760255724,-0.0664823837352672,93.0,4.05,65.55,-985.83984,71.77734,-122.55859,0.036238969390859,-0.0159877395470436,-0.0149218669728507,51.75,21.6,-17.4
-618.16406,76.66016,-776.36719,0.0083936374386911,-0.0093261668580317,0.0266462907560478,-25.95,31.65,9.9,-640.625,65.91797,793.45703,-0.0119907610270514,0.0361056262360067,-0.0041301471419193,93.3,5.7,65.7,-993.65234,62.5,-130.37109,0.0195850376683291,0.0001331686219271,0.0731439564242791,49.65,22.65,-18.45
-625.97656,72.26563,-770.99609,0.0081271256619115,0.0269126279999021,-0.0217166082837898,-25.95,31.65,9.9,-637.69531,70.80078,793.45703,0.0001331686219271,0.0608866836204481,0.0095926786348112,93.3,5.7,65.7,-1003.41797,68.35938,-138.18359,0.0177198042967228,0.0913966097416358,-0.0263797789792682,52.95,22.95,-16.5
-621.09375,76.66016,-779.78516,0.0503614755662963,-0.0075941021083525,0.0186523337160634,-25.35,31.35,10.35,-651.36719,57.12891,767.57812,-0.0207840788644492,0.0293108849250675,-0.0230489926347623,92.55,3.9,64.65,-999.51172,56.15234,-141.60156,0.0398360929792193,0.023981696587028,-0.0098591904115907,49.95,21.6,-17.7
-627.44141,77.63672,-759.76562,0.0387702204050264,0.0041301471419193,-0.0640843013430269,-26.25,30.15,10.95,-635.25391,67.87109,785.15625,-0.0255804181818548,0.0594211306475485,-0.0263797789792682,92.85,4.65,65.25,-992.67578,61.52344,-132.32422,0.0559571756811154,0.0350397536618137,0.040235773377926,50.7,21.9,-17.7
-614.74609,73.24219,-760.25391,0.0129234649793172,0.0177198042967228,-0.0371714988101996,-25.65,30.9,11.25,-639.64844,45.89844,780.76172,-0.0230489926347623,0.0,0.0046631706954784,92.1,3.9,65.25,-985.83984,56.64063,-132.32422,0.0326416712695735,0.070346019100407,0.0067947413109391,49.65,22.65,-18.0
-616.21094,73.24219,-767.57812,0.0957932686603347,-0.0556906639043358,-0.0143890179522168,-24.9,31.65,12.6,-645.99609,39.55078,769.04297,-0.0431668793237253,-0.0114579120064175,-0.0130566336012443,92.1,3.9,65.25,-998.53516,57.61719,-136.23047,0.032375159492794,0.0486294108166172,-0.0038636353651398,49.65,22.65,-18.0
-614.74609,83.98438,-770.99609,0.0009327039522657,0.0393032439585855,-0.0794058487145844,-24.9,31.65,12.6,-658.69141,23.92578,783.20312,-0.0222496318373489,0.0563568560798221,-0.0118575924051242,93.75,4.5,65.55,-986.81641,68.35938,-132.32422,0.0527595579585365,0.1224395594163826,0.0374380105869791,49.8,21.0,-18.9
-623.04687,81.05469,-770.50781,-0.0109248884528585,0.0194516945134768,-0.0295773967018471,-27.0,31.95,12.0,-652.34375,39.0625,775.87891,0.0074609334864253,0.0110582316077108,-0.063684446411395,94.2,4.8,65.1,-989.74609,59.57031,-125.97656,0.0122572728038309,0.1019218177957876,0.0242480338308824,49.8,21.0,-18.9
-608.88672,84.96094,-773.4375,0.007860613885132,-0.0405022851547056,-0.0185191650941362,-26.25,31.65,10.65,-644.53125,46.38672,773.92578,-0.005595700114819,0.0579555776746489,0.0338407124656936,93.6,4.65,64.95,-986.32812,48.33984,-153.32031,0.0185191650941362,0.0803383781339249,0.020117886688963,50.7,21.6,-17.7
-627.92969,90.82031,-766.11328,-0.0043966589186989,0.0198513749121835,-0.0314426300734534,-25.95,30.45,10.65,-669.43359,59.57031,785.15625,-0.0210505906412288,0.069680001457846,-0.023448673033469,93.9,4.2,66.0,-997.07031,63.47656,-147.46094,0.0378376909856858,0.0317089673173077,-0.0269126279999021,51.6,22.95,-18.6
-604.49219,91.79688,-769.53125,-0.0034639549664331,0.0229158240128351,-0.0458314734927451,-25.95,30.45,10.65,-660.15625,41.50391,783.20312,-0.0279785005740951,0.0274456515534612,-0.0174532925199432,94.2,4.8,64.35,-976.5625,74.21875,-125.97656,0.0310429496747467,-0.0006661921754862,0.0143890179522168,50.25,22.65,-16.95
-616.21094,71.77734,-789.0625,0.0389035635598788,0.0011990411961201,-0.0480965617959833,-25.95,30.9,13.05,-646.97266,34.17969,784.66797,-0.0564900247017492,0.0275788201753884,-0.0405022851547056,91.65,4.8,65.55,-1005.37109,58.10547,-128.90625,0.0135896571548034,0.0422343499043847,0.0302434143444081,50.55,23.25,-17.55
-621.58203,74.21875,-792.48047,0.0039969785199922,0.0397029243572922,-0.070346019100407,-25.2,30.45,10.65,-668.94531,29.29688,790.03906,-0.0367718184114929,0.041301645952119,-0.0515605167624164,91.65,4.8,65.55,-1008.30078,72.26563,-136.23047,-0.0071944217096458,-0.0043966589186989,0.0057288687367461,51.9,23.25,-17.85
-629.88281,70.3125,-780.76172,-0.0077274452632048,0.0818039311068246,-0.0814042507081179,-25.2,30.9,12.0,-662.10937,48.33984,790.52734,-0.0885988469506889,0.0486294108166172,-0.0772741035661985,92.85,5.4,63.9,-1007.32422,68.84766,-125.0,-0.0095926786348112,0.0582220894514284,0.0146553551960711,52.35,22.5,-18.9
-635.25391,78.125,-794.92187,0.06634921511334,0.0081271256619115,-0.0330413516682802,-25.95,30.15,10.65,-640.13672,59.08203,786.13281,-0.0603538345998143,0.0058622118915985,-0.0460979852695246,92.7,5.25,65.55,-1010.25391,65.42969,-115.72266,-0.0229158240128351,0.023448673033469,-0.0369049870334201,52.35,22.5,-18.9
-621.58203,74.21875,-788.57422,0.0662158719584876,0.0482297304179105,-0.0301102457224809,-27.3,31.65,12.3,-637.69531,52.73438,778.32031,-0.0556906639043358,-0.0142556747973644,-0.020117886688963,92.85,5.4,66.75,-1013.18359,46.875,-124.02344,-0.0037304667432126,0.0343737360192527,0.0191853572696224,50.85,21.75,-17.55
-626.46484,84.96094,-770.99609,-0.0001331686219271,0.0422343499043847,-0.0806048899107045,-27.0,30.45,10.95,-666.50391,44.43359,776.36719,-0.0526263893366094,0.0089264864593249,-0.0995237354035474,92.85,5.4,66.75,-1020.01953,62.01172,-148.92578,-0.0154548905264097,-0.0289112045263608,0.014522186574144,50.25,23.1,-17.7
-619.62891,94.72656,-786.62109,0.0674150876875329,-0.0448989440734045,-0.0560903443030425,-25.2,30.15,11.25,-658.20312,42.48047,763.67187,-0.0584886012282079,0.0178529729186499,0.0043966589186989,94.2,5.55,66.6,-1018.55469,54.6875,-126.95313,-0.0125237845806105,-0.018385996472209,-0.0258469299586344,50.85,21.45,-17.1
-604.98047,88.37891,-768.06641,0.0452986244721112,-0.0074609334864253,-0.0514271736075641,-25.2,30.45,10.95,-646.48437,44.43359,770.50781,-0.1157779867273706,0.0354394340605204,-0.0235820161883213,92.7,4.8,65.85,-1012.69531,57.12891,-129.88281,-0.0174532925199432,-0.0426340303030914,0.0041301471419193,50.7,21.9,-18.45
-638.18359,87.40234,-779.78516,0.0305099261211876,0.0658161915597809,-0.1241714496331365,-25.2,30.45,10.95,-664.0625,30.76172,772.46094,-0.1063184767144865,0.0342403928644003,-0.0358392889921523,92.7,4.8,65.85,-1000.0,60.54688,-140.625,-0.0656830229378538,0.0065284040670847,0.0081271256619115,50.55,21.45,-18.15
-625.0,78.125,-785.64453,0.06634921511334,-0.0283781809728018,-0.0560903443030425,-25.2,30.45,10.95,-660.15625,43.94531,785.64453,-0.0714118916745999,0.0237151848102485,-0.0423675185263119,94.5,5.25,65.55,-990.23437,63.96484,-121.58203,-0.0877993116203503,-0.0027979373238721,-0.0029311059457992,50.25,21.9,-18.45
-617.67578,73.73047,-768.06641,0.0666155523571943,-0.0123904414257581,-0.1047197551196597,-24.9,31.95,9.6,-646.48437,53.22266,766.60156,-0.0819372742616769,0.0083936374386911,0.0106585512090041,93.45,4.05,65.55,-988.76953,71.28906,-134.76562,-0.0480965617959833,0.0017320647496791,-0.0341072242424731,50.25,21.9,-18.45
-608.39844,81.05469,-779.78516,0.0450321126953316,0.036238969390859,-0.0899310567687362,-26.1,30.3,11.1,-639.64844,47.85156,778.32031,-0.0779402957416847,0.0377045223637587,-0.0516936853843436,93.45,3.75,65.85,-1006.34766,60.54688,-122.55859,-0.067015232755901,0.0279785005740951,0.0013323843509724,50.25,21.9,-18.45
-613.76953,71.77734,-773.4375,0.0830031468358699,0.0023980823922402,-0.1144456023763981,-25.65,32.7,9.6,-637.20703,40.52734,774.41406,-0.1215068554641168,0.0085268060606182,-0.0387702204050264,93.45,3.75,65.85,-982.42187,38.08594,-137.20703,-0.0564900247017492,0.0023980823922402,-0.0253139064050753,50.7,22.35,-16.95
-618.16406,95.21484,-768.06641,0.0727442760255724,-0.0171867807431637,-0.06634921511334,-25.65,32.7,9.6,-645.99609,22.94922,792.48047,-0.0929953313364626,0.0107917198309313,-0.0230489926347623,93.3,2.4,64.2,-982.91016,61.52344,-156.73828,0.0042633157638465,0.0174532925199432,-0.0285115241276541,50.7,22.35,-16.95
-614.74609,85.9375,-766.11328,0.0130566336012443,0.0358392889921523,-0.0782068075184643,-23.25,30.3,12.15,-660.15625,22.46094,803.71094,-0.1097826062138449,-0.0063950609122324,-0.0643506385868813,93.45,3.3,65.55,-993.16406,44.43359,-138.18359,-0.0490290912153239,0.0261132672024887,-0.0213169278850831,51.45,24.15,-16.95
-599.12109,67.87109,-765.13672,0.0579555776746489,0.0311761182966739,-0.0467641774450108,-25.8,30.3,12.15,-638.67187,-2.44141,780.27344,-0.1408253813556664,-0.0241148652089552,-0.0238483534321757,93.45,3.0,65.1,-1004.39453,24.41406,-132.8125,-0.0046631706954784,-0.0010658725741929,-0.014522186574144,51.0,22.65,-19.05
-597.16797,70.3125,-756.34766,0.0490290912153239,0.0129234649793172,-0.0436999028772844,-26.1,30.3,11.1,-641.60156,3.41797,768.55469,-0.1305666850782942,0.0019984019935335,-0.0983246942074273,92.85,3.45,65.7,-971.19141,37.10938,-156.25,0.0406354537766327,0.0230489926347623,-0.0620857248165682,49.65,21.6,-17.4
-604.49219,51.75781,-757.8125,0.061419532641082,0.0270459711547545,-0.0815375938629702,-26.25,29.4,10.65,-632.8125,10.74219,767.08984,-0.1060521394706322,-0.0345069046411798,-0.0952604196397009,93.75,3.3,65.55,-979.98047,17.08984,-159.66797,0.0322419908708668,0.0723445956268657,-0.0070612530877186,52.35,21.0,-17.1
-633.30078,52.24609,-769.04297,0.0603538345998143,0.0005328490206338,-0.0367718184114929,-26.25,29.4,10.65,-644.04297,-9.27734,772.46094,-0.10205516095064,-0.0177198042967228,-0.1041869060990259,93.9,3.15,64.95,-975.09766,28.32031,-136.71875,0.0163874199457503,0.1129800494034985,0.0102588708102974,51.0,21.6,-17.7
-625.97656,60.54688,-770.01953,0.1121806886060851,0.0219831200605693,-0.0746095093971788,-25.2,30.9,12.3,-633.78906,5.37109,759.27734,-0.1361623851931132,-0.004529827540626,-0.1305666850782942,93.9,3.15,64.95,-988.76953,49.31641,-145.50781,0.0787396565390981,0.0794058487145844,-0.0213169278850831,51.6,22.5,-18.6
-636.71875,52.24609,-786.62109,0.0919296332951949,0.0712787230526728,-0.1381607871866467,-26.85,30.6,10.35,-637.20703,-11.23047,770.50781,-0.1003230962009608,-0.0370383301882724,-0.1803951370910315,93.9,3.15,64.95,-974.12109,51.26953,-158.69141,0.1111148160318922,0.1303001733015146,-0.027312482931534,51.6,22.5,-18.6
-649.41406,45.41016,-780.76172,0.1414915735311527,0.0097258472567384,-0.0492956029921034,-26.4,31.35,11.4,-646.48437,-4.39453,772.94922,-0.0522267089379027,-0.0121241041819038,-0.1091164140383586,94.8,3.0,65.1,-993.65234,38.57422,-161.62109,0.0852680606061829,0.0840688448771376,0.0318423104721601,51.15,22.5,-16.05
-625.48828,47.36328,-781.73828,0.1636080367465744,0.0191853572696224,-0.1149786259299572,-26.4,31.35,11.4,-653.32031,36.62109,735.83984,0.0301102457224809,-0.0226493122360556,-0.175731966395553,92.55,3.45,66.3,-976.5625,32.22656,-142.57812,0.1019218177957876,0.1160443239712249,-0.0107917198309313,51.15,22.5,-16.05
-623.53516,41.99219,-784.17969,0.1281684281531288,0.0711455544307456,-0.0997902471803269,-26.1,31.35,11.1,-697.26562,-71.77734,765.13672,-0.0095926786348112,0.0106585512090041,-0.2102388710367329,92.55,4.95,65.7,-962.89062,57.12891,-138.67187,0.1505512286124048,0.0848683802074762,-0.0377045223637587,51.0,21.9,-17.7
-615.72266,51.26953,-769.04297,0.1416247421530798,0.0238483534321757,-0.0482297304179105,-26.7,30.45,10.65,-651.85547,-30.27344,789.0625,0.027312482931534,0.0255804181818548,-0.1987809590303153,92.55,4.95,65.7,-988.28125,69.33594,-154.29687,0.1417580853079322,0.0487625794385443,-0.0321086477160144,50.25,23.4,-17.7
-602.53906,49.31641,-762.69531,0.1436233186795386,0.0270459711547545,-0.1088499022615791,-24.15,29.4,10.65,-659.17969,-38.57422,785.15625,-0.0105252080541518,0.0417013263508257,-0.2011792159554807,92.85,3.45,65.25,-989.74609,47.36328,-152.83203,0.1445558480988791,0.1064518198693389,0.0087933178373978,50.85,21.75,-18.6
-600.58594,24.90234,-788.08594,0.1117810082073784,0.0899310567687362,-0.0939280352887284,-27.0,30.45,10.2,-671.38672,-28.32031,790.52734,0.0235820161883213,0.0207840788644492,-0.2215636144212233,93.75,1.5,64.8,-997.07031,49.31641,-125.97656,0.1630750131930153,0.059687642424328,-0.0118575924051242,50.7,21.15,-16.95
-613.76953,26.36719,-787.59766,0.2099723592599534,0.0546247913301429,-0.1000565844241813,-27.0,30.45,10.2,-661.62109,-32.71484,786.62109,0.0355727772153728,0.0069280844657914,-0.2416815011101863,93.75,1.5,64.8,-1010.25391,62.98828,-150.87891,0.1966493884148547,0.0622190679714206,0.0094593354799588,49.95,21.9,-16.2
-615.23437,16.11328,-775.87891,0.2592679622520568,0.0631515973907612,-0.0628850856139816,-25.8,31.35,10.8,-666.50391,-18.55469,783.69141,0.0106585512090041,-0.0001331686219271,-0.2075742768677131,94.8,2.55,65.1,-999.51172,63.47656,-143.06641,0.228624867508942,0.0353062654385932,0.032908183046353,51.6,22.95,-18.6
-609.86328,11.71875,-789.0625,0.2061087238948135,0.1271025555789358,-0.1116478395854512,-25.35,29.85,10.35,-668.94531,-17.08984,774.41406,0.0405022851547056,0.0178529729186499,-0.2532725817385311,93.45,3.0,65.85,-1010.74219,58.59375,-114.25781,0.2005130237799945,0.0499617951675896,0.0744763407752516,51.6,22.95,-18.6
-619.14062,12.20703,-782.71484,0.2328881832727885,0.1064518198693389,-0.0570230482553083,-24.9,30.15,9.6,-669.43359,-13.18359,796.875,0.0349065850398865,-0.0049295079393327,-0.235952457840515,93.3,0.9,65.25,-999.51172,71.28906,-129.39453,0.182393539084565,0.0221164632154217,0.0047963393174056,50.7,20.85,-19.05
-601.5625,9.27734,-782.22656,0.2888453589539039,0.0474303696204971,-0.0357059458372999,-24.9,30.15,9.6,-659.66797,8.78906,822.26562,0.0343737360192527,0.0129234649793172,-0.2045100022999867,93.3,0.9,65.25,-997.07031,80.56641,-130.37109,0.1777305429220118,0.0640843013430269,0.0640843013430269,50.7,20.1,-17.7
-613.28125,13.18359,-787.10937,0.2380842029889009,0.1350965126189202,-0.0572893854991626,-26.25,29.4,9.9,-645.50781,-1.95312,814.45312,0.0094593354799588,-0.0579555776746489,-0.2031776179490143,93.0,1.05,66.15,-1003.41797,69.82422,-131.34766,0.1326982556937548,0.0522267089379027,0.0479632186411309,50.25,21.9,-18.45
-602.05078,-0.48828,-784.66797,0.2608666838468836,0.0767412545455646,0.0017320647496791,-25.65,30.45,9.9,-652.34375,-7.32422,796.875,0.0141225061754373,-0.0881991665519822,-0.2109050632122192,92.85,2.4,66.3,-1017.57812,87.89063,-119.14063,0.1151117945518844,0.054091942309509,0.0365053066347134,51.75,21.15,-17.4
-609.375,3.41797,-791.01562,0.3117610084338139,0.0911300979648563,-0.0238483534321757,-26.85,28.8,11.4,-655.27344,-0.48828,805.17578,0.077007591789419,-0.0446324322966249,-0.2232955046379773,93.3,1.65,65.7,-976.5625,104.98047,-123.53516,0.103787051167394,0.0371714988101996,0.0294440535469947,51.75,21.15,-17.4
-613.28125,-5.37109,-788.08594,0.2518070287656315,0.1392266597608396,-0.0963261176809686,-26.7,27.9,11.55,-647.46094,-3.41797,800.29297,0.0075941021083525,-0.0575558972759422,-0.2198315496715442,92.85,1.65,65.7,-984.86328,92.77344,-139.64844,0.1015221373970809,0.0478300500192038,0.0373046674321268,49.65,21.15,-17.7
-601.5625,-14.16016,-781.25,0.3274824107370032,0.1052526041402936,-0.0754088701945922,-26.7,27.9,11.55,-636.71875,-6.34766,787.10937,0.007860613885132,-0.0624854052152749,-0.1893216235503565,94.35,1.2,64.95,-991.21094,69.33594,-142.57812,0.0716784034513795,0.0237151848102485,0.0013323843509724,50.7,21.15,-18.0
-596.67969,-14.64844,-781.25,0.3109616476364005,0.0459648166475974,-0.0438330714992115,-26.7,28.95,9.9,-648.4375,-16.11328,793.45703,0.0528927265804637,-0.0514271736075641,-0.1954501726858094,93.3,1.2,65.25,-979.98047,66.40625,-129.39453,0.0624854052152749,0.0738101485997654,0.0209172474863764,50.7,21.15,-18.0
-598.14453,-1.46484,-779.78516,0.2816509372442581,0.0664823837352672,-0.1016554805519333,-26.4,29.25,10.8,-640.13672,-14.16016,790.03906,0.0500949637895168,-0.0317089673173077,-0.1588116974291688,93.3,1.2,65.25,-974.12109,60.54688,-132.8125,0.016787100344457,0.0394364125805126,0.0141225061754373,50.85,20.7,-17.85
-593.26172,-28.80859,-772.46094,0.3420045973111472,0.0867336135790826,-0.0750091897958855,-25.8,27.75,10.05,-630.37109,-9.76562,783.69141,0.0038636353651398,-0.0960597804371143,-0.1492190187943576,94.5,1.8,66.15,-990.72266,54.6875,-149.41406,0.0286446927495813,-0.0041301471419193,0.0330413516682802,50.85,20.7,-17.85
-588.37891,-33.69141,-783.20312,0.3174900517034853,0.0604870032217414,-0.0434333911005048,-25.8,27.75,10.05,-636.71875,-12.69531,791.01562,0.0098591904115907,-0.0302434143444081,-0.2037106415025733,94.5,1.05,65.85,-965.33203,46.38672,-150.87891,0.0009327039522657,0.0263797789792682,-0.0386370517830992,51.45,21.6,-18.0
-583.98437,-28.32031,-787.10937,0.3278820911357099,0.0782068075184643,-0.1183094122744632,-26.25,27.9,10.95,-627.92969,-21.97266,789.55078,-0.0030642745677264,-0.1059187963157798,-0.1384272989634262,92.85,0.9,65.25,-951.66016,49.80469,-146.97266,0.041834669505678,0.0250473946282958,-0.016787100344457,52.35,21.45,-17.55
-590.82031,-40.52734,-787.10937,0.278852999920386,0.0662158719584876,-0.073676805444913,-26.4,27.75,9.75,-608.88672,-7.32422,791.99219,-0.0389035635598788,-0.0464976656682313,-0.1762649899491121,92.85,0.9,65.25,-949.21875,44.43359,-156.73828,0.068614128883653,-0.0157212277702641,0.0177198042967228,51.6,21.45,-17.85
-609.86328,-41.50391,-777.34375,0.3501317229730588,-0.0130566336012443,-0.0783399761403914,-26.85,27.3,11.85,-614.74609,-19.04297,799.80469,-0.0407687969314851,-0.0939280352887284,-0.1364287224369675,94.2,1.5,64.8,-947.75391,51.75781,-162.59766,0.0590214502488418,0.0237151848102485,-0.0391699008037331,49.35,21.75,-18.6
-605.95703,-40.52734,-785.64453,0.2510076679682181,0.0319754790940873,-0.0730107878023519,-24.9,27.9,10.2,-620.60547,-21.97266,777.34375,-0.0023980823922402,-0.0984578628293545,-0.1605435876459228,93.6,1.65,65.7,-956.54297,54.6875,-182.12891,0.0503614755662963,0.0623522365933478,-0.0466310088230837,49.2,20.85,-18.0
-604.00391,-52.24609,-795.89844,0.2957734434196954,0.0154548905264097,-0.0780734643636119,-24.9,27.9,10.2,-630.85937,-19.04297,782.22656,-0.0687472975055802,-0.0839356762552105,-0.1295008125041012,93.6,1.65,65.7,-950.68359,52.24609,-171.875,0.0494287716140306,0.0877993116203503,-0.0616860444178615,49.8,20.7,-19.65
-597.65625,-35.15625,-782.22656,0.3210873498247708,-0.0414349891069713,-0.0691469779042869,-24.9,27.9,10.2,-634.76562,-23.92578,791.50391,-0.0287778613715085,-0.0319754790940873,-0.1129800494034985,93.75,0.75,66.15,-977.53906,62.5,-172.36328,0.0595542992694757,0.0852680606061829,-0.0867336135790826,49.8,20.7,-19.65
-599.60937,-50.78125,-784.17969,0.2693934899075019,-0.023448673033469,-0.0514271736075641,-26.7,27.45,8.85,-640.13672,-26.36719,796.38672,-0.023448673033469,-0.0530260697353161,-0.103787051167394,93.45,0.0,66.15,-976.07422,64.94141,-179.19922,0.0335742006889141,0.1145789455312505,-0.1235054319905755,50.85,20.7,-18.9
-599.60937,-67.38281,-806.15234,0.213036808360605,-0.0381042027624654,-0.0624854052152749,-25.95,27.15,10.2,-635.74219,-22.46094,778.32031,-0.0126569532025376,-0.0622190679714206,-0.068614128883653,92.7,1.05,65.85,-993.16406,51.75781,-179.19922,0.0387702204050264,0.0844685252758443,-0.0743429976203992,51.6,19.95,-18.15
-615.72266,-66.89453,-800.29297,0.240882140312773,-0.023981696587028,0.0270459711547545,-26.4,26.55,9.75,-636.23047,-34.66797,778.80859,-0.0047963393174056,-0.0433002224785777,-0.1027213531261262,92.7,1.05,65.85,-1007.8125,62.5,-183.59375,0.0123904414257581,0.1083170532409452,-0.0824701232823108,50.55,20.7,-18.6
-600.58594,-63.47656,-803.22266,0.2165007633270382,-0.0385038831611721,-0.0592879620256213,-26.4,26.55,9.75,-640.625,-23.92578,783.69141,0.0007993607974134,-0.0293108849250675,-0.1153783063286639,93.6,0.9,65.25,-989.25781,72.26563,-182.12891,0.0154548905264097,0.1172435397002702,-0.0820704428836041,49.65,20.85,-18.0
-609.86328,-62.5,-820.80078,0.2162342515502586,0.0037304667432126,-0.071944915228159,-27.3,26.4,9.15,-655.27344,-17.57813,791.01562,-0.0130566336012443,0.0086599746825454,-0.1081837100860929,93.45,0.0,65.85,-1007.32422,49.31641,-171.875,0.0430337107017981,0.0764747427687851,-0.0186523337160634,50.85,21.45,-17.85
-605.95703,-80.07813,-812.5,0.2940413786700163,-0.0755420388165193,0.0199847180670358,-26.25,25.35,10.2,-666.50391,-25.87891,775.39062,-0.0254472495599277,0.0093261668580317,-0.1028545217480534,92.55,-0.15,67.8,-983.39844,54.6875,-176.75781,-0.0053291883380394,0.0628850856139816,-0.1183094122744632,50.85,20.25,-18.6
-608.39844,-75.68359,-805.66406,0.1907871765232561,-0.0169204434993094,0.0014655529728996,-24.9,27.9,8.55,-660.15625,-21.48438,799.31641,-0.0227824808579827,0.0261132672024887,-0.0834028272345766,94.35,-0.15,67.8,-1012.20703,45.41016,-163.57422,-0.0209172474863764,0.0766079113907123,-0.0912634411197086,50.85,20.25,-18.6
-614.74609,-69.33594,-810.54687,0.1891882803955041,-0.0126569532025376,-0.0283781809728018,-25.05,28.05,8.7,-666.99219,-25.87891,768.06641,-0.0293108849250675,0.0269126279999021,-0.0660827033365605,94.35,1.65,67.05,-988.28125,45.89844,-167.96875,-0.0269126279999021,-0.0258469299586344,-0.0968591412345277,50.25,21.15,-18.0
-612.79297,-59.08203,-805.17578,0.213036808360605,-0.0575558972759422,0.0258469299586344,-25.05,28.05,8.7,-659.17969,-25.39063,771.48437,-0.0265129476011954,0.0123904414257581,-0.0530260697353161,93.6,-0.9,65.25,-973.63281,51.26953,-152.83203,-0.0259800985805615,-0.0417013263508257,-0.0479632186411309,50.25,21.15,-18.0
-602.53906,-61.52344,-798.33984,0.1285681085518354,-0.0325085026476463,0.0127901218244648,-25.35,25.8,10.05,-654.78516,-33.69141,771.97266,0.0222496318373489,-0.0270459711547545,-0.0347734164179594,92.7,0.75,66.6,-1000.97656,51.75781,-181.64062,-0.0221164632154217,0.0062618922903052,-0.1237717692344298,49.35,20.7,-18.15
-609.86328,-72.26563,-801.26953,0.1546815502872494,-0.0161209081689708,-0.0133231453780239,-25.65,26.7,10.65,-611.81641,-16.60156,810.05859,0.0114579120064175,0.2460781600288853,-0.0033307863445059,92.7,0.75,66.6,-985.83984,41.50391,-163.57422,0.0046631706954784,-0.0157212277702641,-0.077540615342978,51.0,21.15,-17.7
-599.12109,-65.42969,-799.31641,0.1692037368613934,-0.032375159492794,0.0732771250462063,-26.1,26.25,9.75,-671.38672,-14.64844,742.67578,0.025713586803782,-0.0283781809728018,-0.05475795995207,93.0,-0.3,66.15,-1000.0,56.64063,-156.25,-0.0213169278850831,-0.0217166082837898,-0.0409019655534123,51.0,21.15,-17.7
-614.74609,-59.57031,-785.64453,0.110981647409965,-0.0118575924051242,0.0470306892217904,-26.1,26.25,9.75,-645.01953,-9.27734,784.66797,0.0218499514386422,-0.0074609334864253,0.0047963393174056,94.5,-1.05,66.6,-979.98047,46.875,-173.82812,-0.0251807377831481,-0.0564900247017492,-0.0425006871482391,50.1,20.25,-17.85
-590.33203,-59.08203,-770.50781,0.0623522365933478,0.0091929982361045,0.0077274452632048,-27.3,25.35,9.9,-649.90234,-10.74219,790.52734,-0.0436999028772844,0.0492956029921034,-0.0218499514386422,93.6,-0.15,66.0,-985.83984,59.57031,-162.10937,-0.0407687969314851,-0.0415681577288985,-0.1047197551196597,50.55,20.25,-19.2
-599.60937,-63.96484,-790.52734,0.1386936362072806,-0.0143890179522168,0.0002665117767795,-25.65,26.4,8.1,-650.39062,-9.76562,800.78125,-0.0063950609122324,0.014522186574144,-0.0014655529728996,93.6,-0.15,66.0,-993.16406,50.29297,-161.13281,-0.0570230482553083,-0.0366386497895657,-0.1089830708835063,48.45,21.15,-17.4
-595.21484,-66.89453,-791.99219,0.0065284040670847,0.0278453319521679,0.0023980823922402,-26.1,26.55,9.75,-646.97266,-22.46094,792.48047,-0.0146553551960711,-0.0166539317225298,-0.0139893375535101,92.55,0.9,65.7,-990.72266,69.33594,-147.46094,-0.0149218669728507,-0.0361056262360067,-0.0936615235119489,49.95,20.85,-19.5
-601.07422,-56.64063,-791.99219,0.027312482931534,0.0351730968166661,-0.0414349891069713,-26.25,26.4,9.6,-649.90234,-24.90234,774.90234,0.0163874199457503,0.0102588708102974,-0.0153215473715574,94.35,0.15,65.25,-978.02734,60.05859,-162.10937,-0.0401026047559989,-0.0011990411961201,-0.0843353566539172,49.95,20.85,-19.5
-613.76953,-70.80078,-781.25,0.0627519169920545,-0.0229158240128351,0.0568897051004559,-26.25,26.4,9.6,-646.48437,-18.55469,795.89844,0.0041301471419193,0.0218499514386422,0.0054625314928918,94.35,0.15,65.25,-980.46875,62.5,-165.03906,-0.0592879620256213,-0.0095926786348112,-0.1007227765996675,49.95,19.35,-18.0
-604.98047,-86.42578,-793.94531,0.0074609334864253,0.0391699008037331,-0.0333078634450597,-25.8,26.25,9.0,-636.23047,-32.22656,800.78125,-0.0389035635598788,0.0103920394322246,0.0255804181818548,93.45,0.3,66.15,-987.30469,77.63672,-145.99609,-0.0462311538914518,0.0006661921754862,-0.0620857248165682,49.95,19.35,-18.0
-609.86328,-67.87109,-779.29687,0.0331745202902074,0.013456313999951,-0.0691469779042869,-24.9,25.65,9.6,-635.25391,-14.64844,811.03516,-0.0215834396618626,0.0075941021083525,0.0488959225933967,93.6,0.15,66.3,-989.25781,75.68359,-154.78516,-0.1370949146124538,-0.0095926786348112,-0.1676048407336414,50.1,19.95,-18.6
-618.16406,-68.84766,-784.17969,0.0365053066347134,-0.0327748398915007,-0.0409019655534123,-25.8,27.0,9.3,-638.18359,-23.92578,775.87891,0.0151883787496302,0.0110582316077108,-0.0121241041819038,94.2,0.75,67.2,-975.09766,62.01172,-171.38672,-0.1374945950111605,-0.0001331686219271,-0.1329647674705344,49.2,20.55,-18.45
-613.76953,-63.96484,-779.29687,-0.0337075438437664,-0.0191853572696224,-0.0302434143444081,-25.8,27.0,9.3,-634.76562,-12.20703,791.01562,-0.0439662401211387,0.0047963393174056,0.0818039311068246,94.2,0.75,67.2,-982.91016,42.48047,-152.83203,-0.1616094602201157,0.0053291883380394,-0.1674716721117143,50.25,20.55,-18.45
-603.02734,-75.68359,-767.08984,-0.0281118437289474,0.0209172474863764,-0.0727442760255724,-25.35,27.0,9.75,-617.1875,-23.4375,795.41016,-0.0691469779042869,-0.023981696587028,0.0896645449919567,92.7,-1.5,65.1,-984.375,61.52344,-132.32422,-0.1513507639427435,-0.0690138092823597,-0.1120475199841579,50.55,19.5,-18.9
-604.98047,-56.64063,-774.41406,0.0253139064050753,-0.0535589187559499,-0.0058622118915985,-27.0,26.1,9.15,-625.48828,-31.73828,788.57422,-0.0173201238980161,0.0017320647496791,0.0862005900255235,92.85,0.15,65.25,-987.79297,36.62109,-125.48828,-0.1145789455312505,-0.0115910806283447,-0.1413584049092255,51.0,20.1,-19.8
-609.86328,-44.92188,-772.94922,-0.0427671989250186,0.0359724576140795,-0.0151883787496302,-25.35,27.0,9.3,-613.28125,-39.0625,786.62109,-0.0658161915597809,0.0162542513238231,0.0611531953972277,94.2,0.75,65.55,-982.42187,40.52734,-138.18359,-0.1582786738756097,-0.0342403928644003,-0.1613431229762614,50.55,21.45,-17.55
-603.02734,-69.33594,-775.39062,-0.0672817445326806,0.0163874199457503,-0.0314426300734534,-26.4,25.8,9.0,-656.73828,-30.27344,772.46094,-0.0554241521275563,0.1905206647464766,0.1215068554641168,92.55,0.9,67.05,-983.88672,41.01563,-137.20703,-0.1426906147272728,0.0003996803987067,-0.11990813386929,50.55,21.45,-17.55
-610.83984,-80.07813,-782.71484,0.0091929982361045,-0.0326416712695735,0.0018652333716063,-26.4,25.8,9.0,-634.27734,-61.52344,797.36328,-0.0190520141147701,0.0210505906412288,0.0932618431132422,94.35,0.15,67.5,-972.16797,15.13672,-139.16016,-0.1526829737607907,-0.0343737360192527,-0.0960597804371143,49.8,18.75,-17.85
