IMU1_AccX,IMU1_AccY,IMU1_AccZ,IMU1_GyrX,IMU1_GyrY,IMU1_GyrZ,IMU1_MagX,IMU1_MagY,IMU1_MagZ,IMU2_AccX,IMU2_AccY,IMU2_AccZ,IMU2_GyrX,IMU2_GyrY,IMU2_GyrZ,IMU2_MagX,IMU2_MagY,IMU2_MagZ,IMU3_AccX,IMU3_AccY,IMU3_AccZ,IMU3_GyrX,IMU3_GyrY,IMU3_GyrZ,IMU3_MagX,IMU3_MagY,IMU3_MagZ
-0.007568359999999984,0.5187988299999999,0.3359375,0.500008660061949,0.5000063284766012,0.4999995336480239,-1.65,28.05,20.25,0.5520019549999999,0.578125,1.01171875,0.49999853444702713,0.5000525597177592,0.49991939511008926,60.15,8.25,93.3,0.09692383000000002,0.55517578,0.8161621099999999,0.5001020551609506,0.5001567465365917,0.5000087932305709,57.15,21.6,32.1
-0.00048827999999997475,0.5173339849999999,0.341552735,0.5000225827279251,0.4999946707243955,0.4999861439183349,-1.35,27.3,19.5,0.5573730450000001,0.5773925799999999,0.9982910150000001,0.4999887419281929,0.5000431002950128,0.4999567664490988,61.05,8.1,93.45,0.10986327999999998,0.560546875,0.8395996099999999,0.5000805383055997,0.5001209740064435,0.4999784831446491,56.25,19.2,30.15
0.0034179700000000254,0.5280761700000001,0.34765625,0.5000450987842727,0.49995743264127435,0.5000043299873413,-1.35,27.3,21.3,0.5598144549999999,0.5739746099999999,0.98486328,0.5000285781084386,0.500044166167587,0.4999221263758357,59.85,8.25,92.55,0.11279297000000002,0.5478515650000001,0.8249511700000001,0.5000614196199076,0.5000894647920591,0.500056156928614,57.45,20.1,29.25
0.0029296899999999935,0.5283203150000001,0.361083985,0.5000229824083238,0.4999762182308788,0.49998041504959817,-1.8,29.4,21.45,0.5651855450000001,0.5837402349999999,0.99609375,0.5000263797789792,0.5000952603323733,0.4999360490418118,59.85,8.25,92.55,0.115234375,0.5437011700000001,0.826660155,0.5000077940295742,0.5001150452102409,0.5000168537719218,56.55,19.95,29.1
0.017333984999999986,0.5393066400000001,0.36669922,0.5000212503435741,0.4999976018303413,0.49994137823014984,-1.5,26.7,19.95,0.5725097650000001,0.5866699200000001,0.9973144549999999,0.5000149218669728,0.5000624188209043,0.4999647603188724,61.8,7.35,93.45,0.11938476500000002,0.53564453,0.8112792950000001,0.5000010658725742,0.500116244251437,0.5000171201964322,57.6,18.75,29.1
0.02465820500000001,0.54345703,0.379882815,0.5000299769898341,0.499977284103453,0.4999756852945917,-1.5,26.7,19.95,0.5725097650000001,0.5859375,0.986816405,0.4999836791643652,0.5000452320401612,0.4999737534769091,61.5,7.35,92.4,0.13769531499999998,0.5322265650000001,0.8420410150000001,0.49995563399221365,0.5000981248540081,0.500009326166858,57.6,18.75,29.1
0.03051758000000001,0.545410155,0.38183594,0.5000031975304562,0.4999854111418484,0.49993618221043373,-2.7,28.8,19.8,0.5773925799999999,0.5832519549999999,0.9812011700000001,0.4999606967560414,0.5000770076790559,0.49999127335374005,62.7,7.5,92.55,0.12377929499999998,0.52001953,0.8371582049999999,0.4999481064744163,0.5000642840542759,0.49999034073705423,57.3,18.75,29.85
0.02807616999999999,0.5341796900000001,0.38305664,0.4999904739929426,0.5000093928384355,0.4999399793487544,-0.6,26.55,21.3,0.5778808599999999,0.564941405,0.978515625,0.4999326515838899,0.5000647504062521,0.49999067383314194,62.7,7.5,92.55,0.13525390499999998,0.5178222650000001,0.838867185,0.4999646937345614,0.500057489312965,0.5000211837592632,57.3,19.2,28.8
0.03125,0.5231933599999999,0.380126955,0.5000203843984657,0.5000225827279251,0.49993258499957893,-1.35,26.55,19.5,0.58154297,0.55419922,0.989746095,0.4999541684392408,0.5000647504062521,0.5000147886983509,60.9,8.55,91.8,0.13574218999999998,0.5041503900000001,0.8532714849999999,0.49994604131357884,0.5000516271010734,0.4999970023097432,57.9,20.1,30.0
0.01293945500000001,0.51098633,0.37451172,0.5000022649137703,0.5000697465857689,0.49993171896720406,-1.35,26.55,19.5,0.58642578,0.5510253900000001,0.993652345,0.49996322818158856,0.5000587549384721,0.5000183859092058,61.65,7.5,93.6,0.13037109500000002,0.50854492,0.8630371099999999,0.49996296175707816,0.5000469640176444,0.49997308728473366,57.45,20.1,27.9
0.013671875,0.51098633,0.376708985,0.5000106584639425,0.500068813969083,0.4999249242258932,-1.2,27.45,19.65,0.5861816400000001,0.5427246099999999,1.00805664,0.49996742500030783,0.5000764747427687,0.5000022649137703,63.3,8.4,93.45,0.13354491999999998,0.49365234500000005,0.86279297,0.4999689571375917,0.5000466309215567,0.4999993338078245,58.35,19.95,30.15
0.02075195500000001,0.5153808599999999,0.376953125,0.5000210505033748,0.5000472971137321,0.499963894373764,-2.25,26.4,20.7,0.5837402349999999,0.5439453150000001,1.0053710949999999,0.49997215466804784,0.5000630850130798,0.49999140660962843,63.3,8.4,93.45,0.12280273499999998,0.487060545,0.8708496099999999,0.49995250304606853,0.5000527595579586,0.4999822136113923,57.15,21.15,29.7
0.009521484999999984,0.513183595,0.38598633,0.5000057289560033,0.5000758085505933,0.4999537687588421,-0.3,26.25,19.8,0.58251953,0.5422363299999999,1.00756836,0.4999459747292679,0.5000652833425392,0.4999780168799394,62.55,6.15,90.9,0.11645508000000002,0.48413086,0.8786621099999999,0.49994444259198406,0.5000814042507081,0.499975352198504,57.15,21.15,29.7
0.023193359999999986,0.5119628900000001,0.387695315,0.49999067383314194,0.5000690803935933,0.4999576324814737,0.3,27.0,20.55,0.580566405,0.5446777349999999,1.013916015,0.4999642273825852,0.5000312427026077,0.5000065949883781,63.15,7.5,91.8,0.11230469,0.47705077999999995,0.881347655,0.49997008959447686,0.500062152396394,0.49996662555224397,56.7,19.8,28.95
0.029296875,0.5139160150000001,0.39501953,0.5000333077761786,0.5000625520767927,0.4999840788447639,0.3,27.0,20.55,0.58935547,0.5407714849999999,1.009521485,0.4999500382920989,0.5000386370517831,0.5000005329362871,62.25,7.35,93.45,0.122070315,0.47119140499999995,0.888183595,0.49997382006122004,0.5000593545463365,0.49997874965642586,56.7,19.8,28.95
0.04052734500000003,0.5197753900000001,0.39453125,0.5000416347420399,0.500075542126083,0.499975219029882,-1.35,27.75,19.2,0.5871582049999999,0.536621095,1.001708985,0.4999702894346762,0.4999774839436523,0.49999333842731103,62.25,7.35,93.45,0.1171875,0.501220705,0.8703613299999999,0.5000102587835439,0.5000321087349825,0.49999820135093936,58.05,18.75,29.85
0.044921875,0.5139160150000001,0.38232422,0.5000173867082089,0.5000515605167625,0.4999858109095136,-1.65,26.55,20.25,0.5842285150000001,0.548828125,1.00073242,0.4999770175916762,0.4999950704047942,0.4999807480584194,61.8,7.65,93.45,0.115234375,0.477783205,0.87939453,0.5000226493122361,0.5000397029243573,0.49997242109255813,56.7,20.55,27.9
0.04296875,0.5202636700000001,0.38623047,0.5000181860690064,0.5000303100859218,0.5000203177268884,-1.5,27.45,20.4,0.583984375,0.525878905,0.9987792950000001,0.49998174734668266,0.49997428641319624,0.4999830130594562,62.7,7.5,92.85,0.12158202999999998,0.49267577999999995,0.8703613299999999,0.5000257135868038,0.5000123905286922,0.49997288744453433,57.15,20.55,29.25
0.04199218999999999,0.5192871099999999,0.369873045,0.5000029311059457,0.5000673484161101,0.49997961560153426,-1.5,27.45,20.4,0.58203125,0.52685547,1.00073242,0.4999584318422711,0.4999769510073652,0.49997082237096335,62.7,7.5,92.85,0.13208008000000002,0.50732422,0.889160155,0.5000598208110463,0.5000111248159187,0.49999527033226004,58.35,19.95,29.4
0.04223633000000001,0.5207519549999999,0.375976565,0.5000337075438438,0.5000460979852696,0.5000023981696587,-0.6,28.5,20.55,0.5866699200000001,0.5334472650000001,1.0,0.49998081472999684,0.4999640942139633,0.49997628481518974,63.45,7.5,92.55,0.12182616999999998,0.49560547000000005,0.8649902349999999,0.5000634846934785,0.4999988009588039,0.5000050627638277,55.8,19.2,29.4
0.044921875,0.521484375,0.373779295,0.5000045964991181,0.5000302435016108,0.49998641043011166,-2.7,26.55,21.3,0.576171875,0.5490722650000001,0.99560547,0.49998887518408136,0.49994364314392015,0.49997508577399363,61.95,8.25,92.25,0.142822265,0.50097656,0.86425781,0.5000790061683159,0.4999495053558118,0.5000139226659761,56.1,19.2,28.8
0.01440429499999999,0.489990235,0.353271485,0.5000702795220558,0.49996416079827427,0.49999127335374005,-2.1,26.25,18.15,0.60644531,0.455322265,1.00878906,0.49993065318189633,0.4998560436724992,0.4999153981315693,61.65,7.5,92.85,0.12841797000000002,0.37817383,0.8581542950000001,0.500146421168737,0.4997601837322614,0.4999701561787878,58.35,18.75,28.35
0.011230470000000025,0.48095702999999995,0.36010742,0.5000438996558102,0.49995443495101755,0.49992785524457245,-2.1,26.25,18.15,0.6179199200000001,0.44458008,0.9943847650000001,0.49994517536847055,0.49988162400341457,0.4998818239308804,60.45,7.65,94.2,0.1484375,0.389404295,0.833984375,0.5002013123845774,0.4997970888065613,0.49997928250544654,59.85,18.75,29.4
0.023193359999999986,0.47509765499999995,0.365478515,0.5000684142014179,0.49994877257932535,0.49997495251810525,-3.15,24.75,19.2,0.6086425799999999,0.47338867,0.96972656,0.49997688442305427,0.4998629050853875,0.4998378576034928,61.35,7.5,94.65,0.15991211,0.424072265,0.8127441400000001,0.5002516071885662,0.49981793955700315,0.4999914731939394,57.0,19.95,28.35
0.024414064999999995,0.466796875,0.375976565,0.5000789394967384,0.4999440429115854,0.49996729174441945,-1.8,25.35,18.6,0.6164550799999999,0.47753906,0.94580078,0.49999726873425354,0.499897078893941,0.4998501148762966,61.35,7.5,94.65,0.165771485,0.45263672,0.795898435,0.5002658629506301,0.4998612396922153,0.5000024647539697,57.45,20.1,30.75
0.031005859999999986,0.47680664,0.380371095,0.5000893982077481,0.4999235252572312,0.49999766841465226,-2.25,26.4,17.85,0.616210935,0.49267577999999995,0.9401855450000001,0.5000213170151515,0.49993365087215313,0.499828264924858,61.95,8.25,94.65,0.17431640499999998,0.478271485,0.796875,0.5002724578517417,0.49989221597031264,0.49999160644982776,57.6,20.7,29.4
0.03051758000000001,0.47241211,0.37133789,0.500100789448177,0.49994384307138595,0.49998201377119295,-2.25,26.4,17.85,0.610839845,0.5168457049999999,0.9250488299999999,0.5000223828877257,0.49997248776413555,0.4998271990522838,60.15,7.8,95.4,0.20068359500000002,0.502441405,0.782714845,0.5002799854568055,0.49988695327901905,0.5000161209954355,56.55,19.5,30.45
0.03784179499999999,0.46923827999999995,0.37133789,0.5000967258853461,0.4999275222357512,0.4999910735135407,-2.55,25.35,18.3,0.599121095,0.53466797,0.9343261700000001,0.5000436998156108,0.4999704226905646,0.49980987901565227,60.15,6.3,92.55,0.19970702999999998,0.5393066400000001,0.78076172,0.500240615628536,0.4999564333530111,0.5000125903688916,55.65,18.3,28.95
0.04272460999999998,0.479248045,0.375,0.5001201745583796,0.49993578253003507,0.49999960031960133,-2.55,24.6,18.3,0.61425781,0.57080078,0.951171875,0.5000431668793237,0.4999966692136555,0.499852313205756,58.95,8.4,93.75,0.19018554499999998,0.5576171900000001,0.7858886700000001,0.5001664057995375,0.500013389729689,0.49998827566348325,55.65,18.3,28.95
0.04248047000000003,0.47583008,0.37841797,0.5001193086132713,0.4999426439429234,0.5000075941893748,-0.45,24.9,19.35,0.588378905,0.59423828,0.98925781,0.5000552909835057,0.5000685474573062,0.4998546447038373,59.55,6.75,93.3,0.173828125,0.56689453,0.799804685,0.5000551577276172,0.500024714385807,0.4999862105899123,56.1,20.1,28.2
0.03857422000000003,0.45703125,0.36352539,0.5001097159346364,0.49999766841465226,0.4999808813143078,-1.35,24.0,18.15,0.583984375,0.6066894549999999,0.9763183599999999,0.5000583552580733,0.5000185191650941,0.4999191285983125,60.0,6.6,94.5,0.15356445500000002,0.5622558599999999,0.8125,0.5000059287962025,0.500060153907134,0.4999952036606826,56.1,20.1,28.2
0.027832029999999976,0.475585935,0.345458985,0.500104919595319,0.5000170536121212,0.49997202141215946,-1.35,24.0,18.15,0.5944824200000001,0.6037597650000001,1.00756836,0.5000606201718436,0.4999870099507097,0.4999360490418118,60.0,6.6,94.5,0.11572265499999998,0.54736328,0.833984375,0.4999592312030685,0.5001101156150352,0.49996695864833174,56.55,20.25,30.9
0.020507814999999995,0.479248045,0.333007815,0.5001245712172983,0.4999970023097432,0.499984611781051,-1.35,24.0,18.15,0.5798339849999999,0.58935547,1.03833008,0.4999914731939394,0.49997035601898715,0.4999751523583046,60.75,7.35,94.2,0.08374023499999998,0.5256347650000001,0.8435058599999999,0.49998014853782136,0.5000959265245487,0.49996555976693624,57.9,20.1,30.3
-0.0024414049999999746,0.47583008,0.325683595,0.5000877993988868,0.5000213170151515,0.4999679578493285,-0.45,24.6,18.9,0.5703125,0.573242185,1.028320315,0.4999642273825852,0.4999805482182201,0.4999927389067129,60.0,5.7,93.45,0.056640625,0.5078125,0.8361816400000001,0.5000815375065966,0.5000580221619856,0.4999885420879936,57.9,19.8,29.25
-0.01098633000000001,0.48193359500000005,0.33105469,0.5000949272362856,0.4999775505279633,0.49999393794790903,0.6,24.0,19.5,0.5625,0.541015625,1.02758789,0.49995776573736206,0.4999880758232839,0.49999593643716905,60.45,8.85,93.75,0.06127929499999999,0.486083985,0.7854003900000001,0.5000866669420017,0.4999649601590717,0.5000213170151515,57.45,20.1,29.25
-0.001953125,0.46850586,0.317382815,0.5000871998782888,0.49999160644982776,0.500006728157,-1.8,25.65,19.65,0.5817871099999999,0.52392578,1.041015625,0.4999854111418484,0.4999847450369394,0.49998707653502067,60.45,6.6,93.75,0.06420898499999998,0.46923827999999995,0.834472655,0.5000677480965088,0.499986610270311,0.5000667488082455,57.45,20.1,29.25
0.0017089849999999843,0.463867185,0.302001955,0.5000564900247018,0.49999247239493616,0.49998794256739554,-1.8,25.65,19.65,0.5739746099999999,0.51123047,1.03515625,0.49998760947130777,0.4999766179112775,0.4999699563385885,60.15,7.8,94.35,0.07275390499999998,0.438964845,0.859375,0.5000252473220941,0.4999924058106252,0.5000916631215184,56.7,20.85,31.05
-0.020019530000000032,0.462646485,0.29370117,0.5000428338705024,0.49996089659624077,0.49995603367261243,-1.05,24.3,18.15,0.5979003900000001,0.509277345,1.0390625,0.5000007993607974,0.5000669487357113,0.4999831462280781,59.7,7.35,94.2,0.09765625,0.440429685,0.8645019549999999,0.5000358392017257,0.5000055291158039,0.5000840022605662,56.7,20.85,31.05
-0.041748045000000046,0.46801758,0.29736328,0.500073610221134,0.49994817305872724,0.500020051302378,-0.15,24.6,18.3,0.57373047,0.505859375,1.00097656,0.5000309096065199,0.5000512274206746,0.49994803980283886,59.7,7.35,94.2,0.11279297000000002,0.451416015,0.838867185,0.5000632181817017,0.49997788362405104,0.5000785398163398,56.7,20.85,31.05
-0.041748045000000046,0.47216797000000005,0.31542969,0.5000464976656682,0.4999522366215582,0.5000237151848103,-2.1,24.3,18.75,0.5886230450000001,0.52001953,0.9870605450000001,0.5000466309215567,0.5000283782682392,0.49994057886935245,60.75,6.15,94.5,0.11865234500000002,0.46948242,0.841308595,0.5000350398409282,0.49994044561346407,0.5000470306019553,57.3,19.5,29.4
-0.027832030000000032,0.471435545,0.345458985,0.5000141225061755,0.4999232588327209,0.5000125903688916,-1.2,23.85,19.35,0.5827636700000001,0.5227050799999999,0.9870605450000001,0.500087466302799,0.5000522266216714,0.49993778101929504,60.15,7.05,94.35,0.13256836,0.47607422000000005,0.8449707049999999,0.500005196019716,0.49996729174441945,0.5000010658725742,56.4,19.8,30.75
-0.0078125,0.48095702999999995,0.37011719,0.5000304433418102,0.4998966125419648,0.500076141646681,-1.2,23.85,19.35,0.5900878900000001,0.5537109400000001,1.00097656,0.5000907970891436,0.5000863338459139,0.4999355161055248,61.8,7.35,94.2,0.130859375,0.482421875,0.8488769549999999,0.499988608759571,0.49996382770218656,0.5000292443006141,58.8,19.5,30.15
0.004638669999999991,0.494140625,0.387695315,0.49997681775147684,0.4999109348883396,0.5000434999754114,-2.25,24.9,19.65,0.5969238299999999,0.5739746099999999,1.021728515,0.5000852679733397,0.500038037531185,0.4999435765596092,61.8,7.35,94.2,0.13305664,0.5129394549999999,0.8498535150000001,0.4999743529975072,0.4999894081203684,0.4999847450369394,58.2,20.1,29.7
0.03125,0.505371095,0.39868164,0.49994577488906855,0.4999387802202918,0.5000337741281548,-2.25,24.15,17.85,0.6057128900000001,0.588378905,1.0083007800000001,0.5000694800739921,0.5000335742879554,0.4999914731939394,61.05,7.35,93.75,0.14428711,0.5231933599999999,0.850097655,0.4999816140907943,0.5000295107251244,0.49995969755504466,57.0,19.5,30.9
0.03222656499999999,0.5078125,0.39819336,0.4999425773586124,0.49994977178032207,0.5000528928138469,-1.5,23.4,19.65,0.604003905,0.603027345,1.0014648449999999,0.5000259135142696,0.5000468307617559,0.49998687669482134,60.9,7.5,91.5,0.1328125,0.5334472650000001,0.8586425799999999,0.4999642273825852,0.5000319088947831,0.49998674352619943,56.1,19.35,30.0
0.019287109999999986,0.5095214849999999,0.384033205,0.4999216600238596,0.49999713556563163,0.5000392365723811,-1.5,23.4,19.65,0.6179199200000001,0.6003417950000001,1.0190429699999999,0.5000163874199458,0.5000173200366316,0.5000015321372838,60.9,7.5,91.5,0.12182616999999998,0.5202636700000001,0.86035156,0.49999453755577355,0.5000031975304562,0.49995583383241304,56.1,19.35,30.0
0.013916015000000016,0.5078125,0.377685545,0.49990380705094095,0.5000067948285775,0.500053425750134,-1.35,24.3,18.45,0.61279297,0.59033203,1.01586914,0.500036105626236,0.4999942710439968,0.5000156546434593,61.05,6.6,93.45,0.119140625,0.5197753900000001,0.84814453,0.5000151217071722,0.4999792159211356,0.4999434433037208,56.1,19.35,29.7
0.01171875,0.50732422,0.36694336,0.4999165305884545,0.49997035601898715,0.500048895835327,-1.35,24.75,19.2,0.5954589849999999,0.5778808599999999,1.0024414050000001,0.5000007327764865,0.5000049961795168,0.5000227825681245,60.0,7.65,93.75,0.123046875,0.50073242,0.8479003900000001,0.5000460314009586,0.4999962695332568,0.4999561669285008,56.1,19.35,29.7
0.020996095000000024,0.49926758,0.35888672,0.4999169303561196,0.5000159211552361,0.4999844785251626,-1.8,25.35,19.95,0.5935058599999999,0.556640625,0.9792480450000001,0.4999877427271962,0.5000392365723811,0.5000065283168006,60.0,6.15,93.15,0.11621094,0.498779295,0.849121095,0.5000793391771372,0.4999804816339091,0.4999830130594562,57.45,20.55,29.7
0.021484375,0.5036621099999999,0.35449219,0.49990480625193773,0.500002664594169,0.49999114009785167,-1.2,25.35,19.35,0.5803222650000001,0.52685547,0.970703125,0.499983945676142,0.5000227825681245,0.49998361258005425,60.0,6.15,93.15,0.12597656499999998,0.48974609500000005,0.83984375,0.5000847350370526,0.4999613629482169,0.5000069279971994,56.25,18.75,29.4
0.013427734999999984,0.498291015,0.36010742,0.4999477733783286,0.4999894081203684,0.49999913396762513,-1.2,25.35,19.35,0.5803222650000001,0.52783203,0.9675292950000001,0.5000090597423477,0.5000241148652089,0.5000055291158039,61.5,6.9,91.95,0.138427735,0.48461914,0.83203125,0.5000993904795151,0.49999247239493616,0.4999972021499426,57.45,19.8,30.0
0.021728515000000014,0.49291992,0.36279297,0.49996436063847366,0.5000070612530877,0.5000077940295742,-0.75,25.65,18.9,0.5876464849999999,0.529785155,0.9655761700000001,0.5000342403928644,0.5000746095093972,0.4999868101105104,60.9,6.3,94.35,0.13671875,0.47802734500000005,0.8312988299999999,0.5000811378261978,0.4999694234023014,0.5000515605167625,55.65,19.35,30.0
0.03002929499999999,0.498779295,0.380859375,0.4999658261914466,0.5000230489926347,0.4999652266708485,-0.6,24.3,17.7,0.5895996099999999,0.536621095,0.95751953,0.5000629517571914,0.5000435666469889,0.4999825467074801,60.9,6.3,94.35,0.16040039,0.48388672000000005,0.84033203,0.5000377710194083,0.4999808813143078,0.5000292443006141,55.65,19.35,30.0
0.04345702999999997,0.506591795,0.381347655,0.49996456047867305,0.5000243812897193,0.49999293874691225,-1.05,25.05,18.75,0.5822753900000001,0.544433595,0.96533203,0.5000728774446475,0.5000455650489825,0.500002664594169,60.6,6.3,92.55,0.15356445500000002,0.484375,0.8557128900000001,0.5000170536121212,0.49996036374722014,0.5000267128750671,58.05,19.2,29.4
0.04418945500000001,0.521484375,0.391601565,0.49999260565082454,0.5000383706272727,0.500013389729689,-1.05,25.05,18.75,0.5969238299999999,0.552734375,0.9836425799999999,0.5000744762535088,0.5000373047546985,0.4999722879239362,62.7,6.75,92.55,0.15576172000000002,0.49536133,0.854003905,0.500033441032067,0.4999394464124673,0.5000203843984657,58.05,19.2,29.4
0.05346679499999999,0.5263671900000001,0.39501953,0.4999843453565407,0.5000673484161101,0.49999353826751036,-2.25,25.35,17.85,0.6027832049999999,0.54296875,0.9865722650000001,0.5000839356762552,0.5000177197170302,0.4999897412164561,61.8,6.9,91.95,0.16699218999999998,0.48510742,0.8527832049999999,0.5000173200366316,0.4999563001843892,0.4999970688940542,57.0,19.95,30.15
0.05444335999999998,0.5207519549999999,0.38964844,0.4999513040048724,0.5001239050251228,0.4999614962041053,-2.1,25.5,19.5,0.6076660150000001,0.5517578150000001,1.00390625,0.5000539586864211,0.5000117243365167,0.49998720979090905,61.8,6.9,91.95,0.1484375,0.47705077999999995,0.869628905,0.5000283115966618,0.4999684242013046,0.4999594311305343,56.55,19.95,29.4
0.05029297000000003,0.5119628900000001,0.389160155,0.4999490390911021,0.5001200413024912,0.4999271891396635,-2.1,24.75,19.2,0.60498047,0.549316405,1.009033205,0.5000231155769457,0.49998454519674007,0.5000031975304562,61.8,6.9,91.95,0.142822265,0.459228515,0.86376953,0.5000767411672791,0.4999754188700814,0.4999397128369776,56.1,19.35,30.75
0.03955077999999997,0.509765625,0.36621094,0.4999509043244737,0.5000689471377049,0.4999804816339091,-2.1,26.25,18.45,0.61669922,0.548339845,0.9919433599999999,0.5000472971137321,0.49998261329179106,0.4999590313628692,60.9,7.8,92.55,0.13720702999999998,0.46044922,0.873046875,0.5001039869786332,0.49999813476662835,0.49995863168247046,56.1,19.8,30.0
0.014648439999999993,0.497070315,0.357421875,0.499926456363177,0.5000666822239346,0.499957832321673,-2.1,26.25,18.45,0.591308595,0.52685547,0.97998047,0.5000145888581515,0.4999843453565407,0.4999328514240892,61.5,7.65,93.15,0.12768554499999998,0.45703125,0.8620605450000001,0.5001556140797065,0.4999557005765246,0.49994304362332215,57.0,19.5,29.85
0.006347654999999975,0.485595705,0.341796875,0.49991786297280544,0.5000495620275024,0.5000143223463748,-1.65,25.5,18.45,0.5856933599999999,0.5263671900000001,0.9899902349999999,0.5000748093495966,0.5000263131946683,0.4999276554043731,59.85,7.05,93.6,0.11840820500000002,0.47290039,0.86279297,0.5001660727034498,0.49997455283770653,0.4999499717077879,57.15,20.1,30.0
0.007080080000000009,0.49658202999999995,0.33496094,0.4999832128996555,0.49998707653502067,0.5000301102457225,-3.45,25.5,19.2,0.59472656,0.5212402349999999,0.9978027349999999,0.5000970589814339,0.4999755520387033,0.49992545716218023,59.7,7.65,91.65,0.12036133000000002,0.47705077999999995,0.8649902349999999,0.5001802618812026,0.49997275418864584,0.5000053958599154,57.15,20.1,30.0
0.017578125,0.5041503900000001,0.33618164,0.4999555674079027,0.4999998667441116,0.49997961560153426,-2.4,24.75,19.8,0.5964355450000001,0.5334472650000001,1.0083007800000001,0.5000853346449172,0.4999952036606826,0.49990480625193773,60.6,6.75,93.6,0.111328125,0.48291015499999995,0.862304685,0.5001695367456827,0.49999293874691225,0.4999676914248182,57.15,20.1,30.0
0.02734375,0.506591795,0.338378905,0.4999837457486762,0.4999790160809362,0.4999821470270813,-2.4,24.75,19.8,0.584472655,0.55810547,1.00317383,0.5000663491278469,0.4999744862533956,0.4999085367186809,61.5,6.6,93.45,0.11474609500000002,0.49194336,0.8557128900000001,0.5002025780973509,0.4999992672235135,0.4999826799633685,56.55,19.95,29.4
0.028808595000000024,0.520996095,0.341308595,0.5000192519415806,0.49997601839067946,0.5000069279971994,-1.5,24.6,19.35,0.5861816400000001,0.5595703150000001,1.01928711,0.5000590214502488,0.4999573659696969,0.4999269892994641,61.5,6.6,93.45,0.12353515499999998,0.506835935,0.846679685,0.5001833928273478,0.500006728157,0.4999766179112775,56.55,19.95,29.4
0.025390625,0.5236816400000001,0.341552735,0.49998694336639876,0.499984678365362,0.5000002664245103,-2.4,24.75,18.15,0.580078125,0.567871095,0.9875488299999999,0.5000535589187559,0.4999958031812807,0.49990194181756936,61.95,7.5,92.85,0.119140625,0.5129394549999999,0.841308595,0.5001853912293414,0.5000103254551213,0.49997775036816267,56.25,20.25,30.15
0.023193359999999986,0.5187988299999999,0.344726565,0.4999952036606826,0.49996589277575754,0.4999681577767943,-0.6,25.5,18.15,0.5876464849999999,0.5634765650000001,1.0,0.5000615528757959,0.49996189588450396,0.4999093361667448,61.8,8.85,93.75,0.13183593999999998,0.51171875,0.83642578,0.500209839190638,0.5000099923590335,0.49997475267790586,56.55,19.5,29.85
0.01684570500000001,0.51220703,0.34326172,0.500009259582547,0.4999365818908325,0.49999307200280063,-1.8,24.6,18.3,0.588378905,0.5749511700000001,0.990234375,0.5000809379859984,0.5000131233051787,0.49992292573663316,60.75,8.4,91.95,0.127197265,0.5266113299999999,0.8317871099999999,0.5002117044240096,0.4999964027891452,0.4999922059704259,56.25,19.5,30.15
0.013427734999999984,0.506835935,0.342285155,0.5000164540915232,0.4999219265356364,0.49996609261595687,-1.8,24.6,18.3,0.58984375,0.5656738299999999,0.98828125,0.5000596875551578,0.5000075941893748,0.49990980243145444,61.05,6.9,94.2,0.12915039,0.5270996099999999,0.8352050799999999,0.5002085068935536,0.5000055957001148,0.49998740963110844,56.25,19.2,30.15
0.016601564999999995,0.508789065,0.338623045,0.5000016653931723,0.4999364487222105,0.4999441760802073,-1.8,24.6,18.3,0.592773435,0.5617675799999999,0.99316406,0.5000317756388947,0.5000190521013812,0.499942510687035,61.5,7.65,93.45,0.13012695500000002,0.5236816400000001,0.83642578,0.5001905206647465,0.5000151217071722,0.4999883422477942,56.25,19.2,30.15
0.018066404999999976,0.49951172000000005,0.338134765,0.5000311761182967,0.4998679012649043,0.499993271843,-1.65,25.8,19.2,0.595703125,0.5595703150000001,1.015625,0.5000197848778677,0.4999858109095136,0.4999489724195247,60.15,6.0,93.6,0.12036133000000002,0.5126953150000001,0.841796875,0.500165673023051,0.5000189188454929,0.49999660262934453,56.55,19.5,29.1
0.022949220000000024,0.497802735,0.342041015,0.5000162542513238,0.49987029934729654,0.49999173970571614,-0.75,24.9,17.85,0.57861328,0.5546875,0.9909667950000001,0.5000031309461451,0.49998234686728066,0.49993917990069053,60.15,6.0,93.6,0.12377929499999998,0.50854492,0.8166503900000001,0.5001482197305311,0.5000063284766012,0.49999886754311484,56.55,19.5,29.1
0.03222656499999999,0.50048828,0.34692383,0.500029377469236,0.49988608724664424,0.49997488593379424,-3.15,24.3,19.2,0.577148435,0.552734375,0.984375,0.5000264463632902,0.4999958031812807,0.4999353828496363,61.65,8.55,94.35,0.12255859500000002,0.502441405,0.8200683599999999,0.5001291677164164,0.49999673579796644,0.49999473739597294,57.3,22.2,28.8
0.03637695500000001,0.50463867,0.34667969,0.5000491623471037,0.499886353758421,0.4999898078007671,-3.15,24.3,19.2,0.5695800799999999,0.5615234400000001,0.98046875,0.500042634030303,0.5000290443731483,0.4999396462526666,61.65,8.25,92.25,0.11547851500000002,0.509277345,0.8190917950000001,0.5001400260205583,0.49998694336639876,0.5000049961795168,57.15,19.05,29.7
0.021972654999999976,0.494384765,0.345703125,0.5000356393615264,0.4999251240660925,0.4999419778380144,-1.35,23.7,18.75,0.5759277349999999,0.5520019549999999,0.9978027349999999,0.5000409019655534,0.4999938047792871,0.49992805508477184,61.65,7.05,92.55,0.11108398499999998,0.497802735,0.8352050799999999,0.500120907334866,0.49997188824353755,0.5000245145456076,57.0,19.5,29.1
0.025146484999999986,0.487304685,0.34692383,0.5000315092143844,0.49996855745719304,0.49996102985212915,-0.3,25.05,19.5,0.5617675799999999,0.5520019549999999,0.987304685,0.5000140559218645,0.5000285781084386,0.49991832923751506,61.65,7.05,92.55,0.10205077999999998,0.494384765,0.8327636700000001,0.5001455551363622,0.49996662555224397,0.5000186523337161,56.55,19.95,29.1
0.013427734999999984,0.5002441400000001,0.34375,0.5000568231207895,0.49995496780003823,0.4999934716831994,-0.6,24.75,19.8,0.553222655,0.5500488299999999,0.998535155,0.5000394364125805,0.500035439521327,0.49991193417660285,62.7,7.5,92.25,0.10131835999999998,0.498046875,0.834960935,0.5002094395102393,0.4999528361421563,0.5000309762780973,57.15,19.35,28.95
0.0009765649999999937,0.49584961,0.33178711,0.5000684142014179,0.4999590313628692,0.5000057955403142,-1.5,24.15,17.85,0.56298828,0.5422363299999999,1.0229492199999999,0.5000536921746443,0.5000302435016108,0.4999102021118532,62.4,7.05,92.85,0.10717773499999998,0.489990235,0.823242185,0.5002227626556173,0.49994590814495693,0.5000679479367082,57.3,20.25,30.15
-0.016357420000000046,0.509277345,0.32421875,0.5000381707870735,0.49998101457019617,0.4999884755036826,-1.5,24.15,17.85,0.5603027349999999,0.5390625,0.985839845,0.5000452320401612,0.5000413016459521,0.4998768943356746,62.4,7.05,92.85,0.10302734500000002,0.450439455,0.829589845,0.5002189655172967,0.4999716884033381,0.5000241148652089,57.3,20.25,30.15
-0.005371095000000025,0.5256347650000001,0.33666992,0.5000173200366316,0.499971288635673,0.5000415681577288,-0.75,23.4,19.65,0.55908203,0.533691405,0.981933595,0.5000811378261978,0.5000539586864211,0.49986064008435077,60.45,6.9,94.2,0.10913085999999998,0.431152345,0.841308595,0.5002907771766365,0.4999988009588039,0.500011258071807,56.7,20.85,28.65
0.01245116999999999,0.5354003900000001,0.36010742,0.5000045298275406,0.4999901408968549,0.5000079272854626,-1.35,23.25,18.75,0.5563964849999999,0.5344238299999999,0.9885253900000001,0.500097591917721,0.5000801386252011,0.49984398623989473,61.35,7.5,92.25,0.09814452999999998,0.41064453,0.8732910150000001,0.5003537955181389,0.5000361722978134,0.5000071945089761,56.7,20.85,28.65
0.03759765499999997,0.533203125,0.37866211,0.4999567664490988,0.5000491623471037,0.49997894949662525,-1.35,22.5,18.45,0.564453125,0.515625,1.0004882800000001,0.5000847350370526,0.5000638843738772,0.4998394563250876,61.35,7.05,92.25,0.10131835999999998,0.415527345,0.87451172,0.5004733705559203,0.5000023315853478,0.499979882113311,56.4,19.8,29.7
0.04638672000000003,0.52783203,0.385253905,0.49996396095807494,0.500071411978941,0.4999484394832376,-1.35,22.5,18.45,0.5651855450000001,0.50439453,1.01245117,0.5000768078388566,0.5000268461309554,0.49977730401596004,61.35,7.05,92.25,0.10400390499999998,0.434570315,0.87841797,0.5004852281483255,0.4999611631080176,0.4999555007363253,56.55,20.7,30.15
0.03247070500000001,0.509277345,0.376464845,0.4999513040048724,0.5000983246942075,0.4999620290531259,-1.35,24.0,17.7,0.587402345,0.49243164,1.03442383,0.5000448989440734,0.500009259582547,0.499805549028311,61.35,9.0,91.5,0.12402344,0.467773435,0.857910155,0.5004864938610991,0.4999606301717304,0.4999597641393556,55.5,20.7,28.8
0.029541015000000014,0.475585935,0.365722655,0.49995290272646725,0.5001338307998454,0.4999370482428086,-0.6,24.3,18.75,0.576171875,0.490478515,1.021240235,0.5000211171749521,0.49994857273912596,0.49978090122681496,61.35,8.25,91.8,0.11865234500000002,0.47802734500000005,0.834472655,0.5004820306178693,0.49997242109255813,0.4999429104547002,56.4,21.15,29.25
0.012207029999999975,0.46582031,0.35546875,0.5000077940295742,0.5001338307998454,0.4999451086968931,-0.75,25.65,18.6,0.5832519549999999,0.51098633,1.0073242199999999,0.5000542251109314,0.4999279219161499,0.499752656214464,62.4,6.75,92.85,0.118164065,0.5207519549999999,0.8435058599999999,0.5004238751999954,0.4999464410812441,0.4999830130594562,56.4,21.15,29.25
0.021728515000000014,0.463134765,0.345703125,0.5000218499514386,0.5001005896079778,0.49993591578592345,-1.65,24.75,18.75,0.5905761700000001,0.5126953150000001,1.01171875,0.5000468307617559,0.49994364314392015,0.49973480324154534,61.8,7.35,91.65,0.126708985,0.544433595,0.82080078,0.5003721814273445,0.4999729540288453,0.5000117910080942,56.55,20.7,28.8
0.016601564999999995,0.46972656,0.344970705,0.5000722113397384,0.500095593428461,0.4999714884758723,-1.65,24.75,18.75,0.5910644549999999,0.5378417950000001,1.001708985,0.500071545147563,0.4999215267679712,0.499736668474917,60.6,6.75,92.25,0.12866211,0.5378417950000001,0.8430175799999999,0.5003324119186763,0.5000111914002296,0.5000015988088613,56.55,20.7,28.8
0.02856445500000001,0.478759765,0.333984375,0.500084202188032,0.5000774073594546,0.49995916461875756,-1.2,23.85,19.35,0.584472655,0.546875,0.98876953,0.5000592878747592,0.4999319854789809,0.4997438629838931,61.05,8.1,92.7,0.130859375,0.5524902349999999,0.8425292950000001,0.5003418047571118,0.4999677580091291,0.5000218499514386,56.55,20.7,28.8
0.009765625,0.46557617,0.330566405,0.5001308331095886,0.5000410352214418,0.4999780834642504,-1.35,24.0,18.75,0.59082031,0.5524902349999999,0.9753417950000001,0.5000722113397384,0.49993904673206857,0.4997385337082886,61.05,8.1,92.7,0.13183593999999998,0.57519531,0.822265625,0.5003539953583381,0.4999771508475646,0.5000139226659761,57.15,21.6,27.9
0.009277345000000025,0.467773435,0.33959961,0.500165006918142,0.5000102587835439,0.49997495251810525,0.6,23.25,18.15,0.578125,0.56298828,0.97314453,0.5001103154552344,0.4999108017197177,0.499730606422826,61.35,7.8,93.3,0.13403320500000002,0.58300781,0.8239746099999999,0.5003446691914802,0.4999509043244737,0.5000244479612966,55.8,20.25,28.35
0.01489258000000001,0.46948242,0.334472655,0.5001746661810879,0.5000015988088613,0.4999216600238596,0.6,23.25,18.15,0.5881347650000001,0.5661621099999999,0.962890625,0.5001067182443797,0.4999413116458389,0.49980008649681806,61.05,9.15,92.7,0.14794922000000002,0.6003417950000001,0.8225097650000001,0.5002744563410016,0.4999600306511324,0.5000862672616029,56.7,20.85,28.2
0.018554689999999995,0.46166992,0.349609375,0.5001883890068646,0.49998361258005425,0.4999790160809362,-1.5,23.85,18.9,0.6003417950000001,0.580566405,0.9631347650000001,0.500080205209512,0.49994044561346407,0.4998126102813987,62.4,8.25,91.5,0.165771485,0.5925292950000001,0.822753905,0.5002387503951644,0.49997581855048007,0.5000881324949745,56.1,22.35,29.7
0.03979491999999999,0.451660155,0.37158203,0.5002189655172967,0.4999684242013046,0.4999364487222105,-3.3,24.15,18.3,0.6047363299999999,0.5778808599999999,0.9587402349999999,0.5000856010694275,0.49994350997529824,0.4997906270740717,62.4,8.25,91.5,0.1640625,0.580566405,0.84716797,0.5001785964880304,0.49998927486448,0.5001052526914067,56.7,21.15,28.2
0.05395508000000001,0.455810545,0.381591795,0.5001819272743749,0.5000007327764865,0.4999191952698899,-0.75,23.1,18.3,0.5812988299999999,0.576660155,0.94482422,0.5000522932932489,0.49978589740633167,0.4998156079716554,61.5,7.35,92.7,0.16137695500000002,0.584472655,0.84814453,0.5001378276910989,0.49999173970571614,0.5000948606519745,56.4,20.85,29.25
0.06079101500000002,0.46557617,0.380126955,0.5001973154933238,0.5000069946687767,0.49996129636390596,-0.6,22.5,18.15,0.5939941400000001,0.5905761700000001,0.9963378900000001,0.5000518935255837,0.49994870599501434,0.4998414548143476,61.65,8.25,93.6,0.146728515,0.58691406,0.8288574200000001,0.5001101156150352,0.499975951719102,0.5000961263647481,56.4,20.85,29.25
0.03784179499999999,0.45751953,0.36352539,0.5002201646457592,0.5000018652333716,0.49997475267790586,-0.6,22.5,18.15,0.5988769549999999,0.5803222650000001,0.97216797,0.5000698131700798,0.49997308728473366,0.4998381906995805,61.05,6.6,93.45,0.13671875,0.5859375,0.84326172,0.5001167771877242,0.49996922356210205,0.50008753288711,57.6,20.25,28.35
0.023193359999999986,0.466308595,0.34448242,0.5002070413405807,0.5000132564738006,0.49996129636390596,-1.5,23.4,17.85,0.583984375,0.60595703,0.98779297,0.5000871998782888,0.49994770670675115,0.49984278711143215,61.05,6.6,93.45,0.12963866999999998,0.59082031,0.8532714849999999,0.5000885987596843,0.49993851379578147,0.5000993904795151,57.6,20.25,28.35
0.01489258000000001,0.47241211,0.34033203,0.5001940512912904,0.5000091929982361,0.4999595642991563,-1.65,21.75,17.4,0.5812988299999999,0.624023435,0.9997558599999999,0.500093594939201,0.4999830130594562,0.4998677680090159,60.9,7.5,92.85,0.12109375,0.5993652349999999,0.8649902349999999,0.5000758085505933,0.4999543682794401,0.5000821370271946,56.55,21.0,28.05
0.012207029999999975,0.47290039,0.345703125,0.5001621423965072,0.5000315757986954,0.4999546347912169,-0.45,22.65,17.55,0.580566405,0.638183595,1.009765625,0.5000614196199076,0.4999774172720749,0.49989008422516423,62.85,6.15,92.4,0.123046875,0.5842285150000001,0.8596191400000001,0.500111581168008,0.4999734203808214,0.5000635512777895,57.15,22.65,30.75
0.023925779999999976,0.486328125,0.342285155,0.5001473537854227,0.49998727637522006,0.499952569717646,-0.45,22.65,17.55,0.5695800799999999,0.6364746099999999,1.0249023449999999,0.5000684142014179,0.49999813476662835,0.49989721206256293,61.65,7.5,93.3,0.10375976500000002,0.5803222650000001,0.85644531,0.5001409586372441,0.4999936049390878,0.5000282450123509,56.55,23.25,29.85
0.02075195500000001,0.478759765,0.344970705,0.5001242381212105,0.4999594311305343,0.4999409119654402,-1.2,21.15,18.6,0.5646972650000001,0.6328125,1.02807617,0.5000403690292663,0.49997288744453433,0.49990753751768413,61.65,7.5,93.3,0.10205077999999998,0.5686035150000001,0.85644531,0.5001910536010336,0.5000068614128884,0.5000176531327193,57.6,23.25,28.8
0.023193359999999986,0.46899414,0.338378905,0.5000743429976204,0.49999173970571614,0.4999170635247415,-1.5,21.6,18.3,0.568359375,0.6159667950000001,1.025634765,0.5000311095339858,0.49996935681799043,0.4999363154663221,62.55,8.1,92.4,0.11010741999999998,0.5788574200000001,0.849609375,0.5001928522500942,0.49998827566348325,0.500020051302378,57.6,23.25,28.8
0.03149414000000002,0.45654297,0.33520508,0.5000651500866508,0.5000157878993476,0.4999399793487544,-2.1,21.75,18.45,0.565429685,0.619628905,1.02368164,0.500020051302378,0.49996196246881497,0.49992099383168415,60.15,6.0,92.55,0.095703125,0.583496095,0.8581542950000001,0.5002336209597593,0.499986610270311,0.5000154548032599,56.4,23.85,28.65
0.020996095000000024,0.463134765,0.333740235,0.5000428338705024,0.49998994105665556,0.49997894949662525,-0.75,21.6,16.8,0.569335935,0.611328125,1.01635742,0.5000256470024929,0.4999701561787878,0.4999129999619106,60.15,6.0,92.55,0.11303710999999998,0.603515625,0.8581542950000001,0.5002088399896413,0.4999585650981595,0.5000011324568852,56.4,23.85,28.65
0.015380859999999984,0.462646485,0.333740235,0.5000132564738006,0.4999795490172233,0.4999593644589569,-0.75,21.6,16.8,0.56738281,0.611328125,1.020507815,0.5000480298902186,0.4999696899140782,0.49993191880740345,60.9,7.05,93.3,0.09545898499999998,0.6301269549999999,0.8728027349999999,0.5001967825570368,0.49996196246881497,0.4999990007990032,57.15,22.65,28.65
0.011962890000000016,0.46069336,0.32006836,0.49998441194085164,0.4999824801231691,0.49996436063847366,-0.75,21.6,16.8,0.5671386700000001,0.6232910150000001,1.03808594,0.500066882064134,0.49996642571204464,0.4999524364617576,60.9,7.8,92.55,0.09326172000000002,0.6569824200000001,0.86279297,0.5001943178030671,0.49996662555224397,0.4999844785251626,55.8,22.95,29.4
0.0026855449999999906,0.46923827999999995,0.32836914,0.5000013322970845,0.4999447756880718,0.500026646290756,-1.2,20.85,18.6,0.5637207049999999,0.6369628900000001,1.01953125,0.5000718116593398,0.49991013552754227,0.49996742500030783,61.95,5.55,92.85,0.12060547000000002,0.68359375,0.78564453,0.5002259601860735,0.4999406454536634,0.4999640275423859,56.1,21.9,28.95
-0.003662109999999984,0.466308595,0.338134765,0.4999835459084768,0.49992146018366024,0.5000119241767161,-1.05,21.75,18.15,0.5861816400000001,0.654785155,1.013427735,0.5000732772123127,0.4999215934395486,0.4999746860935949,61.95,5.55,92.85,0.11596679499999998,0.694335935,0.828125,0.5001168437720351,0.49998760947130777,0.49999260565082454,56.25,21.45,28.8
0.01489258000000001,0.477783205,0.354003905,0.49996262866099045,0.4999298537338325,0.500000066584311,-1.5,21.6,18.3,0.583984375,0.662109375,0.994628905,0.5000654165111611,0.49992485755431576,0.5000081937099728,60.9,6.3,91.5,0.1328125,0.7058105450000001,0.8620605450000001,0.49994304362332215,0.4999849448771388,0.5000513606765631,55.8,22.95,28.8
0.025634765000000014,0.47680664,0.362060545,0.4999457083047576,0.4999006761047958,0.49999606969305743,-1.5,21.6,18.3,0.5930175799999999,0.6721191400000001,0.9765625,0.5000591547061373,0.4998984111910255,0.5000459648166476,61.8,7.65,93.45,0.15380859500000002,0.708496095,0.84375,0.49994457576060597,0.4999714884758723,0.5000231155769457,56.1,23.1,30.0
0.02416991999999999,0.467041015,0.376953125,0.49994177791054856,0.49989514698899196,0.49997322054062204,-3.0,21.6,19.35,0.6037597650000001,0.67675781,0.967773435,0.5000370382429218,0.49988315622796486,0.5000965260451468,61.8,6.9,93.45,0.16284179499999998,0.712402345,0.80859375,0.49990966926283253,0.49997868298484843,0.5000347733291515,56.1,23.1,30.0
0.029296875,0.48413086,0.38232422,0.49992425803371765,0.4998986776155358,0.5000135895698883,-0.6,21.75,19.5,0.60205078,0.6682128900000001,0.9455566400000001,0.5000442327518979,0.49990587212451193,0.5001209740064435,61.35,6.3,93.3,0.17285156499999998,0.674316405,0.8020019549999999,0.49985431160774946,0.49997894949662525,0.5000586217698502,56.1,23.1,30.0
0.03417968999999999,0.486572265,0.39453125,0.49994863932343697,0.49988522130153584,0.5000331079359792,-0.3,23.25,17.4,0.603515625,0.6584472650000001,0.9240722650000001,0.5000223162161483,0.4998127434500206,0.5001801286253142,61.05,7.35,92.7,0.19091797000000002,0.6484375,0.8034667950000001,0.4998050160920238,0.499968624041504,0.5000677480965088,56.4,23.4,30.0
0.02416991999999999,0.490234375,0.390625,0.4999159977394338,0.49990880323045767,0.5000521600373604,-2.55,21.9,18.9,0.61279297,0.6350097650000001,0.9377441400000001,0.5000219831200605,0.4999040734754513,0.5001535490061356,61.5,7.35,93.15,0.20654297000000002,0.6096191400000001,0.7956542950000001,0.4997621822215214,0.4999815475064833,0.500048895835327,56.4,23.4,30.0
0.031005859999999986,0.48754883,0.39916992,0.49988668685450877,0.49990873655888024,0.5000056622844258,-2.55,21.9,18.9,0.6086425799999999,0.62841797,0.9055175799999999,0.5000283782682392,0.49993245174369055,0.500182526794973,61.5,7.35,93.15,0.21533202999999998,0.57763672,0.7902832049999999,0.49972267913736346,0.5000143223463748,0.5000568231207895,57.0,22.95,28.35
0.03637695500000001,0.49072265499999995,0.41015625,0.4998906171614513,0.49992485755431576,0.5000189188454929,-1.35,21.45,18.75,0.6193847650000001,0.6159667950000001,0.9104003900000001,0.5000251140662058,0.4999739533171085,0.500171735075142,59.85,7.8,93.3,0.20043945500000002,0.5446777349999999,0.80566406,0.49970975575965065,0.5000431668793237,0.5000336408722663,56.25,22.5,28.8
0.05395508000000001,0.49194336,0.411865235,0.4998984111910255,0.49991979479048804,0.5000140559218645,-2.7,21.45,18.15,0.6154785150000001,0.604492185,0.9138183599999999,0.4999796822731117,0.5000073943491754,0.5001741332448008,60.15,7.5,92.85,0.18603515499999998,0.5192871099999999,0.8029785150000001,0.4997503246291163,0.4999922725547368,0.5000345734889522,55.8,22.95,29.4
0.04565429499999999,0.49560547000000005,0.38964844,0.49986370444618494,0.4999466409214434,0.49999960031960133,-1.2,21.9,19.95,0.60595703,0.5859375,0.9357910150000001,0.4999367151467209,0.5000671485759107,0.5001781968076318,59.85,8.25,92.85,0.18212890499999998,0.498291015,0.803222655,0.49979435754081486,0.5000187855896044,0.5000027312657465,54.75,23.25,27.75
0.03198241999999999,0.49609375,0.37475586,0.49986357119029656,0.49997022285036524,0.5000283115966618,-1.2,21.9,19.95,0.606933595,0.5681152349999999,0.95703125,0.49997108879547364,0.5000930620029139,0.5001573460571898,61.8,7.65,93.45,0.16479491999999998,0.48535156,0.799804685,0.49985744255389464,0.5000268461309554,0.5000074609334864,54.75,23.25,27.75
0.029052734999999986,0.5,0.35546875,0.4998511140772934,0.4999889417683923,0.5000299769898341,-0.3,23.25,18.75,0.588378905,0.53564453,0.9768066400000001,0.4999568331206763,0.5001111148160319,0.5001251041535855,60.0,7.35,93.15,0.150146485,0.478271485,0.81738281,0.4999009426165726,0.5000578889933637,0.49998094789861874,55.65,22.35,30.0
0.029296875,0.5,0.33666992,0.4998092129107432,0.5000041968187193,0.5000068614128884,-1.2,23.4,18.9,0.57519531,0.5322265650000001,0.9929199200000001,0.4999666922238214,0.5001247710574976,0.5000771408476778,60.6,7.8,93.6,0.11865234500000002,0.48925781,0.845214845,0.49991213401680223,0.5000919961303397,0.49996988975427753,55.65,22.35,30.0
0.025146484999999986,0.497070315,0.32324219,0.49984085529374955,0.49999820135093936,0.4999976018303413,-1.2,23.1,19.35,0.5573730450000001,0.517089845,1.0239257800000001,0.4999826799633685,0.5001586117699633,0.5000449655283844,60.6,7.8,93.6,0.08251952999999998,0.49951172000000005,0.8312988299999999,0.4999795490172233,0.5000943942999984,0.4999401125173763,55.5,24.0,28.8
0.022949220000000024,0.509033205,0.298828125,0.4998270658836619,0.5000017319774832,0.4999942710439968,-2.4,23.7,18.45,0.5261230450000001,0.5361328150000001,1.056640625,0.5000109915600303,0.5004066883319858,0.5000532259099346,59.85,6.0,94.05,0.06762695500000002,0.513671875,0.84765625,0.5000014655529729,0.5000866669420017,0.49994044561346407,56.1,22.65,29.25
0.002197265000000016,0.491210935,0.28051758,0.4998008859448819,0.5000387703076715,0.49998867534388197,-2.4,23.7,18.45,0.5283203150000001,0.5302734400000001,1.0366210949999999,0.500042167678327,0.5002077741170671,0.5000081937099728,60.75,7.35,93.45,0.05541991999999999,0.541503905,0.8439941400000001,0.5000177197170302,0.500106851500268,0.4999275222357512,55.35,23.4,29.7
-0.011474609999999984,0.483398435,0.271240235,0.49982866460525666,0.5000115244963174,0.4999862105899123,-0.3,22.2,19.2,0.514160155,0.5729980450000001,1.08496094,0.5000460979852696,0.5001037205541229,0.5000347733291515,60.75,6.15,92.4,0.04931640499999997,0.5637207049999999,0.84863281,0.5000349731693509,0.5000813376663972,0.49993698165849765,56.25,21.75,30.15
-0.02832031500000005,0.47631836,0.270751955,0.49985471128814823,0.49997162173176074,0.4999883422477942,-1.35,23.7,19.5,0.524902345,0.583496095,1.07397461,0.5000237151848103,0.5000389035635598,0.5000431002950128,60.75,6.15,92.4,0.04956054499999999,0.5703125,0.8298339849999999,0.500013323145378,0.5001299670772138,0.49993438364863957,56.4,22.65,29.7
-0.01953125,0.47607422000000005,0.27416992,0.4998772274317623,0.5000217166955503,0.49996142953252787,-1.05,22.95,19.5,0.5270996099999999,0.599609375,1.051757815,0.5000251140662058,0.49998427868496326,0.5000164540915232,60.75,6.15,92.4,0.04199218999999999,0.588378905,0.8342285150000001,0.49999007431254394,0.5001110482317209,0.4999588981942472,56.1,23.1,28.95
-0.00854491999999999,0.486572265,0.29980469,0.4999020084018803,0.49996296175707816,0.49996036374722014,-1.05,22.95,19.5,0.5280761700000001,0.6115722650000001,1.02246094,0.5000161209954355,0.49998587749382456,0.500024647801496,62.7,9.0,93.6,0.06420898499999998,0.604492185,0.837402345,0.4999399793487544,0.5001143124337545,0.5000039303069426,56.1,23.1,28.95
0.0068359399999999935,0.49658202999999995,0.31298828,0.4998966125419648,0.4999719548278485,0.49994877257932535,-0.75,23.1,19.65,0.54345703,0.624023435,1.002197265,0.49998174734668266,0.4999746194220175,0.500055490823705,61.5,7.35,93.15,0.07788085999999998,0.600097655,0.833984375,0.49994590814495693,0.500102921106059,0.49995776573736206,56.1,23.1,28.95
0.01049804499999999,0.49560547000000005,0.32714844,0.49991226718542414,0.4999898078007671,0.4999299204054099,-0.45,22.65,18.6,0.548828125,0.611816405,1.0004882800000001,0.4999898078007671,0.4999859440781355,0.5000659494474482,61.5,7.35,93.15,0.09619140499999998,0.5964355450000001,0.826660155,0.49989894412731256,0.5000587549384721,0.4999719548278485,56.1,23.1,28.95
0.01293945500000001,0.48754883,0.34814453,0.49994137823014984,0.49999293874691225,0.4999403790291531,-1.2,23.85,19.35,0.5646972650000001,0.60498047,0.9978027349999999,0.49997082237096335,0.4999922059704259,0.5000829364752585,60.6,8.55,92.25,0.11083984500000002,0.5871582049999999,0.8264160150000001,0.49986163937261396,0.5000390367321818,0.5000049961795168,56.1,23.4,28.65
0.010253904999999975,0.48876952999999995,0.35107422,0.4999499717077879,0.5000123238571148,0.49992692262788674,-0.45,23.4,19.65,0.57519531,0.5915527349999999,0.9880371099999999,0.499935116425126,0.49998900843996974,0.5000946608117751,61.5,8.4,91.95,0.125,0.57470703,0.834472655,0.49982033763939543,0.49999946706371295,0.49999487056459485,56.7,21.15,28.95
0.012207029999999975,0.478271485,0.364990235,0.4999252572347144,0.500036105626236,0.4999215934395486,-0.45,23.4,19.65,0.5822753900000001,0.5895996099999999,0.981933595,0.4999440429115854,0.4999927389067129,0.5000952603323733,61.05,6.6,92.7,0.13549804499999998,0.55810547,0.8298339849999999,0.49980075268899354,0.4999559670883015,0.4999675581689298,56.25,22.5,28.8
0.014648439999999993,0.47265625,0.379882815,0.49996742500030783,0.5000365719782122,0.49993957966835567,-1.8,22.65,20.4,0.5944824200000001,0.5661621099999999,0.9738769549999999,0.4999518369411595,0.499986676854622,0.5001019219050622,61.05,6.6,92.7,0.161865235,0.5661621099999999,0.8356933599999999,0.4997705091873827,0.49994650766555504,0.5000165206758341,55.65,21.9,29.7
0.00854491999999999,0.469970705,0.376708985,0.49999553675677033,0.5000305099261212,0.49995636676870014,-0.3,22.95,18.75,0.6179199200000001,0.56298828,0.971679685,0.49994757353812924,0.500013323145378,0.5000989242148055,61.8,7.65,92.4,0.16870116999999998,0.5554199200000001,0.8425292950000001,0.49975738588220403,0.4999439762400079,0.5000102587835439,55.65,21.9,29.7
0.010253904999999975,0.47290039,0.389160155,0.4999631615972775,0.5000752090299952,0.4999515038450718,-2.4,24.75,19.2,0.6022949200000001,0.5710449200000001,0.94628906,0.49987696091998557,0.5000165872601451,0.5001108483915215,61.35,8.25,93.6,0.17944336,0.556640625,0.84765625,0.4997583851704672,0.4999516371009602,0.5000094594227464,55.65,21.9,29.7
0.01635741999999999,0.474365235,0.39868164,0.50000472966774,0.5000850015488294,0.4999805482182201,-2.4,24.75,19.2,0.6281738299999999,0.5744628900000001,0.9392089849999999,0.4999159977394338,0.5000600206512457,0.500088865271461,61.35,8.25,92.85,0.17651366999999998,0.560058595,0.8542480450000001,0.4997565865214066,0.49997162173176074,0.5000450321999618,56.55,22.2,28.8
0.017822265000000014,0.48095702999999995,0.396484375,0.5000067948285775,0.5000807381457991,0.500002131657882,-3.15,22.2,19.2,0.6296386700000001,0.5759277349999999,0.967285155,0.4999249242258932,0.500042167678327,0.5001066515728022,60.9,9.3,95.1,0.17993164,0.56298828,0.8547363299999999,0.49976884379421044,0.49999447088419613,0.5000222496318373,56.55,22.2,28.8
0.015625,0.497314455,0.403320315,0.49997115546705106,0.5001147786984641,0.5000161209954355,-0.75,24.9,18.9,0.62597656,0.596191405,0.971191405,0.4999640942139633,0.5000528928138469,0.5000722779240494,60.9,9.0,93.3,0.17163086,0.561035155,0.8586425799999999,0.4997850980455343,0.49999820135093936,0.5000321087349825,56.4,21.9,30.75
0.021728515000000014,0.49584961,0.404785155,0.49999946706371295,0.5001220397917512,0.5000002664245103,-1.8,23.85,18.3,0.624023435,0.5832519549999999,0.986816405,0.4999894081203684,0.500053425750134,0.5001035872982346,61.65,6.75,93.6,0.17163086,0.5588378900000001,0.866210935,0.49978469836513556,0.5000465643372457,0.500003464042233,56.25,22.2,29.1
0.029541015000000014,0.48193359500000005,0.40917969,0.499993405011622,0.5001211071750654,0.5000125236973141,-1.05,23.7,18.45,0.6262207049999999,0.5905761700000001,0.9963378900000001,0.50001072513552,0.5000537588462217,0.5000870666224003,61.65,6.75,93.6,0.16357422000000002,0.56298828,0.87109375,0.4998132098019967,0.5000481630588405,0.5000343070644419,56.7,21.6,30.0
0.028808595000000024,0.489990235,0.403808595,0.4999717549876492,0.5001506179001899,0.4999786164005375,-1.05,23.7,18.45,0.6374511700000001,0.5793457049999999,1.013427735,0.49998887518408136,0.5000279785878405,0.500104853011008,61.05,8.85,93.15,0.15551758000000002,0.5676269549999999,0.8693847650000001,0.4998029510184529,0.5000559570884147,0.5000065283168006,56.7,21.6,30.3
0.025878904999999976,0.47241211,0.39501953,0.4999934716831994,0.5001372281705009,0.4999694234023014,-1.05,23.7,18.45,0.6154785150000001,0.58691406,0.9938964849999999,0.4999900076409665,0.500018585749405,0.5000738767329107,61.05,7.35,93.75,0.14892577999999998,0.5617675799999999,0.8645019549999999,0.49981793955700315,0.5000934616833126,0.49998094789861874,56.1,23.85,28.65
0.024414064999999995,0.475585935,0.392822265,0.5000032642020336,0.500149085762906,0.49999187287433805,-2.25,23.1,18.6,0.61767578,0.58984375,1.00390625,0.49999333842731103,0.5000183859092058,0.5001039203943223,62.85,9.15,93.45,0.14794922000000002,0.5634765650000001,0.8635253900000001,0.49980681465381804,0.500078739656539,0.49997628481518974,55.5,21.0,29.85
0.010253904999999975,0.471679685,0.38671875,0.49998987438507814,0.5001589448660512,0.49998994105665556,-2.7,22.95,18.15,0.60888672,0.5808105450000001,0.9958496099999999,0.49998274654767944,0.5000280451721515,0.5001063851482919,61.05,7.35,92.4,0.14990234500000002,0.57080078,0.865234375,0.4998021516576555,0.5001175765485215,0.499962561989413,55.5,21.0,29.85
0.0007324199999999905,0.474853515,0.360839845,0.4999851447173381,0.5001534824218247,0.4999856110693143,-1.8,21.9,18.3,0.6110839849999999,0.60498047,1.00805664,0.4999958031812807,0.500048895835327,0.5001315658860751,62.4,8.25,92.25,0.13769531499999998,0.544433595,0.862304685,0.49981061179213865,0.5001173767083222,0.500000066584311,57.3,20.7,28.8
-0.008056640000000016,0.46801758,0.34765625,0.5000147220267734,0.5001021217452616,0.500005262604027,-1.8,21.9,18.3,0.615722655,0.59033203,1.020751955,0.49998174734668266,0.5000207840788644,0.5001239716967003,62.7,8.25,92.55,0.130859375,0.5476074200000001,0.86328125,0.49980048626448326,0.5000750757741068,0.4999982680225168,57.3,20.7,28.8
0.015380859999999984,0.47900390499999995,0.344970705,0.4999832794839665,0.5000722113397384,0.5000068614128884,-2.7,24.3,19.2,0.6135253900000001,0.600097655,1.00073242,0.4999990007990032,0.5000106584639425,0.500139759596048,62.7,8.25,92.55,0.127197265,0.53955078,0.8596191400000001,0.49981787288542573,0.5000538254305328,0.4999751523583046,56.1,21.15,30.0
0.025878904999999976,0.490478515,0.34277344,0.4999808813143078,0.5000707457867656,0.5000149218669728,-1.65,22.95,18.15,0.6105957049999999,0.57519531,0.9895019549999999,0.499967225072842,0.5000169869405438,0.5001186424210957,60.15,7.8,92.85,0.134765625,0.541015625,0.858398435,0.49980261792236513,0.5000409019655534,0.4999961362773684,57.0,22.95,28.8
