IMU1_AccX,IMU1_AccY,IMU1_AccZ,IMU1_GyrX,IMU1_GyrY,IMU1_GyrZ,IMU1_MagX,IMU1_MagY,IMU1_MagZ,IMU2_AccX,IMU2_AccY,IMU2_AccZ,IMU2_GyrX,IMU2_GyrY,IMU2_GyrZ,IMU2_MagX,IMU2_MagY,IMU2_MagZ,IMU3_AccX,IMU3_AccY,IMU3_AccZ,IMU3_GyrX,IMU3_GyrY,IMU3_GyrZ,IMU3_MagX,IMU3_MagY,IMU3_MagZ
0.03393554499999999,0.502441405,0.37060547,0.5000825367948597,0.5000582220894514,0.500018052813118,-0.6,22.95,19.2,0.5646972650000001,0.5915527349999999,1.00097656,0.5000413683175295,0.5000371049144993,0.49983072967882763,63.6,8.1,90.9,0.11254883000000002,0.5622558599999999,0.84082031,0.5002845152843461,0.49998234686728066,0.5000270459711548,57.15,24.9,27.45
0.02026366999999999,0.497802735,0.358154295,0.5000606201718436,0.5000620857248166,0.49999080700176385,-0.75,23.1,20.4,0.5607910150000001,0.59863281,0.994628905,0.5000502948039889,0.5000365053939012,0.49983266158377665,63.45,8.25,91.5,0.109375,0.5549316400000001,0.826660155,0.5002822503705758,0.5000091263266587,0.49998707653502067,56.1,23.85,26.4
0.012695314999999993,0.5002441400000001,0.35986328,0.500042101094016,0.5000407687969315,0.50000872664626,0.3,22.95,17.4,0.553222655,0.592285155,0.997558595,0.5000619525561947,0.500038037531185,0.4998281316689696,63.3,7.65,92.7,0.127197265,0.5749511700000001,0.830566405,0.5002552043994211,0.49999034073705423,0.49999487056459485,56.1,23.85,26.4
0.02416991999999999,0.502441405,0.3515625,0.5000752090299952,0.5000023981696587,0.5000019318176826,-0.15,23.85,18.9,0.5500488299999999,0.5993652349999999,0.9909667950000001,0.5000572228011881,0.5000164540915232,0.49983539284952316,64.2,7.8,92.25,0.10229491999999998,0.57470703,0.83154297,0.5002518736130767,0.5000039969785199,0.49999553675677033,56.1,23.85,26.4
0.02661133000000001,0.5061035150000001,0.35083008,0.5000462312411579,0.500022116375949,0.49998740963110844,-0.15,23.85,18.9,0.549316405,0.5949707049999999,1.01171875,0.5000616860444178,0.5000389035635598,0.4998301301582296,64.95,8.55,90.75,0.115234375,0.5703125,0.83544922,0.5002527396454514,0.5000056622844258,0.49996682539244336,57.15,23.4,26.85
0.01879883000000001,0.509033205,0.350341795,0.5000509609088979,0.5000016653931723,0.49993977950855506,-0.6,22.95,20.85,0.548828125,0.599609375,1.0112304699999999,0.5000782733918294,0.5000047963393174,0.4998585750107798,64.95,8.55,90.75,0.110351565,0.5842285150000001,0.828125,0.5002043100748341,0.5000123905286922,0.5000189188454929,56.25,22.95,27.3
0.015380859999999984,0.5078125,0.35058594,0.500047430282354,0.49998141425059495,0.49995157042938276,0.0,24.0,19.5,0.5446777349999999,0.604492185,1.00317383,0.500054091855043,0.5000190521013812,0.4998698996668978,65.1,6.6,92.4,0.10498047000000002,0.57519531,0.8303222650000001,0.5001989808864962,0.5000535589187559,0.5000115244963174,56.7,22.65,25.8
0.020996095000000024,0.491210935,0.353515625,0.5000129234649794,0.4999889417683923,0.4999528361421563,-0.45,21.6,19.65,0.5427246099999999,0.6110839849999999,1.00366211,0.5000399693488676,0.49999913396762513,0.49988468836524874,64.65,8.1,92.4,0.10546875,0.5827636700000001,0.831054685,0.5001929188344052,0.5000051294354051,0.5000035306265439,56.4,23.4,27.9
0.02270508000000001,0.487304685,0.35546875,0.5000090597423477,0.49998347932416587,0.49994164474192665,-0.45,21.6,19.65,0.537109375,0.60888672,0.9870605450000001,0.5000603537473334,0.5000262465230909,0.49990054284890745,64.35,7.35,91.65,0.115234375,0.5859375,0.8229980450000001,0.5001828598910607,0.49999553675677033,0.5000080604540845,57.45,22.35,27.45
0.011230470000000025,0.47509765499999995,0.359375,0.5000228491524354,0.4999383805398931,0.49995756580989625,-0.75,22.65,18.3,0.546875,0.6252441400000001,0.9934082049999999,0.5000431002950128,0.4999992672235135,0.49988522130153584,64.35,7.35,91.65,0.10961914000000002,0.60107422,0.8273925799999999,0.5001684708731085,0.5000043966589187,0.5000206508229761,56.4,23.4,26.85
0.024902345000000024,0.48583984500000005,0.36645508,0.4999928054910239,0.49995430169512917,0.49994164474192665,-0.45,22.35,18.6,0.54638672,0.6328125,0.9816894549999999,0.5000543583668198,0.5000018652333716,0.49992146018366024,64.95,7.05,91.2,0.114257815,0.61035156,0.8288574200000001,0.5001499517952808,0.5000056622844258,0.49999233922631425,56.4,23.4,26.85
0.02661133000000001,0.493164065,0.372558595,0.4999766179112775,0.49994577488906855,0.4999535023343317,-0.3,22.5,19.5,0.5446777349999999,0.639648435,0.9860839849999999,0.5000664823837353,0.5000105252953206,0.4999323851593796,65.4,6.9,91.65,0.11645508000000002,0.6149902349999999,0.8332519549999999,0.5001071179247784,0.5000300436614116,0.4999786164005375,55.8,22.95,27.0
0.03833008000000001,0.50708008,0.38354492,0.49996869062581495,0.4999323851593796,0.49996229556490274,-0.6,22.95,19.5,0.5495605450000001,0.64160156,0.9943847650000001,0.5000543583668198,0.49999487056459485,0.499964627062984,65.4,6.9,91.65,0.118164065,0.6145019549999999,0.84472656,0.5000752090299952,0.500013389729689,0.49997828330444977,55.8,22.95,27.0
0.05371093999999999,0.5056152349999999,0.39453125,0.4999437763998085,0.4999473070263524,0.49991160108051513,-0.6,22.95,19.5,0.55517578,0.643554685,0.9963378900000001,0.5000141225061755,0.500015321634638,0.4999820803555039,64.05,6.6,91.95,0.11450195500000002,0.616210935,0.8371582049999999,0.5000359724576141,0.5000070612530877,0.49999267232240197,57.6,23.7,26.7
0.05786133000000001,0.50317383,0.392333985,0.4998877526398165,0.49992632310728863,0.49992738897986283,-0.6,22.95,19.5,0.5419921900000001,0.63720703,0.99560547,0.5000221829602599,0.49997262102002393,0.49998081472999684,65.4,8.4,91.95,0.122070315,0.606933595,0.845214845,0.500042101094016,0.4999776171122743,0.49999646937345615,55.8,22.95,27.0
0.05615234500000003,0.5,0.392333985,0.49988009186613075,0.49994710718615304,0.4999513040048724,-0.45,21.9,20.4,0.5520019549999999,0.63623047,0.99658203,0.5000028644343684,0.49997142189156135,0.49999453755577355,63.15,7.05,92.25,0.10839844,0.60986328,0.845703125,0.5000357059458373,0.49996016381975433,0.4999586983540479,56.7,23.4,27.45
0.0625,0.490966795,0.385253905,0.49983672514660765,0.49995430169512917,0.49991266695308934,-0.15,22.35,20.7,0.54345703,0.6369628900000001,0.98535156,0.5000129234649794,0.49996336143747694,0.5000454318803605,63.15,7.05,92.25,0.12011719,0.6037597650000001,0.845214845,0.500031309374185,0.4999181959816267,0.4999895413762568,56.1,23.4,26.85
0.04638672000000003,0.493408205,0.3828125,0.49982140351196963,0.4999413116458389,0.4999181293973157,0.45,22.65,19.35,0.54248047,0.6330566400000001,0.99316406,0.5000130566336013,0.4999357159457241,0.5000326416712696,63.15,7.05,92.25,0.11938476500000002,0.60546875,0.842773435,0.500017986228807,0.4999174632051403,0.49996882388170333,56.1,23.4,26.85
0.03662109500000003,0.483154295,0.384277345,0.4998170735246283,0.4999221263758357,0.49990780394219453,0.45,22.65,19.35,0.5556640650000001,0.6232910150000001,0.9914550799999999,0.500002664594169,0.49994484227238273,0.5000250474818948,64.5,6.75,91.5,0.11791991999999998,0.5969238299999999,0.8400878900000001,0.5000045964991181,0.49994470901649435,0.499963894373764,57.3,22.95,27.75
0.03540039000000002,0.48583984500000005,0.38208008,0.4998038836351387,0.4999011424567719,0.49991439893057255,0.3,22.2,19.8,0.5634765650000001,0.6218261700000001,1.001953125,0.50000472966774,0.4999257901710015,0.5000728774446475,64.35,7.35,90.9,0.12573241999999998,0.604003905,0.83984375,0.49999020748116585,0.4999181293973157,0.4999559670883015,57.3,22.95,27.75
0.024414064999999995,0.489501955,0.39111328,0.4997562534253188,0.4998932151713094,0.49989907729593447,1.2,22.65,19.95,0.5646972650000001,0.63232422,1.00317383,0.5000176531327193,0.4999300535740318,0.5000803384654003,64.5,7.8,91.8,0.13208008000000002,0.599609375,0.83935547,0.4999739533171085,0.4999271891396635,0.4999427105272344,56.7,21.6,27.15
0.029296875,0.48876952999999995,0.39770508,0.4997714418040685,0.49986623587173207,0.49994004593306535,0.6,21.45,19.8,0.5612792950000001,0.6394042950000001,0.9924316400000001,0.4999822802829697,0.49991366615408606,0.5000876661429985,64.65,8.1,91.35,0.13305664,0.60546875,0.8308105450000001,0.4999588981942472,0.499911134728539,0.49994177791054856,56.1,24.15,26.85
0.033203125,0.49365234500000005,0.40209961,0.4997288077737654,0.49988615391822167,0.49987556203859007,0.0,22.5,20.25,0.561035155,0.646972655,0.9904785150000001,0.49998401226045297,0.49990847013436995,0.5001125137846938,65.1,7.35,91.35,0.13427734500000002,0.6032714849999999,0.813964845,0.4999754188700814,0.4999096025912551,0.4999161975796332,57.3,22.95,27.75
0.015869140000000014,0.48901367,0.40551758,0.49972267913736346,0.4998660360315327,0.4998762948150765,0.0,22.5,20.25,0.56591797,0.6403808599999999,0.966796875,0.49996276182961236,0.49990453982742744,0.5001312327899874,64.65,8.4,91.95,0.171875,0.60986328,0.768066405,0.5000552243119282,0.4998771607601849,0.4999233254170318,58.2,23.85,26.1
0.01635741999999999,0.498046875,0.41845703,0.4997241446903364,0.49981480861085803,0.4998978116704274,0.0,24.3,20.55,0.58642578,0.638183595,0.9685058599999999,0.49998827566348325,0.49991146782462675,0.5001710688829666,64.65,8.4,91.95,0.16552734500000002,0.60205078,0.7658691400000001,0.49998960796056774,0.49995969755504466,0.499901808561681,56.4,23.1,26.4
0.03149414000000002,0.49853515499999995,0.40942383,0.4997183491500222,0.4998087465587671,0.49986430396678305,0.0,24.0,20.55,0.584472655,0.64013672,0.9738769549999999,0.49997401990141943,0.49995370217453117,0.5001682710329091,63.3,6.9,90.9,0.14599609500000002,0.5905761700000001,0.7951660150000001,0.4999134663138867,0.5000249142260064,0.4999028744342552,57.3,23.25,28.05
0.028808595000000024,0.50097656,0.377685545,0.49963794410031087,0.4998306630945167,0.49984152139865856,0.6,22.5,20.85,0.5749511700000001,0.62988281,0.9807128900000001,0.4999835459084768,0.49999920063920256,0.5001842587724562,64.2,7.8,93.3,0.13989258000000002,0.56738281,0.83544922,0.4998565099372088,0.5000694800739921,0.49985344566264117,57.3,23.25,28.05
0.009277345000000025,0.505371095,0.353271485,0.49961469526747676,0.49980728100579414,0.4998612396922153,0.6,22.5,20.85,0.560058595,0.624023435,0.989746095,0.49999094025765234,0.5000265796191786,0.5001838590920574,63.45,7.8,91.8,0.11743164000000002,0.59033203,0.8332519549999999,0.49986983308258687,0.5000927955784036,0.49986263857361074,57.45,22.35,28.05
-0.012451170000000048,0.5041503900000001,0.33984375,0.49959997324070327,0.4997826332042981,0.4998347932416586,1.05,24.3,21.9,0.576660155,0.5949707049999999,1.033935545,0.5000224494720368,0.5002572695602585,0.5001903874088581,65.25,7.5,92.25,0.08935547000000002,0.5905761700000001,0.7878417950000001,0.4999077373578836,0.5000516271010734,0.4998289977013444,57.45,22.35,27.9
-0.0024414049999999746,0.49633789,0.3359375,0.49954261718362664,0.49979275881922003,0.4997998200723077,1.5,23.85,22.8,0.49511719,0.595214845,0.97265625,0.500026646290756,0.5001415581578421,0.5001955168442632,65.1,7.65,91.35,0.06982422000000002,0.5910644549999999,0.7756347650000001,0.4998455849614895,0.49999333842731103,0.4998867534388197,57.45,22.35,27.9
-0.005371095000000025,0.48095702999999995,0.342285155,0.49954275035224854,0.49978909493678775,0.49976484681569044,3.0,25.35,20.7,0.473876955,0.60888672,0.9890136700000001,0.5000085933903716,0.5001320987350957,0.5002174999643237,63.3,8.1,90.9,0.0703125,0.5859375,0.782714845,0.49976478023137944,0.49999920063920256,0.49984831622723597,55.65,21.9,27.45
-0.029296875,0.45727539,0.350097655,0.4995241646028435,0.49981281012159806,0.49978210026801106,2.4,25.5,21.6,0.494384765,0.6169433599999999,0.9938964849999999,0.5000181860690064,0.5001181760691196,0.5002439464148805,63.3,8.1,90.9,0.06909179499999998,0.6022949200000001,0.79394531,0.49970435989973516,0.5000539586864211,0.4998874196309952,56.25,22.2,27.3
-0.022705079999999954,0.44091797,0.36401367,0.49948006510683396,0.4998238016816283,0.49976031698814977,2.4,25.5,21.6,0.49658202999999995,0.6315917950000001,1.028564455,0.4999958698528581,0.5000580888335631,0.5002680612800895,64.2,9.3,91.8,0.064453125,0.612304685,0.81591797,0.49967198465297585,0.5000850681331404,0.49984192116632375,56.55,22.2,27.75
-0.0009765600000000063,0.43334961,0.388671875,0.4995023147386713,0.49980927949505416,0.4998036171233619,0.75,23.85,22.05,0.5148925799999999,0.620117185,1.02416992,0.4999524364617576,0.5000197848778677,0.5003111615751022,64.35,7.35,91.35,0.07470702999999998,0.6081542950000001,0.810546875,0.4996556638173411,0.5000109915600303,0.49987156506007013,57.3,21.45,28.8
0.00854491999999999,0.419433595,0.407226565,0.49951923509490415,0.4998630382540095,0.49984085529374955,2.25,23.85,23.55,0.5224609400000001,0.6110839849999999,1.022216795,0.49994630782535565,0.4999473070263524,0.5003424042777099,63.15,7.8,90.45,0.08740234500000002,0.603027345,0.80126953,0.49960217148289615,0.4999750191024162,0.49986190579712436,56.4,20.85,26.85
0.01049804499999999,0.419677735,0.41381836,0.4994908568266649,0.49990207507345774,0.4998954135007687,2.7,25.5,22.95,0.53466797,0.5944824200000001,0.99707031,0.4999555007363253,0.4999458414733795,0.5003966293886413,63.15,7.8,90.45,0.08740234500000002,0.5915527349999999,0.79296875,0.49956320133502524,0.4999722879239362,0.4999068713255087,56.7,20.1,27.45
0.009521484999999984,0.426757815,0.407958985,0.49953155895201895,0.4999236585131196,0.49996609261595687,2.7,25.5,22.95,0.5432128900000001,0.5856933599999999,0.9792480450000001,0.499971222051362,0.49995203678135886,0.5004064884917865,63.45,9.3,90.75,0.10595702999999998,0.5847167950000001,0.796875,0.49954634765036987,0.4999337174564641,0.4999359823702344,56.7,20.1,27.45
-0.005126955000000009,0.44628906,0.40527344,0.4995183024782183,0.49998188051530457,0.5000285115241276,2.4,26.25,22.95,0.5612792950000001,0.583984375,0.9765625,0.4999397128369776,0.49996742500030783,0.5004310697089716,64.35,8.85,91.65,0.123046875,0.55908203,0.7888183599999999,0.4995205008076777,0.499968624041504,0.49993818069969376,56.7,21.6,26.85
-0.015869140000000014,0.46191406,0.38671875,0.4995306929196441,0.5000069946687767,0.5000752756143062,2.4,24.75,21.9,0.560546875,0.565429685,0.97216797,0.4999207274071738,0.4999956700126587,0.500443193725887,64.35,8.85,91.65,0.126953125,0.5458984400000001,0.80126953,0.4994871929442326,0.4999904739929426,0.49995969755504466,57.45,20.85,27.9
-0.021240234999999986,0.47265625,0.385253905,0.49954188440714015,0.49999007431254394,0.5000889984400829,3.45,27.0,21.3,0.5651855450000001,0.556152345,0.9865722650000001,0.49994124506152793,0.5000359057860366,0.5004258736892554,63.45,9.0,92.85,0.12084960999999998,0.517578125,0.802734375,0.49949278864434743,0.5000210505033748,0.4999815475064833,57.3,20.7,27.3
-0.028564454999999954,0.479492185,0.372802735,0.4995556072329169,0.5000145221865742,0.5001196416220925,1.65,27.0,21.9,0.5656738299999999,0.55029297,0.9992675799999999,0.4999473070263524,0.5000329747673573,0.5004188124361677,64.2,9.3,92.25,0.106445315,0.5126953150000001,0.8078613299999999,0.49946967306740175,0.49999786834211807,0.49997648465538913,58.05,21.75,26.7
-0.03491210999999998,0.48535156,0.373046875,0.49953782084430925,0.5000474969539315,0.5001106485513223,1.65,27.0,21.9,0.5458984400000001,0.55126953,0.98828125,0.499955234311815,0.5000474969539315,0.5004060888113877,62.25,10.35,91.95,0.10595702999999998,0.489990235,0.8103027349999999,0.4994883920726952,0.49998827566348325,0.5000003996803987,57.6,20.25,28.35
-0.027832030000000032,0.49243164,0.376220705,0.4995899142100923,0.49999853444702713,0.5001570796326795,0.0,27.75,22.95,0.548828125,0.5419921900000001,1.001953125,0.49996382770218656,0.5000404357008437,0.5004080873006477,62.25,10.35,91.95,0.11596679499999998,0.46850586,0.80810547,0.49946714164185463,0.49995916461875756,0.5000161209954355,56.1,20.85,27.9
-0.015136719999999968,0.4921875,0.392333985,0.49960283767507163,0.5000414349018405,0.5001456883922505,1.65,29.25,23.7,0.548339845,0.5300292950000001,1.00488281,0.49994504211258206,0.5000424341901037,0.5003998935906748,62.85,9.6,92.4,0.10986327999999998,0.462890625,0.82519531,0.4994908568266649,0.49993138587111635,0.5000215834396619,56.1,20.85,27.9
-0.020996094999999968,0.49926758,0.3984375,0.49963108268742246,0.5000832694840798,0.5001092495826603,3.15,28.5,24.75,0.548339845,0.5417480450000001,1.016601565,0.49994550846455826,0.5000525597177592,0.5003400727796286,63.15,9.0,92.55,0.1171875,0.438964845,0.8229980450000001,0.4994953866542055,0.4999431768792105,0.49999780167054064,56.55,19.95,30.15
-0.007568359999999984,0.513671875,0.40185547,0.4996794455864623,0.5000536255903334,0.5001384272989634,3.15,28.5,24.75,0.55810547,0.5432128900000001,1.01538086,0.49992632310728863,0.5000536921746443,0.5003771776068613,63.75,8.55,91.2,0.10595702999999998,0.418945315,0.81982422,0.49952682928427894,0.4999134663138867,0.49999500382048323,56.55,19.95,30.15
-0.00854491999999999,0.5280761700000001,0.40991211,0.4997179494696235,0.5000736768927114,0.5001279685879537,1.65,28.05,24.0,0.5646972650000001,0.54296875,1.009521485,0.49992952063774476,0.5000241814495199,0.500360923442804,64.35,8.85,91.35,0.12255859500000002,0.40234375,0.8156738299999999,0.49952982697453574,0.4999255237464912,0.49997408648573044,57.6,19.95,30.15
-0.008056640000000016,0.5295410150000001,0.40576172,0.49971988128730604,0.5001173101240112,0.500088865271461,2.4,30.3,22.65,0.579589845,0.520996095,1.001220705,0.49990134229697125,0.5000477633784418,0.5003267496342506,62.85,12.15,91.35,0.127197265,0.399658205,0.8303222650000001,0.49956539966448466,0.49996902372190266,0.49997368680533166,57.15,19.8,27.9
-0.006103515000000016,0.5231933599999999,0.40576172,0.49975452144783566,0.5001027879374371,0.5000911967695423,2.4,28.5,21.9,0.5822753900000001,0.506591795,1.0073242199999999,0.4998836224926746,0.5000444992636747,0.5002976385895249,62.55,11.85,92.4,0.13427734500000002,0.39379883,0.8254394549999999,0.4996156278841626,0.4999743529975072,0.49996109643644016,57.45,21.15,28.65
-0.007324220000000025,0.5192871099999999,0.40307617,0.49980461641162516,0.5001074510208661,0.5000830030595694,1.5,30.45,22.8,0.58935547,0.49658202999999995,0.9841308599999999,0.4999038736352519,0.5000617527159953,0.5003050995230113,62.55,11.85,92.4,0.13671875,0.38745117,0.80859375,0.4996508008937128,0.5000522266216714,0.4999382472840047,55.8,20.25,29.85
-0.008300779999999975,0.5078125,0.395751955,0.49979968681641934,0.5001047197551197,0.5000257135868038,1.5,30.45,22.8,0.59326172,0.49365234500000005,0.994628905,0.49991246711288995,0.5000640176297656,0.5002857809971197,62.25,11.85,92.4,0.142822265,0.38671875,0.8283691400000001,0.49966305816651657,0.500106851500268,0.49995583383241304,56.55,18.75,29.1
-0.022949219999999968,0.5056152349999999,0.385498045,0.4998421210065231,0.5000796722732249,0.5000680145210191,1.5,30.45,22.8,0.596191405,0.497070315,0.99609375,0.49991879558949126,0.5000593545463365,0.5002240949527019,62.25,9.9,92.7,0.13208008000000002,0.369384765,0.83544922,0.49968177717181006,0.5001318988948963,0.49992858802105894,57.45,20.1,27.9
-0.017089844999999968,0.5129394549999999,0.380615235,0.49988382233287393,0.500058155417874,0.5000667488082455,3.0,30.15,23.85,0.588867185,0.50341797,1.0034179699999999,0.4999262565229777,0.5000879992390862,0.5002176998917897,63.15,10.5,92.25,0.13720702999999998,0.384765625,0.8220214849999999,0.49973493641016736,0.5001254372496732,0.4999247243856938,57.45,20.1,27.9
-0.011474609999999984,0.52001953,0.377441405,0.4998822901955901,0.5000774073594546,0.5000298438212122,0.6,31.05,22.95,0.5803222650000001,0.505859375,0.9997558599999999,0.4999083368784816,0.5000986577030287,0.5002090398298406,63.6,10.65,93.15,0.12109375,0.39379883,0.8359375,0.49974166465443376,0.5001733337967369,0.4999481064744163,57.45,20.1,27.9
-0.008789060000000007,0.529296875,0.375976565,0.49990660490099836,0.5000624854924818,0.5000500949637895,1.65,29.85,22.35,0.5754394549999999,0.50708008,1.0073242199999999,0.4999115344962042,0.5001034540423461,0.5001549479747975,63.75,10.5,92.55,0.10986327999999998,0.399902345,0.8361816400000001,0.4997852978857336,0.5001384272989634,0.4999339172966634,55.65,19.8,28.95
0.0014648450000000254,0.5246582049999999,0.377197265,0.4999134663138867,0.5000341072242425,0.5000746095093972,1.65,29.85,22.35,0.55126953,0.50317383,1.0209960949999999,0.4999189954296906,0.5000913300254307,0.5001468874334466,62.25,10.65,92.7,0.10058594,0.41357422,0.821777345,0.4998378576034928,0.5000925290666268,0.499932518415268,56.55,20.7,29.1
0.017578125,0.5146484400000001,0.37402344,0.4999323851593796,0.5000730773721133,0.5000189188454929,0.45,31.95,24.15,0.548828125,0.5114746099999999,1.01538086,0.49993151912700473,0.5001015888089745,0.5001290344605279,62.7,9.75,92.25,0.11206054499999998,0.426757815,0.8269042950000001,0.4998361922103205,0.5000902641528565,0.4999352495937479,57.15,18.3,28.95
0.017578125,0.514160155,0.37036133,0.4999676248405072,0.500042767198925,0.5000510941647862,0.45,29.7,22.8,0.5466308599999999,0.50830078,1.0249023449999999,0.49996023049133176,0.5001096493503254,0.500111647752319,62.7,9.75,92.25,0.09790039000000002,0.43774414,0.842285155,0.4998461845693541,0.5001086500620622,0.4999115344962042,57.3,18.45,27.3
0.00903320500000001,0.48901367,0.376220705,0.4999762182308788,0.5000503613882998,0.5000765413270797,0.75,30.45,24.15,0.563964845,0.4921875,1.016601565,0.49994870599501434,0.500075542126083,0.5000983246942075,62.85,10.65,92.4,0.08544922000000002,0.43823242,0.82470703,0.49988815240748163,0.5000856010694275,0.49995017154798727,57.9,19.35,29.25
0.0026855449999999906,0.47753906,0.37475586,0.499991339938051,0.5000472971137321,0.5000543583668198,0.0,31.35,20.85,0.54296875,0.506835935,1.0151367199999999,0.49997182157196013,0.5000963927892584,0.5000930620029139,64.35,8.85,93.15,0.08862304499999998,0.443359375,0.82910156,0.4998783598886475,0.5000810045703094,0.49996515999927105,58.05,19.95,29.1
-0.003662109999999984,0.47509765499999995,0.37866211,0.5000293108849251,0.5000644838944752,0.5000502948039889,0.0,31.35,20.85,0.560058595,0.5,1.00708008,0.5000183859092058,0.5000943277156874,0.5000922626421165,62.7,10.05,91.8,0.098632815,0.444091795,0.8395996099999999,0.4998625719892998,0.5000976585020319,0.49999420445968584,58.05,19.95,29.1
-0.0009765600000000063,0.478271485,0.387939455,0.5000871332067113,0.5000319088947831,0.5000804716340224,0.75,30.15,23.55,0.5546875,0.50463867,1.017333985,0.5000110582316077,0.5000911967695423,0.500092129386228,62.7,10.05,91.8,0.10498047000000002,0.43847656,0.8322753900000001,0.4998908170016507,0.5000965260451468,0.4999883422477942,57.45,18.6,28.65
0.0078125,0.494384765,0.397216795,0.5000626186611037,0.5000597542267353,0.5000822702830829,0.45,32.4,22.8,0.5573730450000001,0.51123047,0.9978027349999999,0.5000342403928644,0.5000778070398533,0.5000693468181037,63.75,11.25,92.25,0.11254883000000002,0.456054685,0.823242185,0.49988981780065395,0.5001164440916364,0.49999840119113875,57.45,18.6,28.65
0.01831054499999999,0.5119628900000001,0.40234375,0.500078739656539,0.5000535589187559,0.500067481584732,1.35,30.6,22.95,0.5651855450000001,0.5207519549999999,0.9934082049999999,0.5000586217698502,0.500070945626965,0.5000646837346746,64.2,9.75,91.8,0.12475585999999998,0.45288086,0.8342285150000001,0.49985917453137785,0.5001208407505551,0.5000225160563477,58.35,18.45,28.35
0.026367189999999995,0.524902345,0.40576172,0.5001241715368996,0.5000637511179888,0.5000772741035662,1.35,30.6,22.95,0.5603027349999999,0.544433595,1.0004882800000001,0.500057489312965,0.5000632848532791,0.5000629517571914,64.2,9.75,91.8,0.118164065,0.44970703,0.82861328,0.49991832923751506,0.5001205076544674,0.5000221829602599,59.4,20.25,28.35
0.037109375,0.5300292950000001,0.41015625,0.5000749426054849,0.5000955267568835,0.5000417679979283,0.0,29.85,22.35,0.5439453150000001,0.5588378900000001,0.986816405,0.5000530926540463,0.5000366385625231,0.500046764177445,62.85,10.35,92.7,0.1171875,0.47021484500000005,0.8205566400000001,0.49990500609213706,0.500108916573839,0.5000409686371309,58.05,19.5,29.1
0.04638672000000003,0.5314941400000001,0.405029295,0.5000378376909856,0.5001273024830447,0.5000336408722663,0.3,31.35,22.35,0.57519531,0.5788574200000001,0.9836425799999999,0.500064150885654,0.5000688805533939,0.5000662825435359,62.25,11.1,92.4,0.12817383000000002,0.467773435,0.841796875,0.4998836224926746,0.5001328315115822,0.5000345734889522,55.8,18.75,27.75
0.037109375,0.529785155,0.397216795,0.5000444325920973,0.5001279685879537,0.5000748759339075,0.3,31.05,22.65,0.5515136700000001,0.578125,0.9885253900000001,0.5000599540669347,0.500068813969083,0.5000542916952424,62.85,10.65,92.7,0.10986327999999998,0.466064455,0.8359375,0.4998944142125055,0.5000961263647481,0.5000039969785199,58.95,18.6,28.95
0.027832029999999976,0.5246582049999999,0.392822265,0.5000123905286922,0.5001348966724196,0.5000572894727656,0.6,30.6,21.6,0.563964845,0.58203125,0.9982910150000001,0.5000328415114689,0.5000666156396236,0.5000470306019553,62.85,10.65,92.7,0.11865234500000002,0.466796875,0.821777345,0.49984758345074953,0.500070945626965,0.4999868101105104,56.7,18.3,26.85
0.008789064999999993,0.5187988299999999,0.396240235,0.500002131657882,0.500131699054697,0.5000542251109314,-0.45,30.9,22.5,0.5646972650000001,0.5910644549999999,1.0131835949999999,0.500031375958496,0.5000629517571914,0.500075542126083,63.3,11.4,91.95,0.12939452999999998,0.45678711,0.8371582049999999,0.49977543878258845,0.5001133798170687,0.4999877427271962,56.7,18.3,26.85
0.012695314999999993,0.5114746099999999,0.405029295,0.5000257135868038,0.5000729441162249,0.5000664157994243,0.75,31.65,22.05,0.5739746099999999,0.5793457049999999,1.013671875,0.4999990673833142,0.5000367718184114,0.500073610221134,63.45,10.05,91.8,0.11352539000000002,0.455810545,0.8332519549999999,0.4997975551585374,0.5001094494228596,0.49996675880813235,57.3,18.0,28.05
0.024902345000000024,0.51123047,0.404541015,0.49997581855048007,0.5000973920775217,0.5000413016459521,0.15,31.65,21.75,0.5837402349999999,0.5705566400000001,1.00805664,0.5000002664245103,0.5000063950609122,0.5001045864992313,63.45,10.05,91.8,0.114257815,0.46533203,0.8332519549999999,0.49979449079670324,0.5000504946441883,0.4999581654177608,58.8,18.45,28.35
0.027832029999999976,0.5124511700000001,0.40136719,0.49998068147410846,0.5000852679733397,0.500019984718067,1.65,30.3,22.95,0.62988281,0.560546875,0.978515625,0.4999479065469505,0.49985677644898563,0.5001133131454912,64.35,9.9,92.4,0.12158202999999998,0.47412109500000005,0.8391113299999999,0.499790826914271,0.500064217469965,0.49995669986478786,57.9,19.8,27.9
0.019287109999999986,0.5139160150000001,0.400634765,0.5000132564738006,0.500038703636094,0.500062818501303,1.65,30.3,22.95,0.59033203,0.5705566400000001,0.9963378900000001,0.49996249540510207,0.49994837289892663,0.5001083169659745,63.75,10.05,92.85,0.127197265,0.44970703,0.846191405,0.49983732466720565,0.5000445658479856,0.4999640275423859,57.6,19.2,26.7
0.017089845000000024,0.51904297,0.403564455,0.49998601074971294,0.500053425750134,0.5000690803935933,0.15,30.9,23.85,0.5812988299999999,0.5539550799999999,0.98876953,0.49995949771484527,0.49995530089612594,0.500092129386228,62.55,11.4,92.7,0.126953125,0.44897461,0.8359375,0.4998561768411211,0.5000476302098198,0.4999503047166092,57.15,19.05,27.9
0.019287109999999986,0.5146484400000001,0.412841795,0.4999976018303413,0.5000457648891817,0.5000600206512457,-0.3,31.35,21.6,0.595703125,0.5466308599999999,0.9895019549999999,0.49999780167054064,0.4999821470270813,0.500113579657268,62.55,11.4,92.7,0.12890625,0.42871094,0.85644531,0.4998445191761818,0.5000390367321818,0.49995876493835884,57.45,19.8,27.9
0.014648439999999993,0.5114746099999999,0.415283205,0.5000363721380128,0.5000169203562328,0.5000847350370526,1.05,32.55,21.3,0.600097655,0.5373535150000001,0.998046875,0.49999260565082454,0.5000265796191786,0.5001111148160319,63.3,11.1,91.35,0.13256836,0.40991211,0.8532714849999999,0.49986183921281335,0.5000324418310702,0.49996749158461884,57.45,19.8,27.9
0.019775390000000014,0.5227050799999999,0.415771485,0.5000125903688916,0.5000431002950128,0.5000851347174513,1.05,32.55,21.3,0.5993652349999999,0.52783203,1.0043945300000001,0.49999600302148,0.4999948039802839,0.5001273024830447,63.15,12.0,94.05,0.11352539000000002,0.392822265,0.84716797,0.49990433998722805,0.5000356393615264,0.4999807480584194,57.45,19.8,27.9
0.022949220000000024,0.5319824200000001,0.412353515,0.5000229824083238,0.5000273789799761,0.5001028545217481,-1.05,32.1,22.95,0.58544922,0.5217285150000001,0.991210935,0.4999798154417336,0.5000136562414658,0.500067481584732,62.55,11.85,92.4,0.12402344,0.390625,0.853515625,0.49996276182961236,0.49999680246954387,0.49998967454487875,57.15,17.55,27.45
0.027587890000000014,0.5380859400000001,0.41357422,0.5000551577276172,0.5000177863886077,0.5000921960578055,0.45,30.9,22.05,0.59082031,0.524902345,1.00073242,0.49997648465538913,0.500002598009858,0.5000429004548135,62.25,11.1,92.4,0.125,0.38696289,0.8547363299999999,0.4999854111418484,0.4999954701724594,0.4999848782928278,57.15,17.55,27.45
0.03540039000000002,0.5390625,0.40136719,0.5000105252953206,0.5000292443006141,0.5000606201718436,-0.15,31.2,22.05,0.580566405,0.53125,1.01098633,0.4999902741527433,0.5000166539317226,0.5000460979852696,62.55,10.65,92.4,0.11352539000000002,0.388183595,0.846191405,0.5000235819289219,0.49997202141215946,0.49999527033226004,59.7,18.6,27.9
0.04003906499999999,0.529296875,0.392578125,0.5000234486730334,0.5000557572482153,0.5000474969539315,-0.15,30.45,20.4,0.5676269549999999,0.525390625,1.0043945300000001,0.4999998667441116,0.5000131233051787,0.5000346401605296,62.7,10.05,92.25,0.11669922000000002,0.39453125,0.837402345,0.500035506105638,0.49997934917702397,0.4999656929355582,58.5,17.85,28.65
0.03271484500000003,0.53466797,0.38183594,0.500048762666705,0.5000327749271579,0.5000614196199076,-0.15,30.45,20.4,0.55810547,0.5270996099999999,1.005126955,0.5000113912404289,0.49999786834211807,0.4999977350862297,62.7,10.05,92.25,0.09936523499999998,0.39404297,0.834472655,0.5000309096065199,0.5000003996803987,0.4999600972354434,58.5,18.3,28.2
0.023193359999999986,0.5305175799999999,0.3671875,0.5000425673587257,0.5000317090545837,0.5000529593981579,0.6,31.05,20.85,0.55517578,0.5285644549999999,1.018310545,0.5000084602217496,0.4999868101105104,0.5000023981696587,62.4,12.0,92.25,0.09838866999999998,0.399414065,0.8420410150000001,0.500042767198925,0.5000041301471418,0.49997495251810525,58.05,18.45,28.35
0.024902345000000024,0.541503905,0.368164065,0.500066215959225,0.5000439663273876,0.5000275789074419,-2.7,32.1,22.65,0.5446777349999999,0.53125,1.01928711,0.5000208506631754,0.49997308728473366,0.4999938047792871,63.3,11.1,93.15,0.08984375,0.388671875,0.8327636700000001,0.5000361722978134,0.49996416079827427,0.4999467075057544,57.6,19.5,27.75
0.021484375,0.5446777349999999,0.35913086,0.5000810045703094,0.5000249808975838,0.5000444992636747,-0.6,31.05,21.6,0.560058595,0.5290527349999999,1.02734375,0.5000216501112393,0.499948506154815,0.4999820803555039,63.15,10.05,92.55,0.08935547000000002,0.391601565,0.849121095,0.500055424239394,0.4999660260316459,0.499944509176295,58.8,17.7,28.05
0.028808595000000024,0.55078125,0.36328125,0.5000548246315295,0.5000283115966618,0.5000471638578438,-0.6,31.05,21.6,0.5563964849999999,0.51953125,1.03833008,0.49998900843996974,0.4999507710685853,0.4999687572973924,63.15,10.05,92.55,0.07373047000000002,0.380615235,0.8376464849999999,0.5000907970891436,0.49992965389363314,0.49995017154798727,58.8,17.7,28.05
0.03295898499999998,0.55126953,0.364746095,0.500047363698043,0.5000373047546985,0.5000399027645567,-0.6,31.05,21.6,0.5554199200000001,0.5197753900000001,1.043945315,0.500000066584311,0.4999259900112009,0.49996122969232853,64.2,11.55,93.3,0.08349609500000002,0.37939453,0.8515625,0.5000565566962792,0.4999200612149983,0.49991879558949126,59.25,19.35,27.9
0.03051758000000001,0.5515136700000001,0.3671875,0.5000579555776746,0.5000071278373986,0.5000492955157256,-0.6,31.35,21.6,0.5588378900000001,0.525390625,1.05102539,0.4999780168799394,0.4999038736352519,0.49993591578592345,63.15,12.0,91.5,0.06958008000000002,0.360595705,0.8654785150000001,0.5000583552580733,0.4999222595444577,0.49990087594499516,59.25,19.35,27.9
0.029785154999999976,0.5427246099999999,0.357666015,0.5000318422232056,0.5000195183660909,0.5000311761182967,-0.75,32.4,20.4,0.5646972650000001,0.5144042950000001,1.06665039,0.4999630283413891,0.49985431160774946,0.49993778101929504,62.7,11.55,93.3,0.05712890499999997,0.360839845,0.8640136700000001,0.5000704793622552,0.4999090030706571,0.49990174197737003,57.6,16.95,28.35
0.026855470000000024,0.5319824200000001,0.35449219,0.5000382373713844,0.49999080700176385,0.5000398361802457,-1.35,31.35,22.65,0.5537109400000001,0.5095214849999999,1.05932617,0.4999534356627543,0.49985477795972566,0.4999025413381674,62.7,11.55,93.3,0.06079101500000002,0.33642578,0.8684082049999999,0.5001306998537002,0.49987069911496174,0.49988189051519133,57.15,17.55,28.65
0.013916015000000016,0.5280761700000001,0.34277344,0.5000598874826238,0.49996649238362206,0.5000750091897959,-0.3,32.55,22.35,0.5227050799999999,0.48901367,1.05102539,0.4999379808594944,0.49979502373299034,0.4999283881808596,61.95,11.25,92.85,0.06005859500000003,0.333007815,0.86328125,0.5001616094602201,0.49982806508465866,0.4999004762645965,57.9,18.3,26.85
0.010009765000000016,0.5224609400000001,0.34301758,0.5000654831827385,0.49994857273912596,0.5000215834396619,-0.3,32.55,22.35,0.5703125,0.48120117,1.056396485,0.4999140658344848,0.49974659416237305,0.49988475494955975,61.8,11.1,93.75,0.07446289000000002,0.341064455,0.8596191400000001,0.5002112381593,0.4997857641504433,0.49991000227165383,58.35,18.0,27.3
-0.005126955000000009,0.5234375,0.35571289,0.5000712787230527,0.49992372509743055,0.50000199848926,-0.3,32.55,21.6,0.55078125,0.458496095,1.01245117,0.4999201944708867,0.49978449843766976,0.4998660360315327,61.35,10.05,93.6,0.09326172000000002,0.350097655,0.841308595,0.5002743897566907,0.499763381349984,0.4999232588327209,58.35,18.0,27.3
0.008056640000000016,0.52685547,0.369628905,0.5001306998537002,0.49984152139865856,0.5000443660077863,-0.3,30.6,20.85,0.5573730450000001,0.443359375,0.998535155,0.4999249242258932,0.4997503913006937,0.4998305298386283,61.35,10.05,93.6,0.12329101500000002,0.37939453,0.8151855450000001,0.5003137595849603,0.49972361184131575,0.49996955665818976,57.6,17.7,29.85
0.013183595000000025,0.5234375,0.37915039,0.5001728009477162,0.49983592569854374,0.49999367152339874,0.15,30.45,21.75,0.588378905,0.436035155,0.9875488299999999,0.49997288744453433,0.4997856975661323,0.49976584610395364,61.8,11.4,91.95,0.14819336,0.40136719,0.8010253900000001,0.5003354762805106,0.4997421309191434,0.5000349065850399,57.6,17.7,29.85
0.02416991999999999,0.5185546900000001,0.385253905,0.5001596776425375,0.4998387902201786,0.5000057955403142,0.15,30.45,21.75,0.591796875,0.451660155,0.9558105450000001,0.500024647801496,0.4998200712148851,0.4997205474794816,61.05,9.9,93.45,0.169921875,0.43017578,0.7976074200000001,0.5003018354082441,0.4998151416196793,0.5000136562414658,57.15,17.1,30.0
0.03540039000000002,0.50732422,0.38671875,0.5002059754680065,0.4998000199125071,0.5000015321372838,-0.75,31.2,22.8,0.600585935,0.47802734500000005,0.9411621099999999,0.5000574226413875,0.4998409218780605,0.4997144854273906,61.05,9.9,93.45,0.18359375,0.444335935,0.798339845,0.500296106452241,0.49985504438423595,0.5000237817691212,57.15,17.1,29.7
0.03662109500000003,0.50073242,0.380126955,0.5002195651251612,0.49982266922474317,0.5000217166955503,1.05,31.35,20.85,0.60546875,0.505859375,0.9519042950000001,0.5000899310567688,0.4998763613993875,0.49970322744285,62.25,9.15,92.7,0.18896484500000002,0.4765625,0.7912597650000001,0.5002693269055966,0.499935116425126,0.5000239150250096,57.15,17.55,30.75
0.02075195500000001,0.493896485,0.37792969,0.5002109050632122,0.49983306126417537,0.5000057955403142,0.3,29.55,20.85,0.5954589849999999,0.53955078,0.9367675799999999,0.5000961263647481,0.4999116676648261,0.49969450079659006,61.35,10.5,92.25,0.18847656499999998,0.497070315,0.8015136700000001,0.500223228920327,0.4999842121006523,0.5000540252707321,57.3,16.95,31.5
0.008789064999999993,0.493164065,0.375,0.5002925758256971,0.4998003530085949,0.500074143157421,0.15,30.45,22.8,0.5900878900000001,0.568359375,0.942871095,0.5001051861070958,0.4999435765596092,0.4997327381679744,60.75,9.6,93.15,0.17919922000000002,0.5163574200000001,0.798339845,0.500178396647831,0.5000269792995773,0.5000704793622552,57.3,16.95,31.5
-0.00903320500000001,0.4921875,0.375,0.5003224862312202,0.4997920260427336,0.5000563568560799,0.15,30.45,22.8,0.5900878900000001,0.596191405,0.9685058599999999,0.5001115145836971,0.49994004593306535,0.4997447289290015,60.75,9.6,93.15,0.17041015499999998,0.5402832049999999,0.8078613299999999,0.5001324318311835,0.5000262465230909,0.5000784732320288,56.7,17.55,29.7
-0.005859375,0.497802735,0.38256836,0.5003377411942809,0.4998046829959361,0.5000603537473334,-0.15,31.65,21.75,0.5866699200000001,0.6252441400000001,0.9953613299999999,0.5000861340057146,0.4999679578493285,0.4997934250113955,62.4,9.75,92.55,0.13696289,0.5490722650000001,0.8107910150000001,0.5000599540669347,0.500047363698043,0.500056156928614,57.15,18.3,30.3
0.014160154999999975,0.498779295,0.400390625,0.5003938315385839,0.4997786363130446,0.5000506944843875,1.5,30.15,22.8,0.571777345,0.634277345,0.99951172,0.5000697465857689,0.4999467075057544,0.49982746556406055,62.4,10.5,92.25,0.12036133000000002,0.5656738299999999,0.8093261700000001,0.500009259582547,0.5000890651116604,0.5000567565364785,57.15,18.3,30.3
0.005615234999999984,0.5275878900000001,0.403320315,0.5003791095118104,0.49978589740633167,0.5000248476416954,1.35,31.8,21.9,0.57763672,0.630371095,1.0014648449999999,0.500035506105638,0.49994284378312276,0.49988215693970167,62.4,10.5,92.25,0.103515625,0.5646972650000001,0.799316405,0.4999782167201388,0.5000738767329107,0.5000636845336779,58.5,19.35,30.0
0.025634765000000014,0.5319824200000001,0.39453125,0.500365519941922,0.4998206041511722,0.5000184524935167,1.35,31.8,21.9,0.5539550799999999,0.6437988299999999,1.00317383,0.4999949372361723,0.49993385071235247,0.49991213401680223,63.15,10.05,94.05,0.09204101500000002,0.560546875,0.8107910150000001,0.4999434433037208,0.5000794058487146,0.5000716118191404,58.5,19.35,30.0
0.01953125,0.5446777349999999,0.387939455,0.500378310151013,0.49982973047783086,0.500009326166858,0.6,28.5,21.9,0.545410155,0.623046875,1.012939455,0.499986676854622,0.4999074709333732,0.49993951299677825,60.45,11.1,92.4,0.080078125,0.548828125,0.8059082049999999,0.499928521436748,0.5000491623471037,0.5000563568560799,59.1,16.65,30.15
0.011474609999999984,0.537109375,0.375976565,0.5003361423854196,0.49987816004844815,0.5000101256149219,1.35,29.55,21.9,0.5334472650000001,0.6379394549999999,1.0209960949999999,0.499913066633488,0.49992199311994734,0.49995010487640984,60.15,9.75,92.25,0.06494140499999998,0.537109375,0.8068847650000001,0.4998762948150765,0.500026113354469,0.5000759418064817,57.9,17.85,30.0
0.00024414000000001578,0.541015625,0.36328125,0.5002991707268087,0.499917796301228,0.4999802151221323,1.2,29.4,21.75,0.52294922,0.5959472650000001,1.030029295,0.4999189954296906,0.49986097318043854,0.4999594311305343,60.15,9.75,92.25,0.05395508000000001,0.5187988299999999,0.806152345,0.49984278711143215,0.500005196019716,0.5000965260451468,57.45,19.05,29.7
-0.01049804499999999,0.53466797,0.358154295,0.500287446390292,0.49991559797176865,0.49996216230901436,1.35,27.75,22.65,0.51220703,0.6037597650000001,1.0073242199999999,0.4999393131565789,0.4998880857359042,0.5000025314255471,61.65,10.8,93.3,0.04614258000000001,0.5041503900000001,0.8249511700000001,0.49983612553874307,0.4999808813143078,0.5000729441162249,57.0,18.0,29.1
-0.004638669999999991,0.52001953,0.357177735,0.500267328503603,0.4999497051960111,0.4999499717077879,1.35,27.75,22.65,0.491210935,0.604492185,0.99316406,0.49990234149796803,0.49983459340145925,0.49998794256739554,60.0,9.15,93.15,0.05737304499999999,0.48461914,0.8308105450000001,0.4997992205517097,0.49997775036816267,0.5000679479367082,57.6,19.95,30.15
-0.01660156500000005,0.51098633,0.364257815,0.5002193652849619,0.4999783498887607,0.49992465771411637,0.75,29.4,21.45,0.5456542950000001,0.58984375,1.0424804699999999,0.4998832893965868,0.4998279318287703,0.4999948039802839,61.5,9.6,91.95,0.05981445500000001,0.47192383,0.8312988299999999,0.4998111447284258,0.49995110416467303,0.5000809379859984,57.6,16.95,29.4
-0.015136719999999968,0.5212402349999999,0.36401367,0.5002244280487896,0.4999545015353285,0.49993818069969376,2.7,27.75,22.35,0.54638672,0.5686035150000001,1.025146485,0.49988055821810684,0.49981773962953735,0.5000011324568852,61.35,9.3,95.4,0.06933594,0.46850586,0.822753905,0.4998391899005773,0.49990713783728546,0.5000638843738772,57.6,16.95,29.4
-0.01660156500000005,0.510498045,0.365722655,0.5002119709357864,0.499967225072842,0.49993844712420404,1.05,28.05,21.9,0.5598144549999999,0.56298828,0.9792480450000001,0.4998674349129282,0.4998598407235534,0.5000178529729187,61.05,8.85,94.2,0.07495116999999998,0.455810545,0.82080078,0.4998693667306108,0.49988162400341457,0.5000678813523972,56.7,17.55,30.0
-0.013183594999999968,0.506835935,0.372558595,0.5001668721515137,0.5000269792995773,0.49992185986405896,1.05,28.05,21.9,0.5729980450000001,0.54638672,1.006591795,0.49989701222236355,0.4998406554535502,0.5000397695086682,60.6,9.3,92.55,0.09790039000000002,0.448242185,0.822753905,0.499877693696472,0.4998696998266985,0.5000591547061373,57.3,17.7,29.4
-0.018798829999999954,0.509033205,0.37158203,0.5001787297439187,0.49996555976693624,0.4999431768792105,0.6,28.05,21.9,0.5832519549999999,0.5334472650000001,1.0131835949999999,0.4999038736352519,0.4998447190163811,0.5000355727772153,60.6,9.3,92.55,0.10595702999999998,0.43359375,0.8156738299999999,0.499897078893941,0.49990380705094095,0.5000480964745295,57.15,17.85,30.0
-0.025634765000000014,0.501220705,0.387939455,0.5001569463767911,0.49996988975427753,0.4999588315226698,2.4,28.05,20.85,0.5881347650000001,0.5285644549999999,1.0043945300000001,0.49992725572397445,0.4998505145566953,0.5000206508229761,61.05,8.4,93.45,0.11645508000000002,0.427734375,0.8127441400000001,0.4999580321618724,0.4998936148517081,0.500057555897276,56.1,17.85,31.8
-0.011230470000000025,0.490966795,0.392333985,0.5001257702584944,0.49999820135093936,0.4999103353677416,1.35,26.25,21.9,0.5930175799999999,0.5185546900000001,0.97998047,0.4999161975796332,0.49989528024488034,0.5000174532925199,59.85,8.25,92.25,0.12939452999999998,0.428222655,0.80175781,0.4999832128996555,0.49991573122765703,0.5000883323351739,58.35,18.45,31.5
-0.005126955000000009,0.49194336,0.38989258,0.5001172434524338,0.49995929787464594,0.4999439762400079,1.5,25.65,23.55,0.5915527349999999,0.5114746099999999,0.9660644549999999,0.49995290272646725,0.4999122006011132,0.4999790160809362,59.7,9.15,96.0,0.146240235,0.42529297,0.798339845,0.5000043299873413,0.49992425803371765,0.500055557408016,56.1,19.05,30.75
-0.0031738300000000094,0.490234375,0.395507815,0.5001060520522042,0.4999769510073652,0.4999387802202918,1.5,25.65,23.55,0.6066894549999999,0.501464845,0.9738769549999999,0.49998188051530457,0.4999547679598389,0.4999906071615645,60.75,9.9,94.8,0.15551758000000002,0.42163086,0.7854003900000001,0.5000357059458373,0.4999592312030685,0.5000550911433063,56.1,19.05,30.75
0.0014648450000000254,0.49194336,0.395507815,0.5000705459465662,0.4999970688940542,0.49994364314392015,2.25,26.1,21.45,0.59765625,0.50073242,0.975585935,0.5000013989686619,0.4999815475064833,0.49995603367261243,59.55,7.5,94.35,0.16015625,0.41772461,0.79394531,0.5000542251109314,0.5000075941893748,0.5000512274206746,56.4,18.3,30.0
0.0068359399999999935,0.505371095,0.392822265,0.500056156928614,0.4999859440781355,0.4999609632678182,3.0,25.65,22.5,0.59082031,0.5114746099999999,0.959472655,0.5000251807377831,0.4999788162407368,0.4999419778380144,58.8,8.25,94.35,0.154541015,0.41430664,0.798339845,0.5000904639930558,0.5000391034037592,0.5000510941647862,56.4,18.3,30.0
-0.0048828100000000065,0.49975586,0.39086914,0.5000419012538166,0.49999307200280063,0.499983945676142,1.8,27.15,21.0,0.59863281,0.509033205,0.9685058599999999,0.5000260466828915,0.5000171201964322,0.4999106684638293,58.8,8.25,94.35,0.15283202999999998,0.416503905,0.7951660150000001,0.5001305665978119,0.5000318422232056,0.5000553575678166,56.4,19.35,31.05
0.008056640000000016,0.5,0.396972655,0.5000155880591484,0.5000147220267734,0.49995983081093304,1.8,27.15,21.0,0.5842285150000001,0.5134277349999999,0.96826172,0.5000321087349825,0.5000216501112393,0.49990760410199514,58.8,8.25,94.35,0.15478515499999998,0.419921875,0.7990722650000001,0.5001660061191389,0.5000506944843875,0.500042101094016,57.6,17.7,30.15
0.006347654999999975,0.494873045,0.41040039,0.5000187190052935,0.5000141890904864,0.49996262866099045,1.8,27.15,21.0,0.59082031,0.50830078,0.9699707049999999,0.5000413016459521,0.5000458981450702,0.49990274117836675,59.55,7.8,93.3,0.150390625,0.431884765,0.796875,0.5002096393504387,0.5000418345822393,0.5000616194601069,57.6,17.7,30.15
0.009765625,0.49145508,0.415283205,0.500024647801496,0.500013456314,0.49999487056459485,1.05,26.55,21.6,0.584472655,0.508789065,0.9519042950000001,0.500042101094016,0.5000654831827385,0.4998548445440366,60.0,8.85,92.7,0.15307616999999998,0.43286133,0.7482910150000001,0.5002735237243159,0.4999993338078245,0.5000272458113542,56.4,18.6,29.7
0.023193359999999986,0.49560547000000005,0.41796875,0.49999673579796644,0.5000626186611037,0.4999746860935949,1.8,25.65,22.8,0.60253906,0.5256347650000001,0.958984375,0.5000428338705024,0.5000700130102791,0.49987163173164756,58.95,7.65,93.45,0.16918945500000002,0.43774414,0.78076172,0.5001613430357098,0.5000917297058294,0.5000309096065199,55.65,18.6,30.3
0.04711914000000002,0.489501955,0.411132815,0.4999824801231691,0.50008480170863,0.49996089659624077,2.7,26.55,20.85,0.6015625,0.5295410150000001,0.9865722650000001,0.5000553575678166,0.5000917962901403,0.49985224653417853,58.95,7.65,93.45,0.150146485,0.44873047,0.830078125,0.5001546148787098,0.500183126315571,0.5000343070644419,57.15,19.05,31.05
0.052734375,0.5,0.384521485,0.49999873428722647,0.5000903307371675,0.5000105918796316,3.75,26.25,21.3,0.57421875,0.5451660150000001,0.97363281,0.5000844686125423,0.5000887985998836,0.4998467840899521,60.9,9.0,93.3,0.11328125,0.46142578,0.854003905,0.500136295553815,0.5001492190187944,0.49999160644982776,56.1,19.8,31.35
0.01879883000000001,0.49975586,0.365478515,0.49998294638787877,0.5001396929244705,0.49998641043011166,3.75,26.25,21.3,0.57861328,0.5744628900000001,0.9987792950000001,0.5000673484161101,0.5001169770279235,0.4998504478851179,61.65,9.75,93.6,0.11547851500000002,0.46875,0.865722655,0.5001017886491739,0.5000978583422313,0.5000031309461451,56.1,19.8,31.35
-0.012939454999999952,0.51171875,0.36010742,0.5000057955403142,0.5001436233186796,0.5000057955403142,0.45,26.7,21.75,0.57910156,0.568359375,0.9968261700000001,0.5000500949637895,0.500104853011008,0.49986723507272884,61.65,9.75,93.6,0.09814452999999998,0.48388672000000005,0.8566894549999999,0.5001349632567306,0.5000433668067895,0.4999774839436523,56.7,17.85,29.7
0.004638669999999991,0.49682617,0.36352539,0.5000569563766779,0.5001245712172983,0.5000141225061755,-0.3,25.8,21.6,0.5681152349999999,0.5666503900000001,1.01464844,0.5000544249511308,0.5000958598529712,0.4998802917063301,59.25,8.1,94.2,0.09228515499999998,0.49462890499999995,0.849609375,0.5000927289068261,0.5000429670391244,0.49999673579796644,56.7,17.85,29.7
0.025878904999999976,0.501464845,0.37475586,0.5000402358606444,0.500128967876217,0.499984611781051,2.25,26.1,21.75,0.5632324200000001,0.571777345,1.0258789050000001,0.5000359724576141,0.5000736768927114,0.4998560436724992,60.6,8.55,94.05,0.06762695500000002,0.50488281,0.8518066400000001,0.500070945626965,0.5001060520522042,0.4999828131319904,56.55,19.5,29.85
0.027832029999999976,0.501464845,0.381103515,0.5000409686371309,0.5001324318311835,0.49998334606827743,2.25,26.1,21.75,0.5534667950000001,0.569335935,1.03540039,0.50002617993878,0.5000469640176444,0.49988402217307326,60.9,9.3,94.35,0.064453125,0.5146484400000001,0.8483886700000001,0.5001204410701564,0.5000974586618326,0.5000007327764865,57.3,19.95,29.4
0.013671875,0.501953125,0.37158203,0.5000665489680463,0.500104919595319,0.500017986228807,1.35,25.8,21.9,0.537109375,0.5812988299999999,1.029296875,0.5000367718184114,0.49999853444702713,0.49989621286156616,60.9,9.3,94.35,0.07543945500000002,0.51904297,0.841796875,0.5001326316713828,0.5000774739437656,0.50000472966774,57.45,18.3,28.95
0.008056640000000016,0.506347655,0.35180664,0.5000526929736476,0.5000780734643636,0.5000116577522058,0.45,23.85,20.7,0.5944824200000001,0.591796875,1.020751955,0.5000211837592632,0.5000235153446109,0.4999191285983125,60.75,8.85,94.2,0.08178710999999998,0.513671875,0.838378905,0.5001677380966221,0.5000452320401612,0.49999233922631425,58.95,18.6,29.25
0.017578125,0.5236816400000001,0.345458985,0.5000705459465662,0.500064150885654,0.5000061286364019,0.3,26.55,21.3,0.5686035150000001,0.58691406,1.01977539,0.500040102604756,0.5000330413516683,0.49992772207595054,61.65,8.55,92.55,0.07983398499999998,0.49609375,0.83154297,0.5001987143747194,0.5000216501112393,0.4999997335754897,58.95,18.6,29.25
0.008056640000000016,0.5388183599999999,0.357421875,0.5000920628019171,0.5000183193248948,0.5000161875797464,-0.15,26.4,20.7,0.55810547,0.5827636700000001,1.0092773449999999,0.5000173200366316,0.5000285781084386,0.4999223262160351,61.05,8.4,94.2,0.08764648499999998,0.486083985,0.83203125,0.5001982481100097,0.49999393794790903,0.50002617993878,58.2,18.6,29.7
0.017333984999999986,0.541503905,0.353271485,0.5000458981450702,0.5000225827279251,0.499975352198504,-0.15,26.4,20.7,0.5739746099999999,0.580078125,1.013916015,0.49999233922631425,0.49994590814495693,0.4999274555641738,61.35,8.25,93.3,0.09277344,0.47802734500000005,0.8259277349999999,0.5002150352103542,0.4999805482182201,0.5000099923590335,58.2,18.6,29.7
0.01049804499999999,0.5319824200000001,0.3515625,0.5000546914629076,0.49997581855048007,0.49996609261595687,1.05,26.55,20.85,0.580078125,0.557128905,1.010742185,0.4999646937345614,0.500019984718067,0.4999203277267751,60.75,8.85,94.2,0.10229491999999998,0.46166992,0.8259277349999999,0.50020724118078,0.49999766841465226,0.5000035972108549,57.3,19.5,29.1
0.00854491999999999,0.5329589849999999,0.357177735,0.5000480298902186,0.4999389134761802,0.4999889417683923,1.2,26.1,21.45,0.5783691400000001,0.5495605450000001,0.9895019549999999,0.4999884755036826,0.5000170536121212,0.4999022749136571,60.45,7.35,93.15,0.11645508000000002,0.459472655,0.8181152349999999,0.5001986477904085,0.49997035601898715,0.5000270459711548,56.25,20.25,29.4
0.014160154999999975,0.52392578,0.37036133,0.5000358392017257,0.4999519035254705,0.49994837289892663,1.2,25.35,21.75,0.5725097650000001,0.5458984400000001,0.9826660150000001,0.5000151883787497,0.4999932051714226,0.4999008093606842,60.45,7.35,93.15,0.12524414,0.45385742,0.8288574200000001,0.5001941178756013,0.49993764776340666,0.500015321634638,56.25,19.5,29.4
0.027587890000000014,0.50830078,0.39770508,0.5000616860444178,0.49992758882006216,0.4999704892748756,1.2,25.35,21.75,0.59423828,0.52783203,0.98388672,0.4999900076409665,0.49999420445968584,0.49989115009773843,60.0,8.85,93.45,0.14038086,0.44604492,0.8278808599999999,0.5001721347555408,0.4999165972600319,0.5000113912404289,56.1,20.1,29.7
0.021240234999999986,0.50097656,0.40234375,0.5000931286744913,0.49991966153459966,0.4999910069292297,3.0,24.15,20.7,0.5949707049999999,0.53955078,0.98876953,0.5000135229855773,0.499991339938051,0.499897145478252,60.0,8.1,94.2,0.14160156499999998,0.463623045,0.83154297,0.5001777304556555,0.4999167305159203,0.5000081271256619,56.55,21.45,27.75
0.023193359999999986,0.48388672000000005,0.416015625,0.5000672151602218,0.49992425803371765,0.5000098591031451,0.6,25.8,21.3,0.61279297,0.5380859400000001,0.9753417950000001,0.5000082602942838,0.4999951370763716,0.4998862205025326,61.05,8.85,92.7,0.14746093999999998,0.46069336,0.83935547,0.5001713353947433,0.49993365087215313,0.5000363055537018,58.2,18.6,29.25
0.01635741999999999,0.49536133,0.423095705,0.5000905972489442,0.49997615164656783,0.4999626952453014,1.2,25.65,21.75,0.6154785150000001,0.537597655,0.986328125,0.5000149218669728,0.5000286446927495,0.4998800252818198,61.35,8.55,92.85,0.14916991999999998,0.466552735,0.833984375,0.500181061242,0.4999407121252408,0.5000231822485232,58.2,18.6,29.25
0.01293945500000001,0.49951172000000005,0.420654295,0.5001147121141531,0.4999504379724976,0.5000299769898341,1.05,25.05,20.85,0.6022949200000001,0.5341796900000001,0.9709472650000001,0.5000305099261212,0.500033507616378,0.4998772940160733,60.15,7.5,92.55,0.150146485,0.486572265,0.8259277349999999,0.50019178637752,0.499948506154815,0.4999937381077097,57.3,19.95,29.1
0.010253904999999975,0.50463867,0.419433595,0.5000983246942075,0.4999900076409665,0.49999447088419613,1.05,25.05,20.85,0.608398435,0.5354003900000001,0.9753417950000001,0.5000563568560799,0.5000434999754114,0.49984658424975276,61.35,9.3,92.25,0.14819336,0.48022461,0.82421875,0.5002111049034116,0.4999713553072504,0.4999892082801691,57.3,19.95,29.1
0.002197265000000016,0.5129394549999999,0.41357422,0.5001191087730719,0.5000047963393174,0.49999400461948645,1.35,25.5,21.6,0.6066894549999999,0.556152345,0.991210935,0.5000650835023398,0.5000432335509012,0.49985131391749277,61.35,9.3,92.25,0.14550781499999998,0.48681640499999995,0.82861328,0.500181061242,0.5000035306265439,0.4999831462280781,57.3,19.95,29.1
-0.0026855449999999906,0.51123047,0.412597655,0.5001288346203286,0.49999187287433805,0.5000159211552361,0.75,25.35,20.7,0.59814453,0.564941405,0.9802246099999999,0.5000383706272727,0.5000691469779043,0.49982593333951025,61.05,7.35,92.4,0.14208984500000002,0.50097656,0.82373047,0.5001894547921723,0.5000504946441883,0.5000023981696587,57.45,20.1,28.2
