IMU1_AccX,IMU1_AccY,IMU1_AccZ,IMU1_GyrX,IMU1_GyrY,IMU1_GyrZ,IMU1_MagX,IMU1_MagY,IMU1_MagZ,IMU2_AccX,IMU2_AccY,IMU2_AccZ,IMU2_GyrX,IMU2_GyrY,IMU2_GyrZ,IMU2_MagX,IMU2_MagY,IMU2_MagZ,IMU3_AccX,IMU3_AccY,IMU3_AccZ,IMU3_GyrX,IMU3_GyrY,IMU3_GyrZ,IMU3_MagX,IMU3_MagY,IMU3_MagZ
0.024414064999999995,0.423583985,0.40966797,0.5002481431463334,0.49980148546548003,0.500011258071807,0.75,18.3,21.0,0.655273435,0.5595703150000001,1.0102539050000001,0.4999907404174529,0.49998188051530457,0.49981027869605094,58.05,6.0,95.7,0.134521485,0.478515625,0.8811035150000001,0.500201179128689,0.4999257235866905,0.49993977950855506,55.8,20.25,31.5
0.03540039000000002,0.447021485,0.426757815,0.500260666930914,0.4997691768902982,0.5000336408722663,1.2,18.3,22.05,0.6501464849999999,0.5676269549999999,0.9885253900000001,0.4999681577767943,0.4999684242013046,0.49979135985055806,58.95,5.4,94.8,0.16381836,0.49682617,0.8811035150000001,0.50018978788826,0.49992805508477184,0.4999188621738022,56.55,19.2,31.2
0.030761720000000024,0.45800781,0.443603515,0.5002015788963542,0.49976404745489306,0.49996182921292653,0.3,18.45,21.6,0.6540527349999999,0.5593261700000001,0.9821777349999999,0.49997215466804784,0.4999907404174529,0.499806148548909,59.25,6.15,95.25,0.154052735,0.487304685,0.8723144549999999,0.5002001133433813,0.49995610034418986,0.49991606432374475,56.7,19.35,32.4
0.03686523499999998,0.46875,0.444335935,0.500187722814689,0.4997044264840461,0.4999652932551594,2.1,17.7,18.75,0.655273435,0.56201172,0.9670410150000001,0.49995916461875756,0.4999890750242807,0.4998140758343716,58.2,3.9,94.8,0.16699218999999998,0.493408205,0.8671875,0.5001991140551181,0.4999565666088995,0.4998966125419648,56.7,19.35,32.4
0.03173827999999997,0.46801758,0.431640625,0.5001487526668182,0.49968883842489775,0.49994530853709246,-0.3,18.45,20.85,0.6457519549999999,0.5322265650000001,0.9616699200000001,0.4999313192868054,0.5000071945089761,0.49980821362247996,58.2,3.9,94.8,0.17456054499999998,0.49365234500000005,0.8610839849999999,0.5002074410209794,0.49997681775147684,0.4999103353677416,56.7,19.35,32.4
0.015380859999999984,0.447998045,0.4453125,0.5001242381212105,0.49970629171741776,0.4998688338815901,1.2,16.8,20.7,0.65234375,0.560546875,0.9665527349999999,0.4999600306511324,0.49999080700176385,0.49981727336482773,58.35,3.3,94.35,0.18237304499999998,0.49462890499999995,0.8620605450000001,0.500216500763327,0.49999833460682774,0.499926456363177,56.55,19.5,32.25
-0.007324220000000025,0.44067383,0.45629883,0.5001019884893733,0.4997164839166506,0.49988042496221846,1.8,16.8,21.45,0.638671875,0.5344238299999999,0.93017578,0.49996715848853107,0.49996156278841625,0.49981347622650707,59.25,4.95,94.2,0.17553711,0.5129394549999999,0.86767578,0.5001955168442632,0.5000433668067895,0.4999229923209441,56.55,19.5,32.25
0.0,0.43823242,0.45654297,0.5001477534658214,0.49970602529290736,0.49988069138672875,2.55,17.1,21.45,0.6877441400000001,0.52294922,0.9948730450000001,0.4999554341520143,0.4999269892994641,0.49983199539160117,59.25,4.95,94.2,0.181396485,0.48925781,0.860839845,0.500265396598654,0.5000105918796316,0.4999435765596092,56.55,19.95,33.0
-0.0048828100000000065,0.44897461,0.470947265,0.5001251041535855,0.49977317378155167,0.4998783598886475,1.65,16.2,20.55,0.640625,0.49975586,0.9719238299999999,0.5000405022851547,0.5000169869405438,0.49978150074741295,58.35,5.25,95.1,0.17919922000000002,0.49072265499999995,0.846191405,0.5002756554694643,0.5000537588462217,0.4999295873093222,55.8,19.5,32.25
-0.010009765000000016,0.436035155,0.46484375,0.5001119808484067,0.49983146245531407,0.4998429869516315,1.65,16.2,20.55,0.655273435,0.5041503900000001,0.94482422,0.49996156278841625,0.5000262465230909,0.4998230023208309,58.2,3.45,95.25,0.1796875,0.494140625,0.83935547,0.5003172902115042,0.5000072610932871,0.49993298467997765,57.3,19.2,32.25
-0.016113280000000032,0.428222655,0.45727539,0.5001164440916364,0.49991333305799834,0.4998778269523604,1.5,17.1,22.05,0.7072753900000001,0.45776367,0.9313964849999999,0.5000097258472568,0.5001036538825455,0.4997836990768723,58.8,4.05,95.7,0.18066406499999998,0.493408205,0.82080078,0.5002889785275758,0.5000746095093972,0.4999682243611053,58.05,19.2,31.5
-0.03930664000000002,0.416748045,0.44165039,0.5001096493503254,0.4999963361175678,0.4998327281680876,3.15,16.65,22.35,0.67138672,0.5224609400000001,0.94628906,0.5000067948285775,0.500053492334445,0.499806081964598,58.8,4.05,95.7,0.16894531499999998,0.48803711,0.8454589849999999,0.5002706592899475,0.5000934616833126,0.49993245174369055,58.05,19.2,31.5
-0.04467773499999998,0.40283203,0.42114258,0.5001318988948963,0.5000656830229379,0.49981567455596637,2.1,16.65,21.6,0.6027832049999999,0.545410155,0.974121095,0.49997635148676717,0.49999573659696966,0.4998072144214832,59.1,2.55,95.1,0.16088866999999998,0.46435547,0.83984375,0.5002770543508598,0.5000998568314913,0.499959897395244,57.0,18.75,33.0
-0.04467773499999998,0.381103515,0.41430664,0.5001730007879156,0.5000989242148055,0.49982926412585477,1.65,16.2,21.6,0.5703125,0.5280761700000001,0.9753417950000001,0.49999367152339874,0.4999397128369776,0.4998024180821658,59.1,3.0,95.7,0.138671875,0.484375,0.8371582049999999,0.5002785199038327,0.500121773367241,0.49995236979018015,57.0,18.75,33.0
-0.03686523499999998,0.368652345,0.389404295,0.5001792625929394,0.5001953835883749,0.4998300635739186,1.65,16.2,21.6,0.5964355450000001,0.51171875,0.990234375,0.4999951370763716,0.5000698131700798,0.49979209262704455,58.2,4.65,93.45,0.122070315,0.455810545,0.84716797,0.5002763215743733,0.5000381707870735,0.49998547781342584,56.7,19.05,32.1
-0.026123045000000046,0.358154295,0.37915039,0.5002329548548502,0.5002366853215934,0.4998506478125837,1.8,15.6,21.45,0.59716797,0.5300292950000001,1.00708008,0.5000724111799378,0.500124371377099,0.49979675571047355,58.95,4.65,94.8,0.098632815,0.473876955,0.8566894549999999,0.5002446125197896,0.500060087322823,0.49995250304606853,56.25,19.5,31.2
-0.022216795000000046,0.364746095,0.361083985,0.5002889785275758,0.500258668441654,0.49987056585907336,2.25,16.05,21.45,0.6125488299999999,0.53955078,1.032470705,0.5000144556022632,0.5001673384162233,0.4997817672591897,59.1,3.0,94.35,0.07861327999999998,0.487060545,0.85644531,0.5002476768816237,0.5000661492876476,0.4999565000245885,55.65,19.05,31.05
-0.016357420000000046,0.375976565,0.349853515,0.5002575359847689,0.5002790528401198,0.4998648369030701,1.8,17.55,20.4,0.5979003900000001,0.51098633,1.0424804699999999,0.5000099256874561,0.5001034540423461,0.4998437197281179,59.1,3.3,94.35,0.07080077999999998,0.470703125,0.860839845,0.500211771095587,0.5000459648166476,0.4999542351108182,55.8,18.75,34.35
-0.005126955000000009,0.39453125,0.34716797,0.5002520735405425,0.5002829165627514,0.4998948805644816,1.8,17.55,20.4,0.564453125,0.50439453,1.02246094,0.5000239816093206,0.5000812044105087,0.4998230023208309,59.1,3.3,94.35,0.06787109500000002,0.489990235,0.875,0.5002097059347497,0.5000198514621786,0.49996156278841625,56.1,19.05,31.05
-0.00903320500000001,0.39794922,0.33618164,0.5002579356651675,0.5002356194490192,0.49993385071235247,1.35,15.9,21.6,0.5832519549999999,0.5202636700000001,1.037841795,0.5000453652087831,0.5000921960578055,0.49983072967882763,58.95,3.9,94.8,0.05786133000000001,0.5017089849999999,0.8820800799999999,0.5001978483423445,0.5000095260070574,0.4999350497535486,55.2,19.5,31.2
-0.00048827999999997475,0.37939453,0.33959961,0.5002102388710368,0.5002070413405807,0.49993311793586603,1.05,14.4,21.9,0.5856933599999999,0.5227050799999999,1.05761719,0.5000411018057528,0.5000696133298804,0.4998151416196793,59.55,3.3,94.05,0.06176758000000001,0.50854492,0.8845214849999999,0.500235952545107,0.5000039303069426,0.4999563001843892,55.2,19.5,31.2
0.0012207050000000094,0.369628905,0.329101565,0.5001718683310304,0.5001747327653988,0.4999353828496363,1.8,13.05,21.75,0.587402345,0.52783203,1.052001955,0.5000570895452998,0.5000592878747592,0.49982107041588186,60.6,3.0,95.1,0.06542969,0.5173339849999999,0.884765625,0.500258601857343,0.49997575187890264,0.49997894949662525,57.45,18.3,31.8
0.023681640000000014,0.36328125,0.329589845,0.5001498851237034,0.5001099157748358,0.49997108879547364,2.1,14.4,21.6,0.5822753900000001,0.5390625,1.03100586,0.5000666822239346,0.5000800053693126,0.49981087830391546,60.6,3.0,95.1,0.07861327999999998,0.52783203,0.87841797,0.5002897113040623,0.49997475267790586,0.4999852779732265,57.45,18.3,31.8
0.03149414000000002,0.35888672,0.33935547,0.5001168437720351,0.5000503613882998,0.5000293108849251,2.1,14.4,21.6,0.579589845,0.5280761700000001,1.041259765,0.5001067182443797,0.500044166167587,0.49982353525711803,60.6,3.0,95.1,0.09130859500000002,0.5329589849999999,0.85986328,0.5003290145480209,0.49992665620337634,0.4999842121006523,56.7,19.05,30.75
0.03759765499999997,0.353027345,0.341064455,0.5001027212658596,0.5000071278373986,0.49998641043011166,1.05,13.95,19.8,0.579589845,0.5354003900000001,1.0180664050000001,0.5001105152954338,0.5000553575678166,0.49981167766471285,59.85,3.3,93.3,0.10693359500000002,0.5446777349999999,0.84423828,0.5003565267838853,0.49991426567468417,0.4999965359577671,56.7,18.6,31.8
0.06494140499999998,0.353759765,0.37011719,0.5001093162542377,0.49994697393026466,0.5000057955403142,0.15,16.05,19.65,0.563964845,0.5417480450000001,0.997558595,0.5001076508610655,0.5000458315607592,0.499823601841429,60.0,3.15,94.2,0.12182616999999998,0.55859375,0.834960935,0.5003563935279969,0.49994604131357884,0.4999713553072504,56.55,18.75,31.95
0.06884765499999998,0.368164065,0.38354492,0.5000840689321436,0.499947173770464,0.4999928054910239,0.75,13.8,22.5,0.5764160150000001,0.5593261700000001,0.9948730450000001,0.5001141791778662,0.500046697593134,0.4998443859202934,60.0,3.15,94.2,0.13940429499999998,0.5642089849999999,0.82519531,0.5003317458137674,0.49997648465538913,0.49999726873425354,56.4,18.3,30.3
0.06005859500000003,0.381591795,0.388671875,0.500055490823705,0.49992119375914995,0.500042767198925,0.75,13.8,22.5,0.5859375,0.5720214849999999,0.999023435,0.5001066515728022,0.5000203843984657,0.49984358655949596,59.25,4.2,92.7,0.14550781499999998,0.596191405,0.8415527349999999,0.5003164907634402,0.49996555976693624,0.5000022649137703,56.4,18.3,30.3
0.04785156499999999,0.399414065,0.40307617,0.5000577557374754,0.49990160872148165,0.5000383039556954,-0.6,13.2,20.85,0.5925292950000001,0.5871582049999999,0.982421875,0.5001127136248932,0.49998707653502067,0.4998731638689314,61.65,4.05,94.35,0.15991211,0.59326172,0.837402345,0.5002701263536604,0.4999794157613349,0.5000409686371309,56.4,18.3,30.3
0.04516601500000002,0.40551758,0.4140625,0.5000122572728039,0.49992292573663316,0.49999447088419613,1.65,13.95,20.55,0.596191405,0.5983886700000001,0.966308595,0.5001023881697719,0.5000231822485232,0.49990953600694416,60.15,3.0,94.65,0.16552734500000002,0.60205078,0.8371582049999999,0.5002337542156476,0.49999726873425354,0.5000275789074419,56.7,20.55,29.7
0.04174804499999999,0.39770508,0.427001955,0.49994710718615304,0.49994617456946727,0.500006728157,1.5,12.75,21.0,0.6047363299999999,0.6037597650000001,0.96142578,0.5001027879374371,0.5000028644343684,0.4999295873093222,60.15,3.0,94.65,0.17822265499999998,0.61279297,0.8352050799999999,0.5002055757876077,0.5000001998401994,0.5000327082555805,56.7,20.55,29.7
0.04003906499999999,0.393066405,0.42626953,0.4999309196064067,0.49995769906578463,0.4999832794839665,1.05,14.4,20.25,0.60253906,0.6140136700000001,0.954589845,0.5000766745829681,0.4999964027891452,0.49994577488906855,59.25,2.7,93.75,0.18481445500000002,0.6267089849999999,0.83984375,0.5001438231588788,0.5000032642020336,0.5000697465857689,57.9,19.35,31.8
0.03344726500000002,0.38598633,0.419921875,0.4998935482673971,0.5000253805779825,0.49998687669482134,1.05,14.4,20.25,0.6130371099999999,0.6174316400000001,0.95410156,0.5000911301852313,0.49999400461948645,0.49999200613022643,60.75,3.9,92.7,0.18334961,0.630859375,0.849121095,0.5000838690919442,0.5000769410074785,0.5000404357008437,55.5,19.5,32.25
0.021484375,0.38745117,0.41723633,0.49990140888128226,0.5000626186611037,0.5000173200366316,1.35,13.95,21.3,0.6174316400000001,0.62548828,0.9631347650000001,0.5000520267814721,0.5000055291158039,0.5000009992009967,60.75,3.9,92.7,0.17529297000000002,0.6203613299999999,0.8552246099999999,0.5000187855896044,0.5001103154552344,0.5000497618677018,55.65,21.15,29.7
0.01953125,0.38647461,0.40649414,0.4998726975169553,0.5000971921500559,0.5000186523337161,-0.45,14.55,21.0,0.6171875,0.61425781,0.98046875,0.5000531592383572,0.5000310428624083,0.5000522266216714,60.9,4.5,92.55,0.15649414,0.6242675799999999,0.8557128900000001,0.49999660262934453,0.5001235720163015,0.5000443660077863,57.45,20.1,30.3
0.011230470000000025,0.39355469,0.384765625,0.49987709417587395,0.5000610199395088,0.5000865336861133,1.05,14.4,21.3,0.606933595,0.6062011700000001,0.982421875,0.5000526929736476,0.5000245811299187,0.5000909969293429,58.95,4.95,93.75,0.15112304499999998,0.618652345,0.8576660150000001,0.49996882388170333,0.5001141125935551,0.5000559570884147,56.55,19.2,30.9
0.005371095000000025,0.40258789,0.36328125,0.4998635046059856,0.50008953137637,0.5000489625069043,1.05,14.4,21.3,0.587890625,0.60644531,0.9978027349999999,0.5000684142014179,0.5000409686371309,0.5000917297058294,61.65,4.05,94.35,0.12792968999999998,0.6193847650000001,0.8703613299999999,0.49990707116570804,0.5001165106759474,0.5000855344851165,57.9,19.8,30.75
0.008056640000000016,0.41040039,0.341064455,0.4998279318287703,0.5000836025801675,0.5000518935255837,1.2,14.25,21.0,0.584472655,0.60644531,1.013671875,0.5000777404555423,0.5000492289314147,0.5001085834777512,61.65,4.05,94.35,0.10034179499999998,0.62207031,0.8703613299999999,0.4998984111910255,0.5001166439318357,0.5000566232805902,57.9,19.8,30.75
0.0029296899999999935,0.41040039,0.34057617,0.4998046829959361,0.5000734103809346,0.5000711454671642,0.6,14.4,20.25,0.572753905,0.6179199200000001,1.02319336,0.5000893982077481,0.5000283115966618,0.5001475536256221,60.15,3.3,95.1,0.09497070500000002,0.626464845,0.84716797,0.4998479831311482,0.5000810045703094,0.5000742764133095,57.0,21.75,30.45
-0.00854491999999999,0.404785155,0.34326172,0.4998439195683173,0.5000355727772153,0.5000532259099346,2.25,15.3,20.4,0.5617675799999999,0.6159667950000001,1.03833008,0.5000804716340224,0.5000069946687767,0.500144955615764,62.25,5.4,93.75,0.10131835999999998,0.6179199200000001,0.8444824200000001,0.49981414241868255,0.5000285115241276,0.5000651500866508,57.0,21.75,30.45
-0.006591794999999991,0.424316405,0.360839845,0.4998157412275438,0.49998740963110844,0.5000484961549282,1.65,14.4,21.3,0.5861816400000001,0.631347655,1.040039065,0.5000839356762552,0.500002664594169,0.5001739334046014,60.9,5.25,92.25,0.11328125,0.59814453,0.837890625,0.4997998200723077,0.49999573659696966,0.500075542126083,55.65,21.6,31.8
0.0034179700000000254,0.435058595,0.392822265,0.4998228690649425,0.49994410949589635,0.5000563568560799,1.65,14.4,21.3,0.60595703,0.6291503900000001,1.029052735,0.5000989242148055,0.49998041504959817,0.5001902542402362,59.85,4.5,94.35,0.12182616999999998,0.5720214849999999,0.8508300799999999,0.499832261903378,0.4999755520387033,0.5000474969539315,57.45,21.6,28.95
0.029785154999999976,0.458984375,0.40258789,0.4998269326277735,0.4998889517682791,0.5000691469779043,1.65,14.4,21.3,0.62207031,0.6171875,1.013916015,0.5000706125308773,0.49996023049133176,0.5002093062543509,60.6,4.05,94.65,0.13159179499999998,0.5456542950000001,0.8435058599999999,0.499848249642925,0.49996442722278467,0.5000760750623701,57.9,20.55,30.3
0.06030273499999998,0.482421875,0.40600586,0.4997858308220207,0.49988348932405263,0.5000169869405438,1.2,13.5,20.4,0.6193847650000001,0.57519531,0.993652345,0.500013389729689,0.4999708889552743,0.5002237618566141,59.85,4.05,94.65,0.12866211,0.5126953150000001,0.83935547,0.49986310492558694,0.4999837457486762,0.5000546914629076,56.1,21.15,30.3
0.0703125,0.48291015499999995,0.403320315,0.49975585374492015,0.499873030613043,0.49999833460682774,0.75,14.85,20.4,0.6105957049999999,0.5412597650000001,0.966308595,0.5000329080957798,0.5000068614128884,0.5001926524098949,59.85,4.05,94.65,0.12890625,0.48510742,0.8347167950000001,0.499895080404681,0.4999673583287304,0.5000409019655534,57.6,19.95,30.45
0.06176758000000001,0.47973633,0.384521485,0.49977370671783883,0.49984385298400635,0.4999794823456459,1.2,14.55,21.75,0.578125,0.5341796900000001,0.9494628900000001,0.500020117886689,0.4999925390665136,0.5001850582205201,60.0,5.4,94.5,0.127197265,0.458984375,0.8259277349999999,0.4999225926405454,0.4999546347912169,0.5000472971137321,57.6,19.5,31.2
0.05541991999999999,0.45019531,0.3828125,0.49972061406379253,0.49988968454476557,0.49996216230901436,1.2,14.55,21.75,0.5607910150000001,0.521972655,0.9416503900000001,0.5000301102457225,0.5000027978500574,0.500165006918142,59.25,5.7,94.8,0.14160156499999998,0.43774414,0.825683595,0.4999333843603764,0.4999543682794401,0.5000516936853844,57.6,19.5,31.2
0.03271484500000003,0.428466795,0.373779295,0.4997418644946331,0.49990560570000164,0.4999281883406603,2.7,14.4,20.85,0.5749511700000001,0.5341796900000001,0.950683595,0.5000324418310702,0.5000069279971994,0.500140292532335,59.55,6.3,95.1,0.146728515,0.41455078,0.83203125,0.49995823200207173,0.4999477733783286,0.5000306431820095,57.15,20.55,30.75
0.026367189999999995,0.3984375,0.387695315,0.49978909493678775,0.4999033406989648,0.4999563001843892,1.8,16.8,20.4,0.572753905,0.5261230450000001,0.9714355450000001,0.5000167871003445,0.49998094789861874,0.5001079839571532,60.15,5.55,94.35,0.140625,0.39892578,0.83154297,0.499993271843,0.49993438364863957,0.5000169869405438,56.1,20.55,31.05
0.018066404999999976,0.40527344,0.40161133,0.49979802142324714,0.49996336143747694,0.49999267232240197,2.1,16.65,20.25,0.578125,0.51513672,0.978027345,0.4999780834642504,0.5000071945089761,0.5001013889687752,60.15,5.55,92.85,0.138916015,0.396728515,0.86376953,0.4999994004794019,0.4999626952453014,0.49999813476662835,55.65,20.1,31.35
0.03222656499999999,0.39892578,0.415039065,0.49981567455596637,0.5000099923590335,0.5000431668793237,1.8,15.3,20.7,0.678222655,0.46533203,1.0141601550000001,0.4999835459084768,0.5001437564873015,0.5000692802337926,58.8,5.25,93.3,0.11669922000000002,0.397216795,0.8674316400000001,0.5000297771496347,0.49997548545439235,0.4999938713635981,56.1,21.6,30.75
0.03051758000000001,0.40576172,0.39746094,0.499852313205756,0.5000442994234754,0.5001171768681228,1.8,15.3,20.7,0.623046875,0.462646485,0.994628905,0.499983945676142,0.5000793391771372,0.5000372381703876,58.8,5.25,93.3,0.10424804499999998,0.41821289,0.890625,0.5000783399761404,0.49993618221043373,0.4999998667441116,57.15,21.15,31.05
0.02026366999999999,0.42089844,0.3671875,0.49986823427372556,0.5001004563520893,0.5001588782817401,1.5,16.05,21.75,0.57373047,0.432373045,0.99560547,0.5000429670391244,0.5001263031947816,0.4999811477388181,59.55,6.0,93.6,0.10229491999999998,0.431640625,0.904785155,0.5000990573834274,0.4999035405391642,0.5000152549630607,56.1,21.9,32.1
-0.006347654999999975,0.431640625,0.34741211,0.49987589513467784,0.5001037871384338,0.5001943178030671,1.35,16.65,20.25,0.5773925799999999,0.42944336,1.0258789050000001,0.5000594877149585,0.5000697465857689,0.49991533154725837,60.6,6.75,95.1,0.09936523499999998,0.463134765,0.913085935,0.5001220397917512,0.4999205941512854,0.4999997335754897,56.1,21.9,32.1
-0.027099609999999986,0.435791015,0.33666992,0.4999382472840047,0.5000817373467958,0.5002223629752186,2.25,16.35,21.0,0.57910156,0.470703125,1.05859375,0.5001279685879537,0.49999713556563163,0.4998851546299584,60.15,5.55,94.35,0.10668945500000002,0.501953125,0.901367185,0.5001180429004977,0.499935116425126,0.5000319754790941,56.1,21.9,32.1
-0.03881835999999998,0.432373045,0.336914065,0.4999606301717304,0.5000776071996539,0.5002061753082058,2.25,16.35,21.0,0.591308595,0.5275878900000001,1.060546875,0.5001499517952808,0.4999109348883396,0.4998659027756443,60.15,5.55,94.35,0.10620116999999998,0.5397949200000001,0.89013672,0.5001093162542377,0.49997628481518974,0.49999500382048323,57.0,20.25,31.2
-0.026123045000000046,0.423095705,0.34814453,0.49997615164656783,0.5000412350616411,0.5002125704563845,-0.3,15.9,21.3,0.5803222650000001,0.583496095,1.0180664050000001,0.5001432902225919,0.49990533918822483,0.4998792925053333,60.6,7.05,94.35,0.10424804499999998,0.5710449200000001,0.890625,0.5000779402957417,0.4999828131319904,0.5000319754790941,57.0,20.25,31.2
-0.01464844000000005,0.42578125,0.36645508,0.500038037531185,0.49995443495101755,0.5002073744366684,2.1,16.2,20.85,0.5959472650000001,0.5944824200000001,1.01635742,0.5001687373848853,0.49987749385627267,0.49987982544162035,60.0,4.95,94.2,0.11450195500000002,0.6042480450000001,0.876464845,0.5000588216100496,0.499975352198504,0.5000069946687767,56.7,20.85,31.8
0.004638669999999991,0.443115235,0.37841797,0.5000677480965088,0.4999334510319538,0.5002430137981947,0.15,16.8,21.0,0.6105957049999999,0.6262207049999999,1.02368164,0.5001534824218247,0.4998676347531275,0.49990873655888024,60.0,4.95,94.2,0.134765625,0.62207031,0.853515625,0.5000285115241276,0.499963894373764,0.50000872664626,55.8,21.45,30.45
0.01171875,0.466308595,0.39453125,0.50009352835489,0.49990314085876547,0.5002391500755631,1.65,15.45,21.6,0.627441405,0.66894531,1.01538086,0.5000867335263126,0.49987902599355655,0.4999158644835454,60.0,4.95,94.2,0.14160156499999998,0.61767578,0.849121095,0.5000077940295742,0.49988542114173523,0.50002145027104,55.5,21.0,32.25
0.01293945500000001,0.501220705,0.40966797,0.5001436233186796,0.4998419877506347,0.5002354861931309,1.65,15.45,21.6,0.6369628900000001,0.6813964849999999,1.001708985,0.5000563568560799,0.49985624351269853,0.4999545015353285,59.7,6.6,94.2,0.17114258000000002,0.609375,0.8547363299999999,0.4999871432065981,0.4999217266081706,0.5000069279971994,56.55,21.0,30.9
0.04956054499999999,0.5393066400000001,0.43725586,0.5001539486865344,0.4998407887094386,0.5002037771385471,-0.15,18.6,20.7,0.6271972650000001,0.68066406,0.9699707049999999,0.49999067383314194,0.4998401891015741,0.4999565666088995,60.6,6.3,94.05,0.18066406499999998,0.595703125,0.849609375,0.4999719548278485,0.49988468836524874,0.49999693563816583,57.0,21.0,30.45
0.05957031499999999,0.5588378900000001,0.447753905,0.5001278354193318,0.4998716983159585,0.5001350965126189,1.65,16.2,22.65,0.6247558599999999,0.6647949200000001,0.9626464849999999,0.49996988975427753,0.4998427205271212,0.5000049961795168,59.1,6.3,94.05,0.19213866999999998,0.58154297,0.84863281,0.4999576324814737,0.4998958797654784,0.49996555976693624,55.2,20.7,31.5
0.0625,0.5739746099999999,0.447021485,0.5001285681085519,0.49990014316850867,0.5000728774446475,1.35,17.7,21.3,0.62451172,0.650390625,0.948242185,0.4999377144349841,0.49984585147326627,0.49999800151074,59.1,6.3,94.05,0.19165039,0.5573730450000001,0.853027345,0.4999464410812441,0.49989954364791067,0.49992066082286285,55.2,20.7,31.5
0.04663085999999998,0.5725097650000001,0.45800781,0.5001165106759474,0.49990820370985967,0.4999434433037208,1.35,17.7,21.3,0.6257324200000001,0.6530761700000001,0.9396972650000001,0.4999185290777145,0.49984385298400635,0.5000184524935167,60.75,6.15,93.75,0.19677734500000002,0.5458984400000001,0.84716797,0.49991473202666026,0.4998786263131578,0.4999201944708867,54.9,22.35,31.35
0.02807616999999999,0.54638672,0.44873047,0.5000825367948597,0.49999746857445293,0.49982000463057413,1.5,17.1,22.8,0.639160155,0.6369628900000001,0.9353027349999999,0.4998941477879952,0.4998567097774082,0.5000463644970463,59.7,6.15,93.45,0.21386718999999998,0.5393066400000001,0.8439941400000001,0.49990374046663,0.49989234913893454,0.49991493186685965,56.1,21.6,31.05
0.01879883000000001,0.5246582049999999,0.443847655,0.5000969923098564,0.49999160644982776,0.4997643139666698,1.65,16.95,21.3,0.662597655,0.6428222650000001,0.9240722650000001,0.49987329712481976,0.49987922592102235,0.5000278453319522,58.95,6.9,93.45,0.220458985,0.5380859400000001,0.84472656,0.49989934380771134,0.4999252572347144,0.49989621286156616,57.0,19.95,31.95
0.001953125,0.490234375,0.435058595,0.5000540252707321,0.5000248476416954,0.49970915623905254,2.25,16.35,22.5,0.6550292950000001,0.638671875,0.9406738299999999,0.4998510474929824,0.49988835224768097,0.5000599540669347,58.35,5.55,94.65,0.22290039,0.5451660150000001,0.853515625,0.49989221597031264,0.4999680245209059,0.499873030613043,56.4,20.85,33.15
0.015136720000000025,0.47241211,0.427490235,0.5000449655283844,0.5000071278373986,0.4996739165579249,0.45,16.35,20.7,0.6520996099999999,0.6184082049999999,0.956054685,0.4998196715344864,0.4999191952698899,0.5000436332312999,60.0,4.65,94.8,0.20971679499999998,0.563964845,0.858398435,0.4999032075303429,0.49998241345159167,0.4998714984757592,56.4,20.85,31.8
0.018554689999999995,0.45654297,0.411376955,0.5000552243119282,0.4999825467074801,0.49970276109087386,0.45,16.35,20.7,0.6328125,0.6130371099999999,0.953125,0.4998066148136187,0.49994004593306535,0.50008480170863,58.95,4.65,94.2,0.19506836,0.573242185,0.84765625,0.4998791592494449,0.5000038637226316,0.49984951535569855,55.65,20.55,32.85
0.02221679499999999,0.456054685,0.408935545,0.5000346401605296,0.5000071278373986,0.4997556539047208,0.6,17.4,21.9,0.6081542950000001,0.59765625,0.959960935,0.4997867634387065,0.49993205206329183,0.5000831363154578,58.95,4.65,94.2,0.177978515,0.578125,0.833984375,0.4998565099372088,0.5000242481210974,0.4998033506988516,55.65,20.55,32.85
0.01879883000000001,0.45019531,0.39038086,0.5000279119162632,0.5000149218669728,0.4997260765952854,1.8,16.35,22.05,0.6218261700000001,0.577148435,0.98388672,0.4997871631191052,0.5000593545463365,0.5000732772123127,60.6,3.75,94.35,0.17285156499999998,0.5798339849999999,0.81689453,0.499801552049791,0.5000462978254688,0.4998186056619122,55.65,20.55,31.35
0.02221679499999999,0.43334961,0.37817383,0.5000205176543542,0.4999858109095136,0.4997523231183763,2.25,16.05,21.0,0.5871582049999999,0.567871095,0.9553222650000001,0.4997831661405852,0.5000062618922902,0.5000571562168772,58.2,4.95,94.8,0.15673827999999998,0.579589845,0.8366699200000001,0.4997443958329137,0.5000827366350591,0.49980494950771287,55.65,20.55,31.35
0.022460939999999995,0.41088867,0.368652345,0.500062152396394,0.49997628481518974,0.49975705287338273,2.25,16.05,21.0,0.603027345,0.5546875,0.97998047,0.49976384761469367,0.4999626952453014,0.500092129386228,59.1,4.5,94.65,0.14013672000000002,0.5859375,0.850097655,0.49973600228274145,0.5000826699634817,0.4998855543976236,57.3,18.75,31.95
0.020996095000000024,0.40673828,0.354248045,0.5000625520767927,0.4999840788447639,0.4997800351944401,1.8,15.3,21.0,0.61328125,0.5495605450000001,1.005126955,0.49978589740633167,0.4999997335754897,0.5001083169659745,57.9,2.7,95.25,0.12646484500000002,0.592773435,0.8366699200000001,0.4997300734865389,0.500086933366512,0.4998886853437688,55.8,19.2,31.2
0.022460939999999995,0.40307617,0.34008789,0.5001305000135009,0.49993778101929504,0.4998220697041451,2.1,14.7,21.6,0.5778808599999999,0.541015625,0.984375,0.4998267993718851,0.49996542651104786,0.5000838690919442,59.7,4.2,93.15,0.11010741999999998,0.5886230450000001,0.8317871099999999,0.4997269425403938,0.5000688805533939,0.49993651530652145,56.4,19.05,32.1
0.022460939999999995,0.385498045,0.34326172,0.5001679379368213,0.49988562098193456,0.4998410551339489,0.45,13.8,20.4,0.5832519549999999,0.556152345,0.9851074200000001,0.4998410551339489,0.4999314525426938,0.5000912634411198,59.1,4.8,94.35,0.12182616999999998,0.5871582049999999,0.810058595,0.49970236141047514,0.500047363698043,0.49997188824353755,57.15,20.55,32.1
0.01831054499999999,0.39477539,0.329833985,0.5001637412053686,0.4998571094578069,0.4998700329227862,1.05,13.95,21.3,0.57910156,0.5642089849999999,0.99707031,0.49985211327829016,0.4999646937345614,0.5000919961303397,59.1,4.8,94.35,0.11499023499999998,0.58251953,0.817871095,0.49965972738017206,0.5000640176297656,0.4999884755036826,57.15,20.55,32.1
0.02270508000000001,0.411132815,0.33276367,0.5002154348907528,0.49980821362247996,0.4999173300365183,1.05,13.95,21.3,0.57421875,0.568359375,0.9973144549999999,0.4998874862153062,0.4999811477388181,0.5000987243746061,58.2,3.15,96.0,0.10522460999999998,0.5827636700000001,0.8269042950000001,0.4996629915822056,0.5000538254305328,0.5000103254551213,57.45,19.05,33.15
0.03564452999999997,0.42480469,0.354248045,0.5002442128393908,0.4997992205517097,0.4999040734754513,1.05,13.95,21.3,0.5568847650000001,0.5612792950000001,1.0219726550000001,0.4998905505771403,0.4998986776155358,0.500147686794244,58.2,4.2,95.55,0.09912109500000002,0.5778808599999999,0.8078613299999999,0.4996773805128914,0.5000827366350591,0.5000438330714992,56.55,18.0,31.95
0.04150390499999997,0.447265625,0.362060545,0.5002352863529315,0.4997941577006155,0.49988189051519133,2.25,14.55,21.45,0.5686035150000001,0.580078125,0.99707031,0.49987969218573197,0.49986703523252946,0.5001561470159936,59.7,3.15,95.25,0.12451172000000002,0.552734375,0.772460935,0.4996795122580398,0.5000243812897193,0.5000333744477561,56.55,18.0,31.95
0.03295898499999998,0.46166992,0.385498045,0.5002535390062488,0.4997862970867304,0.49984844948312435,1.5,14.55,22.05,0.55517578,0.591308595,0.9914550799999999,0.4998366584750302,0.4997911600103587,0.5001462213285376,59.7,3.15,95.25,0.127197265,0.5456542950000001,0.81201172,0.4996390099728851,0.5000784732320288,0.500068347617107,56.7,17.85,32.4
0.03295898499999998,0.44628906,0.407470705,0.5002388169794754,0.49980821362247996,0.49982093724725996,3.15,11.85,23.25,0.5998535150000001,0.58251953,1.01855469,0.49979935372033163,0.4998218698639457,0.5001666723113143,57.9,3.45,95.55,0.08544922000000002,0.5153808599999999,0.8439941400000001,0.4995971087190684,0.5001481531462202,0.500062218980705,56.7,17.85,32.4
0.04345702999999997,0.431884765,0.4140625,0.5001929188344052,0.4998912166820494,0.4997801018660175,3.15,11.85,23.25,0.5935058599999999,0.579589845,0.9938964849999999,0.49979702222225036,0.4999426439429234,0.5001774640311453,58.2,2.7,95.25,0.08569335999999998,0.487304685,0.8913574200000001,0.49951790279781966,0.5000595543865359,0.5000797388575359,56.55,18.75,32.25
0.0017089849999999843,0.40673828,0.416503905,0.5001676049280002,0.4999455750488692,0.4997706424432711,3.15,13.2,21.3,0.5778808599999999,0.5192871099999999,1.0043945300000001,0.49975738588220403,0.4999004096802855,0.5002055757876077,58.2,2.7,95.25,0.111328125,0.467529295,0.8937988299999999,0.49951297320261384,0.5000029311059457,0.5000480964745295,57.3,18.75,32.25
-0.04638671999999997,0.357177735,0.41064453,0.5001787297439187,0.4999559670883015,0.4997904939054497,2.55,13.05,22.05,0.624023435,0.513183595,1.012695315,0.49978116765132524,0.4998206041511722,0.5001644073102776,58.2,3.9,94.8,0.118164065,0.46411133,0.8757324200000001,0.4994804647872327,0.49997108879547364,0.500069413489681,55.65,18.3,31.35
-0.06518554500000005,0.32373047,0.423339845,0.5001676715123111,0.5000004663519761,0.49978409875727103,4.2,12.45,24.0,0.65332031,0.517089845,0.99169922,0.4998414548143476,0.49976451380686915,0.5001402258607576,56.7,1.95,96.0,0.14892577999999998,0.463867185,0.900878905,0.4994549509533618,0.49997854972896005,0.500026113354469,55.8,18.45,31.95
-0.056640625,0.329589845,0.440185545,0.500205709043496,0.5000111914002296,0.4998371248270063,3.0,13.05,21.75,0.6506347650000001,0.5510253900000001,0.9953613299999999,0.49985084765278304,0.49985784223429336,0.5001941845471788,58.05,2.55,95.7,0.142333985,0.46923827999999995,0.90332031,0.4994735367900333,0.5000480964745295,0.5000090597423477,55.8,18.45,31.95
-0.04321289000000002,0.34423828,0.45800781,0.5002468108492488,0.5000631515973908,0.4998674349129282,3.0,13.05,21.75,0.6789550799999999,0.5478515650000001,1.0034179699999999,0.4998700329227862,0.4998445191761818,0.5001802618812026,58.05,2.55,95.7,0.13964843999999998,0.46411133,0.8864746099999999,0.49948905817760425,0.5000783399761404,0.5000115910806283,56.4,18.6,31.35
-0.046142579999999954,0.348876955,0.447509765,0.5002275589949348,0.5001057189561164,0.4998516470135805,2.55,11.25,23.55,0.6901855450000001,0.5373535150000001,1.00463867,0.49986890046590104,0.49990374046663,0.500211304743611,57.0,3.0,95.7,0.14794922000000002,0.47705077999999995,0.8854980450000001,0.4995211669125867,0.500040036020445,0.49999367152339874,56.4,18.6,31.35
-0.07568359499999996,0.35449219,0.427978515,0.5002374180980799,0.500084335356654,0.4998789594092456,3.3,11.25,21.75,0.7087402349999999,0.525390625,1.006591795,0.49990707116570804,0.4999437098154976,0.500189721303949,56.55,4.8,95.4,0.154541015,0.485595705,0.8742675799999999,0.4995518100945963,0.5000511608363637,0.49999094025765234,55.5,17.7,32.55
-0.09130859499999996,0.35083008,0.40966797,0.5002075076925567,0.5000644173101643,0.49987176490026947,2.7,11.85,21.6,0.7189941400000001,0.524902345,0.993652345,0.4998834226524752,0.4999168636845422,0.5002211638467561,56.55,4.8,95.4,0.169677735,0.48144531,0.8703613299999999,0.49959990656912584,0.5000041301471418,0.5000069946687767,57.0,18.45,32.55
-0.09252929500000005,0.34350586,0.39916992,0.5001543483669331,0.5000572228011881,0.4998577756499824,2.7,11.85,21.6,0.68847656,0.5187988299999999,0.9729003900000001,0.4998747626777927,0.4999666922238214,0.5002281585155328,56.55,0.75,95.7,0.19042968999999998,0.470458985,0.86279297,0.4996112978968213,0.5000113912404289,0.500003464042233,55.2,17.4,32.55
-0.06591796999999996,0.338623045,0.399658205,0.5001315658860751,0.5000057289560033,0.49988468836524874,3.0,10.5,22.05,0.686035155,0.50488281,0.978515625,0.4998877526398165,0.4999122006011132,0.5002314226302998,56.1,2.4,95.55,0.200927735,0.471679685,0.8615722650000001,0.4995937779327239,0.5000445658479856,0.4999646937345614,56.25,18.45,33.3
-0.05224609499999997,0.33544922,0.41845703,0.5000726776044482,0.49996835761699365,0.4999050727637145,3.0,11.25,22.05,0.69970703,0.52734375,0.970214845,0.4999092694951674,0.4999403790291531,0.5002135696573813,57.15,3.45,96.3,0.20385741999999998,0.463134765,0.8625488299999999,0.4995883820728084,0.5000663491278469,0.49997488593379424,56.1,17.55,33.45
-0.023925780000000032,0.334472655,0.43383789,0.500018585749405,0.49996575960713563,0.4999297204779441,1.65,10.35,23.25,0.6833496099999999,0.5246582049999999,0.971679685,0.4999171967806299,0.499980015281933,0.5002302235891037,57.15,3.45,96.3,0.19873047000000002,0.470703125,0.850585935,0.49958858191300776,0.5001045864992313,0.49996296175707816,55.5,17.4,33.0
0.0012207050000000094,0.345214845,0.446533205,0.49996382770218656,0.4999334510319538,0.49997708426325366,2.7,10.35,21.9,0.6750488299999999,0.5390625,0.94580078,0.4999353828496363,0.49998014853782136,0.5002468775208263,57.15,3.45,96.3,0.20214843999999998,0.46826172000000005,0.8586425799999999,0.49955081089359954,0.5000983246942075,0.49995863168247046,55.5,17.4,33.0
0.021972654999999976,0.350097655,0.459228515,0.4999447756880718,0.4999327182554673,0.5000095260070574,2.7,10.35,21.9,0.669921875,0.5300292950000001,0.9484863299999999,0.4999191952698899,0.49999713556563163,0.5002459449041405,56.25,3.0,96.45,0.197265625,0.471435545,0.85644531,0.49957779019317683,0.500092995418603,0.4999595642991563,55.2,15.9,33.0
0.046875,0.37475586,0.494873045,0.49985224653417853,0.49993758117909565,0.4999986677029155,1.05,11.1,22.95,0.6730957049999999,0.5227050799999999,0.94970703,0.4999517702695821,0.500009259582547,0.500280784817603,56.55,1.5,96.15,0.17578125,0.467285155,0.845703125,0.4995968422945581,0.5001097825189473,0.49996109643644016,55.2,15.9,33.0
0.07177734500000002,0.392578125,0.5173339849999999,0.49981700685305086,0.49996729174441945,0.5000330413516683,3.15,11.4,21.3,0.65673828,0.5231933599999999,0.94091797,0.4999493055156124,0.5000301769172999,0.5002512740924785,57.15,1.95,96.6,0.18432616999999998,0.44580078,0.842285155,0.4995709287802885,0.5001177763887209,0.5000011990411961,56.55,16.65,33.75
0.09399414000000002,0.385009765,0.515625,0.4997783698012678,0.500013323145378,0.5000504280598773,2.55,8.7,22.8,0.65722656,0.50463867,0.932617185,0.4999600972354434,0.500042767198925,0.500280118712694,56.25,3.0,96.15,0.18603515499999998,0.43798828,0.838867185,0.499534156961877,0.5001044533306093,0.49996975649838915,56.4,16.35,31.8
0.07275390499999998,0.376953125,0.49755859500000005,0.4996936347642152,0.5000375045948979,0.5000228491524354,2.55,8.7,22.8,0.66455078,0.50341797,0.9479980450000001,0.49996975649838915,0.5000208506631754,0.5002541386141134,56.55,1.8,96.15,0.18872070500000002,0.442871095,0.8425292950000001,0.4995470137552789,0.500144955615764,0.49996749158461884,56.4,16.35,31.8
0.05371093999999999,0.368896485,0.4921875,0.499676514567783,0.5000692802337926,0.5000365053939012,3.3,10.8,22.5,0.66455078,0.48803711,0.9509277349999999,0.49996935681799043,0.5000235819289219,0.5002549379749108,57.75,3.75,97.2,0.17456054499999998,0.448242185,0.8425292950000001,0.4995631347507143,0.5001616761317975,0.4999688904660143,57.3,16.2,34.35
0.04907226500000002,0.349853515,0.481689455,0.49967711408838106,0.5000819371869952,0.5000504946441883,2.25,10.8,23.1,0.666503905,0.48583984500000005,0.9484863299999999,0.4999954701724594,0.5000165872601451,0.500240082692249,57.75,3.75,97.2,0.189453125,0.45263672,0.8459472650000001,0.4995832526374033,0.5002026446816619,0.49998994105665556,56.4,15.6,32.1
0.04833984500000003,0.342285155,0.46166992,0.49964893566034113,0.5000840689321436,0.5000484295706172,2.7,12.15,22.35,0.6711425799999999,0.50317383,0.9499511700000001,0.5000468307617559,0.500035439521327,0.5002530727415392,56.1,1.65,96.3,0.177734375,0.451171875,0.8488769549999999,0.499625686827507,0.5001901209843478,0.5000131898894896,58.2,15.3,32.1
0.04760741999999999,0.341064455,0.462158205,0.49967691424818167,0.500069413489681,0.500076141646681,2.55,11.55,21.75,0.65332031,0.501464845,0.967285155,0.5000742764133095,0.5000656163513604,0.5002551378151101,56.7,2.4,96.6,0.162353515,0.439941405,0.8479003900000001,0.4996575957222901,0.5001863238460271,0.5000070612530877,57.6,16.2,33.0
0.03588866999999999,0.35986328,0.44238281,0.49970189505849905,0.5000705459465662,0.5001410253088215,2.55,11.55,21.75,0.671875,0.47705077999999995,0.9616699200000001,0.5000973254059442,0.5000444325920973,0.5002402825324482,56.25,2.25,95.4,0.15747070500000002,0.435058595,0.845703125,0.4996899708817829,0.500201179128689,0.5000294441408134,57.6,16.2,33.0
0.04833984500000003,0.37036133,0.428466795,0.49970829020667773,0.5000766745829681,0.5001144456023764,2.7,12.15,22.95,0.6682128900000001,0.49951172000000005,0.9812011700000001,0.5001062518924035,0.5000819371869952,0.5002468775208263,56.25,2.25,95.4,0.14599609500000002,0.42602539,0.86767578,0.49968137749141134,0.500240016107938,0.500053492334445,56.55,16.65,32.25
0.04541015499999997,0.396240235,0.412353515,0.49969649919858355,0.5000838024203668,0.5001431569667034,2.4,12.45,22.65,0.669921875,0.478515625,0.98779297,0.5000795390173365,0.5000751424456843,0.5002641309731469,56.25,3.0,97.2,0.11840820500000002,0.391601565,0.846191405,0.49976637904024074,0.5002629985162618,0.5000347733291515,57.6,15.45,31.5
0.05078125,0.41040039,0.392578125,0.49972914086985315,0.5000810712418868,0.5001530826541595,2.1,12.15,21.9,0.616210935,0.463867185,0.9792480450000001,0.5001668054799362,0.5000998568314913,0.5002326217587625,56.4,1.95,94.8,0.08984375,0.40600586,0.8527832049999999,0.49984898241941145,0.5002206975820463,0.5000078606138851,57.9,14.25,31.05
0.04907226500000002,0.42260742,0.368408205,0.4996715849725772,0.5001211738466428,0.5001157779867274,2.1,12.15,21.9,0.59716797,0.490966795,0.998535155,0.500227225898847,0.5001098491905248,0.5002002465992696,56.4,1.95,94.8,0.08740234500000002,0.37109375,0.86669922,0.49993258499957893,0.5002105053828135,0.5000071945089761,56.7,15.6,31.35
0.01293945500000001,0.42944336,0.342529295,0.4996855076385533,0.5001221064633287,0.5001092495826603,1.35,14.4,20.85,0.595703125,0.513671875,1.0581054699999999,0.5002087067337528,0.5001684708731085,0.5001862572617162,56.25,4.05,96.45,0.05541991999999999,0.364990235,0.885253905,0.5000851347174513,0.5001879226548884,0.49999094025765234,58.05,15.9,31.95
-0.025390625,0.42919922,0.33496094,0.49970555894093127,0.5000889984400829,0.5001493521874163,2.25,14.25,21.75,0.579589845,0.5100097650000001,1.0610351550000001,0.5001612764513989,0.5001630084288821,0.5001958499403509,55.8,5.25,96.15,0.05639648499999998,0.364990235,0.8713378900000001,0.5001787963282297,0.5001226393996158,0.49995496780003823,57.6,16.65,28.8
-0.05322265500000003,0.421875,0.336914065,0.49968231010809716,0.5001045864992313,0.5001231056643254,1.2,14.25,21.0,0.5817871099999999,0.49291992,1.0390625,0.5001299670772138,0.5001211071750654,0.5001907870892568,57.75,4.05,96.45,0.04760741999999999,0.333984375,0.8688964849999999,0.5002789195842313,0.5000481630588405,0.49997062253076396,57.6,16.65,28.8
-0.05419921999999997,0.424072265,0.344970705,0.4996857074787526,0.5000442994234754,0.500123505344724,2.4,15.15,21.6,0.5886230450000001,0.475585935,1.00488281,0.5000879326547752,0.5001357626175279,0.5001574127287672,57.75,4.05,96.45,0.04760741999999999,0.33911133,0.8522949200000001,0.5003066983318726,0.5000720114995392,0.49996036374722014,57.0,15.9,30.15
-0.022949219999999968,0.42602539,0.365234375,0.4997247442982009,0.5000186523337161,0.5001309662782105,2.4,15.15,21.6,0.58203125,0.45678711,1.00805664,0.5000738767329107,0.5001455551363622,0.5001219732074402,56.4,4.2,97.05,0.06860351500000002,0.325683595,0.8391113299999999,0.5003130268084738,0.5000993238952042,0.4999217266081706,57.0,15.9,30.15
0.0009765649999999937,0.428466795,0.385009765,0.499719281766708,0.5000638843738772,0.5000680145210191,2.4,15.15,21.6,0.5964355450000001,0.458740235,1.013427735,0.5001078507012648,0.5001185091652074,0.50010498617963,56.55,5.25,96.45,0.07739258000000002,0.341064455,0.8186035150000001,0.5002347534166444,0.5001344303204435,0.49990034300870806,57.3,15.45,31.5
0.020507814999999995,0.436035155,0.39111328,0.4997417312387447,0.5001027879374371,0.500060753427732,1.35,15.9,20.55,0.57763672,0.467285155,1.00073242,0.5001231056643254,0.5001061853080926,0.500080271793823,56.55,5.25,96.45,0.08422851500000002,0.35571289,0.822753905,0.5001546814630208,0.5001037871384338,0.4998718315718469,58.05,14.7,29.4
0.03002929499999999,0.43774414,0.403564455,0.49978223352389944,0.5001556806640175,0.5000830030595694,2.1,15.9,20.85,0.5954589849999999,0.49633789,0.991210935,0.500107517605177,0.5001057189561164,0.5000941944597991,56.55,4.05,95.1,0.09130859500000002,0.387939455,0.794921875,0.5000818040183733,0.5001003897677784,0.4998552442244353,56.7,15.3,30.75
0.03759765499999997,0.45654297,0.39086914,0.49978982771327424,0.5001946508118884,0.500068813969083,0.75,16.8,21.45,0.60107422,0.50048828,0.98535156,0.5000861340057146,0.5000858009096268,0.5000985911187178,55.5,4.05,94.65,0.09716797000000002,0.399902345,0.794921875,0.5000118575924052,0.500039569668469,0.4998629716696985,57.6,16.65,28.8
0.04174804499999999,0.46142578,0.3828125,0.49981187750491224,0.500210438711236,0.5000564234403908,0.75,16.8,21.45,0.60498047,0.5114746099999999,0.974609375,0.5000537588462217,0.5000832028997688,0.5000834694115456,56.7,4.2,95.55,0.11474609500000002,0.43383789,0.7907714849999999,0.49993411713686275,0.5000475635382424,0.49990540585980225,58.95,14.85,30.75
0.05102539000000002,0.46948242,0.36254883,0.49983232848768894,0.5001881891666652,0.5000456317205598,2.1,15.9,19.5,0.596191405,0.5148925799999999,0.9675292950000001,0.5000572228011881,0.5000772075192552,0.500068813969083,56.7,4.2,95.55,0.12988281499999998,0.45410156,0.807128905,0.49987829330433653,0.5000835359958565,0.4999046064117384,58.35,15.15,29.1
0.05004883000000001,0.47583008,0.350097655,0.49982626643559797,0.5002302901734147,0.5000692136494816,1.5,17.55,21.45,0.6071777349999999,0.5126953150000001,0.9787597650000001,0.5000312427026077,0.5001350965126189,0.500078206720252,57.0,4.8,96.9,0.12548827999999998,0.48535156,0.803222655,0.49990034300870806,0.5000691469779043,0.49989528024488034,58.35,15.15,29.1
0.06103515499999997,0.46875,0.349121095,0.4998685007855024,0.500237951034367,0.5000626853326811,1.5,16.35,20.7,0.5925292950000001,0.510253905,0.9694824200000001,0.5000740099887991,0.5000171201964322,0.5000604203316443,56.55,4.5,95.7,0.11328125,0.491210935,0.7961425799999999,0.49988149083479266,0.5000321753192934,0.4999313192868054,58.05,15.15,29.85
0.07373047000000002,0.46875,0.35131836,0.49992712255535254,0.5001660727034498,0.5000804716340224,0.75,17.85,21.0,0.6091308599999999,0.5446777349999999,1.002197265,0.500033973968354,0.5000690803935933,0.5000763414868804,58.35,4.8,95.4,0.11474609500000002,0.47753906,0.7980957049999999,0.4998374579230941,0.5000303767574993,0.4999488391636363,58.05,15.15,29.85
0.08178710999999998,0.48071289,0.35522461,0.4999613629482169,0.5001301669174132,0.5000303100859218,0.75,17.85,21.0,0.5866699200000001,0.54248047,1.01586914,0.5000191852700031,0.5000008660323748,0.5000871998782888,57.0,6.0,95.7,0.127197265,0.474853515,0.810546875,0.4997962894457639,0.4999802817937098,0.4999788162407368,58.5,15.15,29.85
0.09545898499999998,0.479492185,0.35131836,0.49997581855048007,0.5001018553207512,0.5000342403928644,0.6,17.4,19.8,0.615234375,0.55517578,1.00097656,0.49999553675677033,0.5000306431820095,0.5000639509581881,58.8,6.3,94.65,0.12011719,0.46069336,0.80175781,0.4997118208332216,0.49999127335374005,0.5000178529729187,58.5,13.5,29.25
0.099609375,0.47998047000000005,0.34277344,0.500031442542807,0.5000351064252392,0.5000478966343301,0.75,16.05,20.7,0.6164550799999999,0.55078125,1.010009765,0.49998274654767944,0.4999795490172233,0.5000624188209043,58.2,5.4,95.55,0.10595702999999998,0.45654297,0.8125,0.49968390891695846,0.4999856110693143,0.5000293108849251,58.2,14.25,31.05
0.08081054499999998,0.456054685,0.326904295,0.5000506279000766,0.4999754188700814,0.5000202511425773,1.5,15.6,20.4,0.623535155,0.5432128900000001,1.0078125,0.49991633074825514,0.49998887518408136,0.5000987909589171,58.2,5.4,95.55,0.11401366999999998,0.45019531,0.8146972650000001,0.49965732929777984,0.5000065949883781,0.5000255804181818,57.45,13.5,30.0
0.06958008000000002,0.455566405,0.31640625,0.5000522266216714,0.49989241581051197,0.49999873428722647,0.15,16.8,19.65,0.61376953,0.529296875,0.99267578,0.4999393131565789,0.49998927486448,0.500087399718488,58.2,5.4,95.55,0.10693359500000002,0.455810545,0.80517578,0.49965226644668564,0.4999963361175678,0.5000616860444178,58.05,14.4,29.1
0.04541015499999997,0.452148435,0.309814455,0.5001280352595312,0.4997709755393588,0.4999794823456459,2.1,16.95,20.85,0.61328125,0.5270996099999999,1.00463867,0.4999257235866905,0.4999680245209059,0.5000899310567688,57.15,5.7,97.35,0.110351565,0.427001955,0.807128905,0.4996758483756075,0.5000163208356349,0.5000650168307623,58.05,14.4,29.1
0.04223633000000001,0.45361328,0.33105469,0.5001439563275007,0.4997056255252422,0.49999160644982776,1.65,17.7,20.55,0.607421875,0.5163574200000001,0.986816405,0.49994863932343697,0.49997035601898715,0.5000969923098564,58.2,5.7,96.3,0.10839844,0.42651367,0.8039550799999999,0.4997284747649441,0.5000541585266205,0.5000562236001914,58.05,15.15,29.85
0.03784179499999999,0.458740235,0.35083008,0.5001317657262744,0.49969876419962034,0.4999441760802073,1.35,15.45,20.55,0.5876464849999999,0.5056152349999999,0.982910155,0.4999334510319538,0.49996542651104786,0.5000808047301101,57.0,6.0,95.4,0.11157226500000002,0.40307617,0.798339845,0.49976078334012597,0.5000632181817017,0.5000592212904482,58.05,15.15,29.85
0.04272460999999998,0.443359375,0.38305664,0.5001489525070175,0.4996947006367894,0.4999042067313397,1.2,17.55,20.7,0.58251953,0.502929685,1.001220705,0.49995097090878465,0.4999870099507097,0.5000636845336779,57.0,6.0,95.4,0.09887695500000002,0.38574219,0.80908203,0.4997665788804401,0.5000605535875327,0.5000375711792089,57.9,13.8,31.8
0.016601564999999995,0.43725586,0.408691405,0.5001392932440718,0.4997342703052583,0.49994803980283886,1.2,17.55,20.7,0.5847167950000001,0.52783203,1.0,0.499950571228386,0.49998727637522006,0.5000516271010734,57.9,3.45,95.25,0.09985351500000002,0.38354492,0.8127441400000001,0.49980041959290583,0.5000256470024929,0.500048895835327,57.45,14.55,29.7
0.012695314999999993,0.41845703,0.419921875,0.500101655480552,0.4998417879104354,0.49989268223502226,0.75,16.35,20.7,0.573242185,0.5300292950000001,1.00097656,0.4999470406018421,0.49997628481518974,0.500055490823705,57.15,8.1,96.3,0.10083008000000002,0.37817383,0.811523435,0.49979195945842264,0.5000165206758341,0.4999997335754897,57.15,14.25,30.3
-0.011474609999999984,0.418945315,0.419921875,0.5000746095093972,0.49989328175562037,0.4999047396676268,1.05,16.2,20.85,0.5725097650000001,0.532714845,1.0034179699999999,0.49990880323045767,0.49995636676870014,0.5000654165111611,57.15,8.1,96.3,0.10668945500000002,0.376220705,0.8046875,0.4997898942975852,0.49999820135093936,0.4999604303315311,57.0,15.9,30.15
-0.035888670000000046,0.41015625,0.39794922,0.5000390367321818,0.4999730207004227,0.4999453752086699,2.55,14.55,22.5,0.5954589849999999,0.5244140650000001,0.99951172,0.4999326515838899,0.49986616920015464,0.500051427260874,57.9,5.7,96.6,0.10205077999999998,0.360351565,0.81591797,0.4998054157724226,0.5000165206758341,0.4999186623336029,58.8,14.7,29.4
-0.068359375,0.392578125,0.3828125,0.500009326166858,0.5000483628990399,0.49993385071235247,2.1,15.9,21.6,0.6057128900000001,0.513183595,1.013427735,0.49983845712409086,0.5000053292756045,0.5000826699634817,57.0,5.25,95.7,0.111328125,0.360839845,0.8181152349999999,0.4998121439294225,0.5000082602942838,0.49988721979079587,57.3,14.4,29.85
-0.08105469000000005,0.377685545,0.368408205,0.5000254471622935,0.5000612863640191,0.4999754188700814,2.1,15.9,21.6,0.6325683599999999,0.49365234500000005,0.99658203,0.49988608724664424,0.4999387802202918,0.5000907305048327,56.4,4.95,96.0,0.09497070500000002,0.34301758,0.8386230450000001,0.4998202710550844,0.5000405688694657,0.4998916830340255,57.3,14.4,29.85
-0.07250976500000002,0.36694336,0.348876955,0.5000040635628309,0.5000663491278469,0.4999687572973924,2.55,16.8,21.75,0.623535155,0.44873047,1.040771485,0.4998792925053333,0.49993791427518347,0.5000623522365933,56.4,4.95,96.0,0.08471679499999998,0.303222655,0.8562011700000001,0.49981254360982125,0.5000538920148437,0.4998515804292695,59.25,14.55,31.05
-0.05859375,0.3671875,0.34375,0.49996975649838915,0.5000790727526269,0.4999584318422711,2.25,16.8,20.7,0.630859375,0.44482422,1.05761719,0.4998822901955901,0.49993051992600795,0.5000638843738772,57.15,5.4,97.05,0.05859375,0.27661133,0.8942871099999999,0.49987622814349914,0.5000289112045264,0.49983406046517215,59.25,14.55,31.05
-0.028808594999999968,0.380126955,0.36743164,0.49997508577399363,0.5000852679733397,0.49997062253076396,1.05,15.9,21.9,0.6140136700000001,0.439453125,1.072509765,0.4998800252818198,0.4999047396676268,0.500044832272496,58.65,4.95,95.55,0.02221679499999999,0.259033205,0.8688964849999999,0.5000542251109314,0.4999687572973924,0.4998182725658245,59.1,13.2,30.15
-0.006347654999999975,0.40234375,0.37011719,0.4999836791643652,0.5000852013890288,0.49999127335374005,1.05,15.9,21.9,0.6066894549999999,0.41455078,1.086914065,0.49983199539160117,0.4998652365834688,0.5000604203316443,56.55,4.8,95.4,0.010009765000000016,0.228271485,0.8781738299999999,0.5001279020036428,0.49990453982742744,0.4998446523448037,57.0,14.4,30.15
0.018066404999999976,0.41088867,0.36791992,0.4999584984265821,0.5001327649272712,0.4999403790291531,1.5,15.6,21.75,0.6076660150000001,0.390625,1.08276367,0.49982520065029024,0.4998351263377463,0.5000427006146141,57.15,4.65,97.65,0.008056640000000016,0.220458985,0.8923339849999999,0.5001847251244324,0.4998249341385135,0.49984458576049273,57.9,14.25,29.7
0.015136720000000025,0.411865235,0.35473633,0.49996675880813235,0.5000940612911772,0.4999714884758723,0.6,15.9,21.3,0.6169433599999999,0.349365235,1.0708007800000001,0.49983146245531407,0.4998525796302663,0.49997441958181815,57.3,4.5,95.1,0.02026366999999999,0.201416015,0.8977050799999999,0.5002440129991914,0.49975199002228854,0.4998870199505965,58.8,12.15,30.45
-0.00024414000000001578,0.39746094,0.35888672,0.4999812144103955,0.5000661492876476,0.4999776171122743,0.75,16.8,22.5,0.6188964849999999,0.326171875,1.040283205,0.49983532617794574,0.499848915747834,0.49991713019631895,54.9,4.65,96.6,0.07299804499999998,0.21362304499999998,0.8537597650000001,0.5002937082825822,0.49968231010809716,0.4999010757851945,58.8,12.15,30.45
0.00390625,0.396240235,0.369873045,0.49998294638787877,0.500040036020445,0.49992359192880864,1.5,15.6,20.4,0.635742185,0.31298828,0.9978027349999999,0.4998586416823572,0.4998669019766411,0.4998834226524752,54.9,4.65,96.6,0.12475585999999998,0.23950195500000002,0.8317871099999999,0.5003559272632873,0.4997254769874209,0.49994244410272404,57.6,13.2,31.5
0.023681640000000014,0.384521485,0.389160155,0.500022049791638,0.4999547013755279,0.4999890750242807,1.5,15.6,20.4,0.654296875,0.32324219,0.9494628900000001,0.49989847777533647,0.4999276554043731,0.49982173660805734,56.1,4.65,97.35,0.15356445500000002,0.28417969,0.795898435,0.500405689130989,0.49979016080936195,0.4999922059704259,57.6,13.2,31.5
0.0390625,0.380126955,0.403320315,0.5000612863640191,0.49991966153459966,0.5000135229855773,1.35,15.9,21.6,0.6472167950000001,0.337890625,0.91455078,0.49994151148603827,0.4999700230101659,0.4997767044080956,56.55,4.05,95.7,0.17700195500000002,0.330078125,0.799316405,0.5003861707648981,0.4998169402687399,0.5000446324322966,56.55,13.2,31.5
