IMU1_AccX,IMU1_AccY,IMU1_AccZ,IMU1_GyrX,IMU1_GyrY,IMU1_GyrZ,IMU1_MagX,IMU1_MagY,IMU1_MagZ,IMU2_AccX,IMU2_AccY,IMU2_AccZ,IMU2_GyrX,IMU2_GyrY,IMU2_GyrZ,IMU2_MagX,IMU2_MagY,IMU2_MagZ,IMU3_AccX,IMU3_AccY,IMU3_AccZ,IMU3_GyrX,IMU3_GyrY,IMU3_GyrZ,IMU3_MagX,IMU3_MagY,IMU3_MagZ
0.0068359399999999935,0.481689455,0.37890625,0.4999251240660925,0.5000351730095501,0.4999726876043349,-0.3,21.75,19.8,0.5817871099999999,0.572753905,0.998535155,0.49999393794790903,0.5000353062654386,0.5001568132081692,59.85,5.25,93.6,0.12573241999999998,0.52294922,0.8435058599999999,0.4997384004524002,0.49997242109255813,0.4999984678627162,56.4,19.35,30.0
-0.00024414000000001578,0.47583008,0.388671875,0.49990194181756936,0.5000389035635598,0.4999862105899123,0.3,23.25,18.45,0.584472655,0.5612792950000001,0.99609375,0.499971288635673,0.5000096592629458,0.5001802618812026,60.75,5.4,93.15,0.12402344,0.51098633,0.8391113299999999,0.4997272756364815,0.49998294638787877,0.5000155880591484,57.6,19.95,30.45
0.0017089849999999843,0.470947265,0.39038086,0.49983359420046247,0.500056090344303,0.4999750191024162,1.05,22.95,20.85,0.5969238299999999,0.56201172,0.9890136700000001,0.4999699563385885,0.5000124571130031,0.5001532825816253,60.45,5.7,94.5,0.14013672000000002,0.502685545,0.85107422,0.4997069579095932,0.5000015988088613,0.5000165872601451,57.45,19.35,28.65
0.0014648450000000254,0.474609375,0.39477539,0.4998347932416586,0.5000224494720368,0.4999387802202918,1.05,22.95,20.85,0.6052246099999999,0.573242185,1.00415039,0.49995236979018015,0.5000137228257767,0.5001890551117736,61.65,5.25,92.55,0.13354491999999998,0.50390625,0.8430175799999999,0.4996955665818978,0.5000198514621786,0.4999956033410813,56.55,20.25,30.45
0.015136720000000025,0.47900390499999995,0.39379883,0.4998366584750302,0.4999962029489458,0.5000023981696587,0.6,21.0,19.2,0.607421875,0.5568847650000001,0.9914550799999999,0.49995823200207173,0.5000157213150367,0.5002059088836955,61.65,5.25,92.55,0.14477539,0.49536133,0.83935547,0.49970775727039063,0.5000149885385503,0.4999851447173381,56.4,20.1,28.95
0.022460939999999995,0.47314452999999995,0.39501953,0.4998043498998484,0.5000238483534322,0.5000117910080942,-0.3,21.75,22.95,0.60253906,0.5451660150000001,0.989746095,0.4999642273825852,0.5000333077761786,0.5001973820776349,60.9,4.05,94.05,0.138427735,0.483398435,0.845703125,0.49970928940767445,0.500034040552665,0.5000096592629458,56.4,20.1,28.95
0.015625,0.47290039,0.39428711,0.49980315085865223,0.5000411684773302,0.49999400461948645,0.75,23.1,19.35,0.6076660150000001,0.541503905,0.9934082049999999,0.49995216994998076,0.5000644173101643,0.5002179663163,60.0,5.4,93.75,0.13403320500000002,0.49267577999999995,0.845214845,0.49971455209896803,0.5000661492876476,0.500006062052091,56.7,20.55,30.0
0.013183595000000025,0.474853515,0.38745117,0.4997867634387065,0.5000367718184114,0.5000035972108549,0.6,22.2,20.25,0.6062011700000001,0.5285644549999999,1.001708985,0.49996156278841625,0.5000552243119282,0.5002412818207115,61.8,4.95,94.2,0.138427735,0.48193359500000005,0.84082031,0.49972687595608284,0.5000744762535088,0.4999944042998852,56.7,20.55,30.0
0.014160154999999975,0.47802734500000005,0.384277345,0.4998090796548548,0.500005262604027,0.5000319088947831,0.6,22.2,20.25,0.5905761700000001,0.521484375,0.994140625,0.4999694900738788,0.5000490956755264,0.5002438798305695,61.8,4.95,94.2,0.13769531499999998,0.48120117,0.83691406,0.4997330711767957,0.5000704126906779,0.5000131898894896,57.15,18.3,30.0
0.013916015000000016,0.48754883,0.38208008,0.499839589580976,0.49999800151074,0.500075475541772,2.4,23.25,18.75,0.5954589849999999,0.5166015650000001,0.99707031,0.4999689571375917,0.5000659494474482,0.5002213636869554,61.95,6.0,94.35,0.131103515,0.48022461,0.842285155,0.49973766767591377,0.5000850681331404,0.5000121240169154,56.25,19.2,30.15
0.010742189999999993,0.490234375,0.37011719,0.49981281012159806,0.500006661572689,0.5000013989686619,-0.15,22.35,19.65,0.591308595,0.5251464849999999,0.9982910150000001,0.5000039969785199,0.5000925957382042,0.5002216967830432,61.95,4.8,94.35,0.1328125,0.478759765,0.8371582049999999,0.49973660180333956,0.5000451653685837,0.5000083935501722,56.55,18.75,30.15
-0.0026855449999999906,0.49682617,0.375,0.49982566691499997,0.4999814808349059,0.5000458315607592,0.45,23.4,19.65,0.588867185,0.51513672,1.00097656,0.5000089264864593,0.5001013223844641,0.5002043100748341,61.95,4.8,94.35,0.126953125,0.477783205,0.83642578,0.49974905891634275,0.5000495620275024,0.5000455650489825,56.4,19.8,30.3
0.004394529999999975,0.49633789,0.37841797,0.49980408347533806,0.500002598009858,0.5000267128750671,0.45,23.4,19.65,0.588378905,0.5319824200000001,1.0053710949999999,0.5000370382429218,0.5000673484161101,0.5002157679868406,62.85,5.7,94.2,0.130859375,0.479248045,0.84472656,0.4997290742855422,0.5000397029243573,0.5000111248159187,56.4,19.8,30.3
0.005615234999999984,0.49194336,0.37817383,0.49979155969075745,0.4999707556993859,0.500036105626236,0.75,23.4,19.95,0.5925292950000001,0.5241699200000001,1.006835935,0.5000072610932871,0.5000481630588405,0.5002153683064419,61.95,7.05,94.65,0.127197265,0.481689455,0.8386230450000001,0.49973713473962666,0.500055424239394,0.5000199180464896,57.0,19.5,30.15
0.007568359999999984,0.50439453,0.38183594,0.4998232687453412,0.49996142953252787,0.5000411018057528,0.0,23.7,20.55,0.5930175799999999,0.5275878900000001,1.01098633,0.5000203843984657,0.500066815479823,0.5001940512912904,61.05,6.9,93.75,0.12573241999999998,0.482666015,0.833496095,0.4997321385601099,0.5000195849504019,0.500039503084158,57.3,19.2,28.8
0.013427734999999984,0.497314455,0.373779295,0.4998313958710031,0.4999576324814737,0.5000773407751437,0.15,23.4,20.55,0.581054685,0.517578125,0.9899902349999999,0.5000325084153812,0.5000365053939012,0.5002105719671245,61.05,6.9,93.75,0.13305664,0.475585935,0.838378905,0.4997399325896841,0.5000204509827767,0.5000171868680097,57.3,19.2,28.8
0.00024414000000001578,0.490234375,0.372314455,0.4997949571486794,0.49998740963110844,0.5000331079359792,37.65,23.4,20.7,0.584960935,0.52734375,0.9958496099999999,0.5000366385625231,0.5000564234403908,0.5002095060945503,61.05,7.35,96.0,0.115234375,0.46142578,0.84082031,0.4997543216076363,0.5000349731693509,0.5000510275804753,56.7,19.05,30.0
0.0009765649999999937,0.48974609500000005,0.377197265,0.4998399892613747,0.4999592312030685,0.5000515605167625,-0.75,26.1,19.65,0.5817871099999999,0.5217285150000001,1.00488281,0.500040036020445,0.5000319754790941,0.5002152350505534,61.65,6.3,94.05,0.11962890499999998,0.466552735,0.829589845,0.499768710538322,0.5000526929736476,0.5000744096691978,57.6,19.95,30.45
0.010742189999999993,0.494384765,0.380126955,0.49984551837717855,0.4999576324814737,0.5000589548659379,-0.75,26.1,19.65,0.5656738299999999,0.5256347650000001,0.9919433599999999,0.500035506105638,0.5000556240795934,0.5001849915489426,61.35,6.3,94.65,0.12109375,0.45654297,0.8347167950000001,0.4997378675161131,0.5000492955157256,0.5000375045948979,57.3,17.7,30.15
0.0078125,0.49682617,0.384765625,0.4998407887094386,0.49999473739597294,0.5000532259099346,0.3,24.3,19.2,0.596191405,0.502929685,0.99316406,0.5000973254059442,0.5000022649137703,0.5001699364260814,62.25,6.9,94.2,0.10815429499999998,0.46118164,0.8359375,0.4997556539047208,0.5000959931088598,0.500071545147563,57.0,18.75,31.2
0.013671875,0.501220705,0.383789065,0.4998589746911785,0.5000235153446109,0.5000666156396236,0.3,25.05,20.85,0.5764160150000001,0.51953125,1.00805664,0.5000456983048708,0.5000363055537018,0.5001564801120815,62.25,7.65,94.8,0.13012695500000002,0.45751953,0.83642578,0.4997682442736124,0.5000536255903334,0.5000393698282696,57.3,19.2,29.85
0.010742189999999993,0.518066405,0.38647461,0.4998751623581914,0.5000129900492903,0.5000566232805902,1.8,24.6,19.65,0.5666503900000001,0.5166015650000001,1.010009765,0.5000500949637895,0.5000324418310702,0.5001756653820846,60.0,6.9,94.2,0.12475585999999998,0.45385742,0.837402345,0.49977983535424075,0.5000748093495966,0.5000540252707321,57.6,18.45,29.85
0.00854491999999999,0.5246582049999999,0.38647461,0.49986696856095203,0.5000451653685837,0.5000371049144993,1.8,24.6,19.65,0.578125,0.5178222650000001,1.001708985,0.5000584219296508,0.5000172534523206,0.5001488192511292,60.0,6.9,94.2,0.10961914000000002,0.435791015,0.85253906,0.4997365352190286,0.500070879042654,0.5000610199395088,57.6,18.45,29.85
0.008300779999999975,0.5275878900000001,0.379882815,0.4998592412029553,0.5000365053939012,0.5000383706272727,0.3,25.5,21.3,0.5827636700000001,0.5217285150000001,1.01098633,0.5000766079986572,0.4999922059704259,0.5001529494855376,62.85,7.35,94.8,0.11987304499999998,0.44091797,0.8395996099999999,0.4998044165714258,0.5000875995586875,0.5000188522611819,56.7,19.05,30.0
0.00854491999999999,0.52294922,0.380126955,0.49985144717338115,0.5000335742879554,0.5000358392017257,-0.45,25.35,22.5,0.5939941400000001,0.51953125,1.006591795,0.5000793391771372,0.4999668920640208,0.5001277021634435,61.65,6.75,94.65,0.12231445500000002,0.453125,0.842773435,0.4998561768411211,0.5001037205541229,0.5000577557374754,56.7,19.05,30.0
0.008789064999999993,0.5207519549999999,0.383789065,0.4998463844095534,0.5000367052341005,0.4999914731939394,-0.15,24.9,19.35,0.5715332049999999,0.5173339849999999,0.9802246099999999,0.5000976585020319,0.4999858109095136,0.5001091829983493,62.25,6.9,93.75,0.11401366999999998,0.45336914,0.8395996099999999,0.49983892338880054,0.5000650835023398,0.5000703461063668,55.5,19.95,29.85
0.018554689999999995,0.5153808599999999,0.385498045,0.49985204669397915,0.5000491623471037,0.4999826799633685,1.05,25.5,20.25,0.57763672,0.5334472650000001,0.974609375,0.5000931952588022,0.5000209173347528,0.5001103821268119,61.8,7.35,92.7,0.13574218999999998,0.439697265,0.8410644549999999,0.49986157270103654,0.5001097825189473,0.500033507616378,57.3,18.75,30.15
0.020019529999999976,0.50708008,0.388183595,0.4998874196309952,0.5000271791397767,0.5000438330714992,1.05,25.5,20.25,0.583984375,0.52783203,0.9724121099999999,0.5000625520767927,0.5000001998401994,0.5001155114749506,62.4,6.75,94.35,0.12890625,0.44604492,0.8166503900000001,0.49990220824207965,0.5001334977037577,0.5000666822239346,57.15,19.05,30.75
0.017333984999999986,0.49755859500000005,0.37573242,0.49987462942190425,0.5000524931334482,0.5000315092143844,0.0,25.05,19.5,0.5725097650000001,0.5036621099999999,0.962890625,0.5000642840542759,0.49998587749382456,0.5001093828385487,61.35,7.05,94.05,0.13574218999999998,0.43286133,0.8205566400000001,0.4998836224926746,0.5001688705535072,0.5000764080711914,56.55,17.4,29.4
0.024902345000000024,0.498779295,0.373291015,0.499897145478252,0.5000872664625997,0.500011324656118,1.2,26.1,21.0,0.58251953,0.5041503900000001,0.9797363299999999,0.5001141125935551,0.5000037970510541,0.5000977917579204,61.35,7.05,94.05,0.12548827999999998,0.443359375,0.8288574200000001,0.49990946933536673,0.5001849249646316,0.5000598208110463,56.55,19.95,30.15
0.025878904999999976,0.506347655,0.38696289,0.4999314525426938,0.5000602204914449,0.4999844785251626,-0.45,25.35,21.0,0.5759277349999999,0.5224609400000001,0.98144531,0.5001308996938996,0.4999924058106252,0.5001082503816635,61.35,7.05,94.05,0.11401366999999998,0.447998045,0.81347656,0.4998964127017655,0.5001544150385104,0.5000462312411579,57.0,18.45,28.8
0.025390625,0.5146484400000001,0.38598633,0.49990820370985967,0.500079605688914,0.4999946707243955,-0.45,25.35,21.0,0.579589845,0.541503905,0.97753906,0.5001541485267337,0.5000125903688916,0.5000835359958565,61.65,7.8,94.05,0.11791991999999998,0.4453125,0.823242185,0.4998794257612217,0.5001454884647847,0.5000556240795934,57.0,18.45,28.8
0.01684570500000001,0.5234375,0.380371095,0.4999083368784816,0.5000979249265423,0.5000212503435741,-0.75,26.1,18.9,0.569335935,0.5598144549999999,0.982910155,0.5001560137601053,0.49999960031960133,0.5000959265245487,61.95,9.3,94.05,0.11572265499999998,0.454833985,0.8312988299999999,0.4998611064363269,0.500142357605906,0.5000235819289219,57.9,17.85,28.95
0.02075195500000001,0.52001953,0.372558595,0.49993191880740345,0.5000696133298804,0.500035372937016,-0.15,24.6,19.95,0.58203125,0.5827636700000001,0.989746095,0.5001340306400447,0.5000075276050638,0.500121773367241,61.05,6.6,93.75,0.110351565,0.462158205,0.8205566400000001,0.49989208271442426,0.5001390934038724,0.5000028644343684,58.2,19.8,29.7
0.013427734999999984,0.5144042950000001,0.369873045,0.4998976118302281,0.5000951937480623,0.499991339938051,1.05,25.8,19.8,0.5715332049999999,0.587402345,1.001953125,0.500107584189488,0.5000063284766012,0.5001207740789777,61.05,6.6,93.75,0.10424804499999998,0.46484375,0.8176269549999999,0.49989448088408295,0.5001346301606429,0.4999708889552743,56.7,18.6,29.25
0.018066404999999976,0.525878905,0.361816405,0.4998505811410063,0.5001165773475248,0.5000157878993476,-0.45,25.65,21.45,0.5622558599999999,0.5944824200000001,1.0063476550000001,0.5000680145210191,0.4999998667441116,0.5001502848041021,61.5,9.15,93.45,0.10083008000000002,0.46923827999999995,0.818359375,0.4998363253789425,0.5001248376418086,0.4999692902336795,57.45,18.3,27.9
0.013671875,0.5300292950000001,0.35961914,0.4998621056373237,0.5001117144238963,0.5000278453319522,-0.45,25.65,21.45,0.5588378900000001,0.600585935,1.014404295,0.5000425673587257,0.49999267232240197,0.5001499517952808,61.65,9.3,93.6,0.09814452999999998,0.47290039,0.817871095,0.4998571094578069,0.5001240382810113,0.4999391133163796,57.45,18.3,27.9
0.012207029999999975,0.54248047,0.36401367,0.49984478560069207,0.5000983912785184,0.4999962695332568,-0.3,25.5,19.8,0.57080078,0.596679685,1.010742185,0.5000311095339858,0.4999662924561562,0.5001715352349426,61.65,9.3,93.6,0.099609375,0.47607422000000005,0.82421875,0.49982313548945284,0.5001078507012648,0.4999590980344466,57.6,18.75,29.4
0.015869140000000014,0.5446777349999999,0.360839845,0.49982020447077347,0.5000762749025695,0.5000317756388947,0.0,26.25,18.75,0.575683595,0.600585935,0.9973144549999999,0.5000136562414658,0.5000336408722663,0.5001875895588006,61.95,8.55,94.35,0.09985351500000002,0.46850586,0.82763672,0.49982053747959476,0.5000866669420017,0.49994437592040664,58.8,18.0,29.1
0.017578125,0.55517578,0.36621094,0.4998223361286554,0.5000718116593398,0.5000251140662058,-0.15,26.7,19.65,0.573242185,0.60546875,0.997558595,0.49997961560153426,0.5000282450123509,0.5001495521148821,62.4,10.05,93.6,0.10693359500000002,0.46533203,0.8225097650000001,0.49983839053977985,0.5000752090299952,0.499949172259724,58.8,18.0,29.1
0.025146484999999986,0.556152345,0.37573242,0.4997970888065613,0.5001123139444945,0.49997495251810525,-0.15,26.7,19.65,0.5822753900000001,0.58984375,1.013671875,0.49995496780003823,0.5000404357008437,0.5001688039691963,60.75,7.65,93.75,0.10327148499999998,0.462402345,0.83203125,0.49984192116632375,0.5000644173101643,0.4999270558837751,59.25,18.6,27.45
0.01440429499999999,0.5524902349999999,0.376953125,0.499787496215193,0.5000953935882616,0.499979882113311,0.15,26.7,20.7,0.5915527349999999,0.568359375,1.009765625,0.49994890583521373,0.5000177863886077,0.500171135554544,60.75,7.65,93.75,0.10424804499999998,0.455078125,0.8405761700000001,0.4998183392374019,0.5000537588462217,0.49994544179298084,59.25,18.6,27.45
0.009277345000000025,0.54638672,0.377441405,0.49978356582098393,0.5000481630588405,0.5000384372115838,-0.45,26.1,20.4,0.595703125,0.5478515650000001,1.010742185,0.49995516772750404,0.5000168537719218,0.5001937181952026,60.75,8.85,94.5,0.10766601500000002,0.450439455,0.8312988299999999,0.4998333276886857,0.5000653499268501,0.4999646937345614,58.05,19.2,28.35
0.009521484999999984,0.5339355450000001,0.381347655,0.4997745061659027,0.5000598208110463,0.500029377469236,-0.6,27.0,19.2,0.596191405,0.54296875,0.9978027349999999,0.4999459747292679,0.5000204509827767,0.500169070480973,59.25,8.1,94.8,0.10205077999999998,0.427734375,0.8347167950000001,0.49983938974077663,0.500056090344303,0.4999670252326427,57.45,18.6,28.2
0.022460939999999995,0.5500488299999999,0.377685545,0.49980954591956445,0.5000847350370526,0.5000255804181818,-2.55,23.85,20.7,0.596191405,0.5290527349999999,1.0078125,0.49994630782535565,0.5000073943491754,0.5001245046329873,60.75,8.1,93.45,0.09814452999999998,0.404052735,0.85205078,0.49985171359789143,0.5000368384027225,0.49994544179298084,59.1,17.7,28.8
0.022460939999999995,0.5495605450000001,0.37182617,0.49980761410188196,0.5000330413516683,0.5000253805779825,-2.55,23.85,20.7,0.5964355450000001,0.5236816400000001,1.016845705,0.49996229556490274,0.4999836791643652,0.5001062518924035,61.35,9.0,94.35,0.086914065,0.39868164,0.8547363299999999,0.49989934380771134,0.5000360390419251,0.499946574249866,57.45,17.1,28.95
0.03222656499999999,0.5554199200000001,0.37109375,0.49981714010893935,0.5000779402957417,0.5000102587835439,0.45,27.45,20.7,0.5859375,0.5197753900000001,1.0209960949999999,0.49996649238362206,0.4999822802829697,0.5001087833179506,61.5,9.9,93.45,0.08520508000000002,0.400390625,0.8493652349999999,0.4999216600238596,0.4999938047792871,0.49997108879547364,59.25,17.85,30.75
0.027587890000000014,0.5588378900000001,0.36791992,0.4998414548143476,0.5000779402957417,0.5000211171749521,-1.05,27.75,18.75,0.5900878900000001,0.514160155,1.02758789,0.4999661592875343,0.4999687572973924,0.5000764747427687,60.15,9.75,95.1,0.08520508000000002,0.38964844,0.8610839849999999,0.49992865469263637,0.49995516772750404,0.49995323582255496,57.9,18.3,28.65
0.024902345000000024,0.5646972650000001,0.36279297,0.4998771607601849,0.5000457648891817,0.5000489625069043,-2.25,26.4,20.7,0.579589845,0.509765625,1.021728515,0.4999744862533956,0.4999812809947065,0.5000700130102791,60.15,9.75,95.1,0.08325195500000002,0.396240235,0.8547363299999999,0.49997994869762197,0.4999213935993493,0.49996502683064914,57.9,18.3,28.65
0.023925779999999976,0.5656738299999999,0.344970705,0.49987429632581654,0.5000713453073636,0.5000091929982361,-2.25,26.4,20.7,0.576171875,0.5178222650000001,1.013916015,0.49995623351281177,0.4999595642991563,0.5000586217698502,60.75,8.85,93.75,0.09033202999999998,0.395507815,0.849121095,0.4999673583287304,0.4999106684638293,0.4999397128369776,56.55,18.0,28.35
0.01049804499999999,0.5485839849999999,0.35083008,0.499868367529614,0.500055557408016,0.499997934926429,-1.65,28.8,20.55,0.592285155,0.52294922,1.01855469,0.4999630283413891,0.49992119375914995,0.5000090597423477,60.15,9.3,94.05,0.09643554499999998,0.39526367,0.8566894549999999,0.49999680246954387,0.49991053520794093,0.4999369149869202,57.9,18.6,28.65
-0.00048827999999997475,0.5544433599999999,0.353271485,0.49990300769014356,0.5000411684773302,0.5000135229855773,-1.65,27.75,20.25,0.596679685,0.5146484400000001,1.0170898449999999,0.4999528361421563,0.49994857273912596,0.5000018652333716,60.0,9.6,94.2,0.099609375,0.40991211,0.8503417950000001,0.5000045964991181,0.4999297204779441,0.49995250304606853,56.55,18.45,27.75
0.01049804499999999,0.548339845,0.362060545,0.49994697393026466,0.5000331746075567,0.4999970688940542,-2.55,28.2,20.25,0.600097655,0.510253905,1.0043945300000001,0.49996189588450396,0.49994710718615304,0.49999920063920256,61.65,8.55,93.6,0.10864258000000002,0.422851565,0.8444824200000001,0.49997655132696656,0.49992146018366024,0.49994710718615304,58.2,17.85,29.25
0.020996095000000024,0.5322265650000001,0.365234375,0.4999337174564641,0.5000411684773302,0.49996416079827427,-2.55,28.2,19.35,0.60253906,0.5222167950000001,1.02661133,0.4999676248405072,0.4999508376528963,0.49998994105665556,60.75,10.65,93.45,0.103515625,0.412353515,0.870117185,0.4999894081203684,0.4999267894592647,0.4999396462526666,57.9,17.55,30.0
0.021728515000000014,0.5302734400000001,0.36352539,0.49995063781269694,0.5000020650735709,0.5000106584639425,-0.6,28.8,20.25,0.59472656,0.529296875,1.022216795,0.499957832321673,0.4998922825546236,0.49997768378385166,60.75,8.1,93.45,0.09423827999999998,0.41088867,0.8635253900000001,0.5000013322970845,0.4999120007609138,0.4999431768792105,58.05,18.45,28.35
0.03125,0.52783203,0.36010742,0.4999966692136555,0.5000017319774832,0.5000237151848103,-0.6,28.8,20.25,0.5983886700000001,0.5217285150000001,1.03100586,0.49992892111714665,0.49989008422516423,0.49998454519674007,60.75,8.1,93.45,0.09741210999999998,0.39379883,0.865722655,0.500006062052091,0.4998960130213668,0.4999581654177608,58.05,18.45,28.35
0.029541015000000014,0.525390625,0.36767578,0.49999200613022643,0.5000081937099728,0.4999716884033381,-1.2,27.9,18.9,0.5920410150000001,0.50732422,1.01586914,0.4999191952698899,0.49985597700092177,0.49996849078561556,60.45,6.9,95.25,0.08666991999999998,0.385498045,0.8728027349999999,0.5000132564738006,0.49986143953241463,0.4999434433037208,57.6,18.75,28.8
0.03613281499999999,0.5310058599999999,0.372314455,0.5000413683175295,0.49998341273985486,0.5000099923590335,-0.6,27.75,20.25,0.5895996099999999,0.49291992,1.02758789,0.49988815240748163,0.4998539119273508,0.499977284103453,60.45,8.1,94.8,0.07739258000000002,0.36254883,0.872558595,0.5000225160563477,0.499825600330689,0.4999516371009602,57.6,18.75,28.8
0.04003906499999999,0.53125,0.376953125,0.5000596209708469,0.4999736202210207,0.5000012657127736,-0.75,27.45,20.4,0.592773435,0.47290039,1.02319336,0.499883755748563,0.4998119440892232,0.4999652932551594,61.05,6.9,93.45,0.09838866999999998,0.338623045,0.8767089849999999,0.5000571562168772,0.49978210026801106,0.49996109643644016,56.4,17.1,28.95
0.03198241999999999,0.53564453,0.377685545,0.5000493621873031,0.49999187287433805,0.4999858109095136,-0.75,27.45,20.4,0.6145019549999999,0.458251955,1.01586914,0.499897145478252,0.4998082802067909,0.49992412477782927,61.05,6.9,93.45,0.11083984500000002,0.33105469,0.8630371099999999,0.500088865271461,0.4997488590761434,0.49995323582255496,57.9,16.8,30.0
0.03369140499999997,0.5285644549999999,0.384033205,0.5001125137846938,0.49997008959447686,0.5000029311059457,-1.2,28.2,20.7,0.62597656,0.4453125,0.9982910150000001,0.4998900176408533,0.4997920260427336,0.4999052726039139,58.35,8.55,93.6,0.13598633000000002,0.32470703,0.834472655,0.5001480865619092,0.4997051592605326,0.4999649601590717,57.9,16.8,30.0
0.03808593999999999,0.5197753900000001,0.38745117,0.50010225500115,0.4999216600238596,0.4999828131319904,-1.35,28.5,20.55,0.62841797,0.44067383,0.9719238299999999,0.4998867534388197,0.4997940911163045,0.4998628384138101,59.85,8.25,95.4,0.17236327999999998,0.333984375,0.82470703,0.5001903874088581,0.4997336707846602,0.4999792159211356,57.45,17.85,30.0
0.025878904999999976,0.513671875,0.383789065,0.5001308331095886,0.4999112014001164,0.49995583383241304,0.0,26.25,21.6,0.64453125,0.44067383,0.953125,0.49990560570000164,0.49981174424902386,0.49983612553874307,59.85,8.25,95.4,0.189453125,0.365234375,0.8171386700000001,0.5002347534166444,0.4997283415090557,0.5000029976902568,58.05,17.4,31.5
0.03247070500000001,0.513671875,0.39428711,0.5001801286253142,0.4998702327629856,0.49999007431254394,-1.65,28.5,19.5,0.6496582049999999,0.447509765,0.9296875,0.49990340737054223,0.49981174424902386,0.4997952235731897,59.55,7.05,94.65,0.20727539,0.38354492,0.8156738299999999,0.5002490757630191,0.4998170735246283,0.5000027312657465,56.7,19.35,30.75
0.04028320500000001,0.50854492,0.39794922,0.5002003797678916,0.49986963324238753,0.49997908266524715,-1.65,28.5,19.5,0.6535644549999999,0.46044922,0.9177246099999999,0.499951237333295,0.4998414548143476,0.499774839174724,59.85,7.5,93.3,0.216552735,0.415039065,0.80566406,0.5002332878636715,0.49981913859819926,0.5000099923590335,56.7,17.85,30.75
0.03393554499999999,0.510498045,0.395507815,0.500209772606327,0.4998621056373237,0.49993151912700473,-1.2,27.9,20.4,0.64941406,0.482666015,0.9167480450000001,0.5000032642020336,0.4999042733156506,0.49976398087058205,59.7,6.6,94.5,0.21923827999999998,0.439697265,0.8010253900000001,0.5002242282085902,0.499875095686614,0.49999034073705423,56.7,17.85,30.75
0.03466797000000003,0.501953125,0.41015625,0.5002556707513972,0.4998112779843142,0.5000031309461451,-1.8,27.45,20.7,0.6599121099999999,0.5078125,0.9304199200000001,0.5000325749996921,0.49990986910303187,0.4997589181067543,59.7,6.6,94.5,0.20996093999999998,0.483398435,0.79003906,0.5002270926429586,0.4999508376528963,0.5000189854298038,57.45,17.55,31.05
0.03979491999999999,0.502441405,0.411376955,0.5002384172990766,0.49979955356053096,0.4999652932551594,-0.6,25.05,19.8,0.6484375,0.5290527349999999,0.940429685,0.5000654165111611,0.49992618985140025,0.4997180827255119,59.7,6.6,94.5,0.21166991999999998,0.505126955,0.794921875,0.5002368185774818,0.49998241345159167,0.5000164540915232,56.25,17.7,31.95
0.03417968999999999,0.49584961,0.40527344,0.5002446125197896,0.4997970888065613,0.49998654368600004,-0.6,25.05,19.8,0.6340332049999999,0.5451660150000001,0.9465332049999999,0.5000770742633669,0.49995303598235563,0.4997580520743795,57.3,8.25,94.35,0.193603515,0.5261230450000001,0.7766113299999999,0.50020051302378,0.5000301769172999,0.500042101094016,56.7,17.55,32.1
0.02465820500000001,0.4921875,0.389160155,0.5002462113286508,0.49979788816735876,0.499988608759571,0.6,27.75,20.55,0.6379394549999999,0.5588378900000001,0.94921875,0.500088865271461,0.49999680246954387,0.4997838323327607,58.65,6.9,94.8,0.17651366999999998,0.5400390650000001,0.79296875,0.5001538821022233,0.5000827366350591,0.5000404357008437,55.8,18.0,32.55
0.017089845000000024,0.48413086,0.3828125,0.5002701263536604,0.49981414241868255,0.4999746194220175,-0.15,24.9,21.45,0.6296386700000001,0.5827636700000001,0.9921875,0.5001092495826603,0.5000148552826619,0.4997732404531291,58.35,8.25,94.35,0.14428711,0.5119628900000001,0.8244628900000001,0.5000955267568835,0.5001608766837337,0.5000584219296508,55.8,17.7,30.45
0.0078125,0.49243164,0.369628905,0.5002693935771739,0.4998110780568484,0.4999650934149601,-0.6,27.3,20.25,0.6232910150000001,0.5859375,1.03808594,0.5000857343253159,0.49999780167054064,0.49979835451933485,60.15,7.05,94.05,0.1015625,0.50317383,0.8288574200000001,0.500131699054697,0.5002115711681212,0.5000832694840798,56.55,17.4,30.45
-0.006347654999999975,0.482421875,0.359375,0.5002939747070926,0.4997982879350239,0.5,-1.35,25.5,18.75,0.6032714849999999,0.575683595,1.049072265,0.5000675482563095,0.5001324985027609,0.4998324617435773,59.55,7.5,94.35,0.087890625,0.49169922000000005,0.7565917950000001,0.5002532059974276,0.5001376278508995,0.5000799387850017,56.55,17.4,30.45
-0.01855469000000005,0.48535156,0.34716797,0.5002787864156094,0.49977697091987233,0.5000075276050638,-1.35,25.5,18.75,0.5361328150000001,0.56298828,0.9921875,0.5000004663519761,0.5000499617079011,0.49984778329094887,59.7,8.4,95.55,0.090820315,0.4609375,0.78076172,0.500166472471115,0.5001617427161085,0.5001095160944371,55.65,18.3,32.1
-0.02050781500000005,0.48803711,0.33520508,0.500247943306134,0.4997991538801323,0.4999796822731117,0.0,27.75,20.25,0.55859375,0.541015625,1.0424804699999999,0.49998947470467936,0.5000050627638277,0.49985537748032366,59.7,8.4,95.55,0.05566406499999999,0.459716795,0.8229980450000001,0.5002446125197896,0.5001532159100479,0.5000958598529712,55.65,18.3,32.1
-0.024169920000000046,0.49072265499999995,0.3203125,0.500245345296276,0.4997886952563891,0.5000249142260064,1.8,26.4,20.4,0.541015625,0.5451660150000001,1.029296875,0.5000077274452632,0.5000880658233972,0.4998718315718469,58.8,7.5,94.35,0.04467773499999998,0.459472655,0.830566405,0.500184525284233,0.5000717449877623,0.5001269027153795,56.55,18.0,30.45
-0.04345703000000003,0.493896485,0.305908205,0.5002055757876077,0.4997961561898755,0.5000231155769457,1.2,25.65,21.45,0.5383300799999999,0.525878905,1.0390625,0.5000490290912153,0.5000947273960861,0.49987556203859007,59.7,5.7,94.2,0.05883789000000002,0.45727539,0.856933595,0.5001867901980033,0.5000728108603365,0.5001170436122344,56.1,18.3,30.3
-0.061279295000000046,0.48291015499999995,0.318847655,0.5001773974468343,0.49984185449474633,0.5000157213150367,1.2,25.65,21.45,0.5437011700000001,0.54345703,1.045166015,0.5000927955784036,0.5000877328145759,0.4998629716696985,60.0,7.35,96.0,0.04125976500000002,0.46411133,0.834472655,0.5002157014025297,0.5000655497670494,0.5001097825189473,57.45,18.3,30.0
-0.06860351500000002,0.48754883,0.32836914,0.5001912534412329,0.4998457848889553,0.4999944042998852,2.4,25.5,20.55,0.5283203150000001,0.5441894549999999,1.010742185,0.5000855344851165,0.5000850681331404,0.4998637710304959,59.25,6.9,94.5,0.04077148499999998,0.451171875,0.82861328,0.5002085734778645,0.5000331746075567,0.5000708123710765,56.55,19.5,30.15
-0.041015625,0.49291992,0.353759765,0.5001586784415407,0.4998720979963572,0.5000045964991181,1.35,25.05,20.85,0.5222167950000001,0.532714845,1.009765625,0.5000579555776746,0.5000617527159953,0.49985404518323917,58.95,7.65,94.2,0.05004883000000001,0.46533203,0.84375,0.500180461721402,0.5000073943491754,0.5000969257255454,57.9,20.1,29.7
-0.019775390000000014,0.520996095,0.37963867,0.5000870000380894,0.49994637440966666,0.4999726876043349,0.75,24.9,21.0,0.53466797,0.5400390650000001,1.012939455,0.5001111148160319,0.5000516936853844,0.4998572427136953,59.1,7.05,93.3,0.06469726500000002,0.48901367,0.8420410150000001,0.5001839923479459,0.4999483063146157,0.5000619525561947,57.15,19.35,30.0
-0.011230470000000025,0.524902345,0.392822265,0.5000511608363637,0.5000069946687767,0.500022049791638,0.6,24.3,22.95,0.5422363299999999,0.54248047,0.995117185,0.5001265030349809,0.5000393698282696,0.49985144717338115,59.1,7.05,93.3,0.09008789000000002,0.482177735,0.833496095,0.5001684708731085,0.49997062253076396,0.5000401691890669,57.15,19.35,30.0
-0.008056640000000016,0.506591795,0.40283203,0.5000101256149219,0.500042101094016,0.4999962029489458,0.6,24.3,22.95,0.56591797,0.5793457049999999,1.0043945300000001,0.5001412251490208,0.5000035972108549,0.4998634379344082,59.1,6.3,95.1,0.1015625,0.50048828,0.841796875,0.5001574793130782,0.499981947186882,0.49999173970571614,56.4,19.35,28.95
-0.009521484999999984,0.5056152349999999,0.408447265,0.49996915697779104,0.5001071179247784,0.49997548545439235,0.6,24.0,21.6,0.5778808599999999,0.60107422,1.0092773449999999,0.5001237718565009,0.4999910069292297,0.49988901835259003,60.15,6.75,95.4,0.111328125,0.510253905,0.83544922,0.5001865903578039,0.4999820803555039,0.49996129636390596,56.4,19.35,28.95
-0.0009765600000000063,0.510498045,0.41699219,0.49996622587184525,0.5001306998537002,0.500044832272496,0.15,24.9,22.05,0.5910644549999999,0.6125488299999999,1.0004882800000001,0.5000769410074785,0.499997934926429,0.4999012756253938,59.85,7.05,93.3,0.11962890499999998,0.50732422,0.8342285150000001,0.5001550145591085,0.4999523032058692,0.49992652294748796,56.4,19.35,28.95
-0.0012207050000000094,0.510498045,0.42114258,0.4999516371009602,0.5001776638713445,0.5000699464259681,1.2,24.9,22.5,0.60986328,0.61816406,1.002929685,0.5000537588462217,0.5000065283168006,0.4999232588327209,59.85,7.05,93.3,0.13403320500000002,0.50048828,0.841308595,0.5001606102592233,0.4999452419527815,0.4999114012403158,58.05,20.25,28.35
0.0017089849999999843,0.50708008,0.40991211,0.49988608724664424,0.5002109050632122,0.5000156546434593,1.2,24.9,22.5,0.623046875,0.5949707049999999,0.98779297,0.5000123905286922,0.5000029311059457,0.4999267227876873,59.25,6.9,94.5,0.13989258000000002,0.49951172000000005,0.84472656,0.5001700696819698,0.4999403124448421,0.499908403550059,57.3,21.45,30.15
0.0026855449999999906,0.5168457049999999,0.400634765,0.4999099356873429,0.500181061242,0.5000788729124275,1.05,25.05,19.5,0.623046875,0.579589845,0.979003905,0.4999962029489458,0.49999693563816583,0.4999292542132344,60.9,8.25,92.85,0.142822265,0.493896485,0.83203125,0.5002065749886044,0.49992485755431576,0.49992479097000475,56.55,19.2,29.4
0.0029296899999999935,0.5231933599999999,0.40283203,0.49991319988937644,0.5001732672124259,0.5000639509581881,0.6,24.0,20.25,0.62207031,0.5498046900000001,0.9650878900000001,0.4999746194220175,0.5000211837592632,0.4999528361421563,60.9,8.25,92.85,0.15649414,0.490966795,0.83691406,0.5002274923233573,0.499968624041504,0.4999637611178756,55.5,18.75,29.4
0.012695314999999993,0.5148925799999999,0.39770508,0.49987116537967136,0.5002007128639794,0.5000229157367464,-0.15,26.1,19.95,0.625,0.5458984400000001,0.96435547,0.4999902741527433,0.5000398361802457,0.499926456363177,60.0,7.35,94.2,0.15258789,0.48535156,0.8420410150000001,0.5002296240685057,0.49997322054062204,0.49998987438507814,55.5,18.75,29.4
0.026855470000000024,0.50708008,0.40209961,0.49992772207595054,0.5001394930842712,0.5000416347420399,1.2,25.35,19.65,0.6164550799999999,0.5400390650000001,0.9514160150000001,0.5000191852700031,0.5000438996558102,0.49993311793586603,60.0,5.7,93.75,0.15307616999999998,0.48681640499999995,0.8298339849999999,0.5002271592272696,0.49996416079827427,0.5000331079359792,56.55,19.5,29.85
0.03881835999999998,0.5148925799999999,0.39770508,0.4999640275423859,0.5001424908617944,0.5000430337107018,1.2,25.35,19.65,0.615234375,0.53564453,0.9548339849999999,0.5000652833425392,0.5000739433172217,0.49988129099459333,60.9,7.5,93.6,0.14599609500000002,0.5166015650000001,0.834472655,0.5001964494609491,0.5000012657127736,0.5000513606765631,56.55,19.5,29.85
0.04638672000000003,0.5285644549999999,0.404296875,0.4999479732185279,0.500169736585882,0.5000289777888374,-0.15,26.4,19.95,0.6223144549999999,0.5471191400000001,0.96142578,0.5000793391771372,0.5000832694840798,0.4998943476281945,60.9,7.5,93.6,0.16845702999999998,0.515625,0.829589845,0.5001818606027975,0.49999820135093936,0.5000507610686985,57.3,19.5,31.2
0.05761718999999999,0.5300292950000001,0.408203125,0.4999767511671659,0.5001456217206731,0.5000255137466044,1.35,24.3,20.25,0.653808595,0.537109375,0.962402345,0.5000905306646333,0.5002362189696173,0.49986716848841783,61.35,8.25,94.35,0.162109375,0.5197753900000001,0.8249511700000001,0.5001875895588006,0.5000238483534322,0.5000728108603365,57.15,19.8,30.3
0.06762695500000002,0.55078125,0.39501953,0.4999962029489458,0.5001540153581118,0.5000061286364019,-0.45,26.4,20.4,0.5876464849999999,0.5439453150000001,0.959472655,0.5001376278508995,0.5001919196334084,0.4998789594092456,61.05,6.9,94.5,0.15698241999999998,0.5224609400000001,0.831054685,0.5001556140797065,0.500026646290756,0.5000930620029139,56.55,18.75,29.85
0.05688476500000002,0.5476074200000001,0.37915039,0.49997601839067946,0.5001393599156492,0.4999994004794019,-0.45,25.35,20.4,0.5925292950000001,0.557128905,0.9875488299999999,0.5001340972243556,0.5001761983183717,0.49986856736981333,61.05,6.9,94.5,0.15673827999999998,0.5114746099999999,0.8359375,0.5001555474953956,0.5000370382429218,0.5000949272362856,57.45,21.15,30.75
0.04345702999999997,0.5461425799999999,0.373535155,0.500005262604027,0.5001265030349809,0.5000159211552361,-0.45,25.35,20.4,0.6110839849999999,0.568847655,1.01977539,0.5001416914137304,0.5001087833179506,0.4998778269523604,61.05,8.1,94.2,0.146728515,0.502929685,0.8395996099999999,0.500127568907555,0.500046697593134,0.5000458981450702,56.7,21.6,30.0
0.03881835999999998,0.5363769549999999,0.35961914,0.4999928054910239,0.5000961263647481,0.4999870099507097,-0.3,26.55,18.45,0.6066894549999999,0.5808105450000001,1.00756836,0.500086933366512,0.5000732105407353,0.49990780394219453,61.35,7.8,93.6,0.14404297000000002,0.5078125,0.83935547,0.5001476202099331,0.5000342403928644,0.500035506105638,54.75,21.0,29.85
0.030761720000000024,0.52392578,0.35131836,0.49998967454487875,0.5000654831827385,0.49995017154798727,0.6,25.05,19.5,0.5822753900000001,0.5832519549999999,0.9880371099999999,0.5000503613882998,0.5000713453073636,0.4999297871495215,60.0,7.65,93.75,0.13208008000000002,0.4921875,0.8557128900000001,0.5001244379614099,0.5000140559218645,0.5000063284766012,54.75,21.0,29.85
0.021728515000000014,0.51123047,0.344970705,0.5000073943491754,0.5000195183660909,0.5000043299873413,0.0,25.8,19.8,0.5930175799999999,0.58300781,1.017333985,0.500024647801496,0.5000387703076715,0.4999307863505183,60.0,7.65,93.75,0.12451172000000002,0.49633789,0.8483886700000001,0.5001278354193318,0.5000215834396619,0.5000136562414658,56.7,20.55,28.95
0.015136720000000025,0.5036621099999999,0.341796875,0.5000255804181818,0.499991339938051,0.5000068614128884,0.0,25.8,19.8,0.57763672,0.5866699200000001,1.0083007800000001,0.5000373047546985,0.5000537588462217,0.4999016753057926,61.5,7.65,93.75,0.11572265499999998,0.48974609500000005,0.8488769549999999,0.5001420245098183,0.49998481162125036,0.49997854972896005,56.7,20.55,28.95
0.008300779999999975,0.49951172000000005,0.34838867,0.500017519876831,0.4999681577767943,0.49998934153605745,-1.35,25.05,19.2,0.57470703,0.58935547,0.9973144549999999,0.5000218499514386,0.500044832272496,0.4999316523828931,61.65,8.1,93.45,0.11157226500000002,0.49902344,0.8464355450000001,0.500147087273646,0.5000126569532025,0.4999666922238214,57.45,20.85,29.25
0.019042970000000024,0.5078125,0.364257815,0.5000359057860366,0.4999334510319538,0.4999637611178756,-1.2,24.9,19.65,0.57763672,0.5910644549999999,1.010742185,0.5000379042752966,0.5000321087349825,0.4999079371980829,61.65,8.25,92.55,0.10034179499999998,0.5075683599999999,0.8518066400000001,0.5001406255411563,0.4999982680225168,0.499955234311815,56.25,19.95,29.4
0.01879883000000001,0.5217285150000001,0.36376953,0.500073610221134,0.4999106684638293,0.49999540350088195,-0.6,25.05,19.8,0.6015625,0.5856933599999999,1.036376955,0.5000219831200605,0.5000069279971994,0.4999563001843892,61.8,8.4,92.7,0.10107422000000002,0.50097656,0.853027345,0.5001096493503254,0.500010791719831,0.49994284378312276,56.7,21.15,27.9
0.013427734999999984,0.540527345,0.372070315,0.5000347733291515,0.49994684076164275,0.4999431768792105,-0.3,25.8,19.8,0.5646972650000001,0.57861328,1.009033205,0.5000040635628309,0.500018052813118,0.4999535023343317,61.5,8.85,93.75,0.10058594,0.494873045,0.87109375,0.5000954601725726,0.5000636845336779,0.499975951719102,56.1,20.85,29.7
0.01684570500000001,0.5361328150000001,0.37451172,0.49999600302148,0.49993851379578147,0.4999649601590717,-0.3,25.8,19.8,0.59326172,0.5744628900000001,1.03125,0.49998547781342584,0.5000044632432297,0.4999495053558118,60.75,6.9,93.75,0.09667969,0.501464845,0.880371095,0.5000772741035662,0.5000376378507864,0.4999529693980447,56.1,20.85,29.7
0.008789064999999993,0.52001953,0.365234375,0.5000114579120064,0.499923858353319,0.49997382006122004,-0.6,25.5,20.25,0.5891113299999999,0.552734375,1.0161132800000001,0.4999843453565407,0.500009259582547,0.499935849114346,61.8,6.9,93.15,0.10815429499999998,0.5119628900000001,0.8703613299999999,0.5000497618677018,0.5000661492876476,0.4999901408968549,56.1,20.85,29.25
0.0034179700000000254,0.494384765,0.372314455,0.4999868101105104,0.4999228591523222,0.49999487056459485,-0.75,26.7,20.4,0.5686035150000001,0.54345703,0.993652345,0.49999600302148,0.49998760947130777,0.4999408452938628,61.8,6.9,93.15,0.10693359500000002,0.5241699200000001,0.8605957049999999,0.5000701462661675,0.5000257802583812,0.4999828131319904,56.1,20.85,29.25
0.008789064999999993,0.5,0.37524414,0.49999473739597294,0.49994204442232537,0.4999628285011898,-0.3,24.75,18.75,0.567871095,0.552734375,0.975097655,0.500006062052091,0.5000126569532025,0.4999457083047576,61.8,8.1,93.15,0.111328125,0.5397949200000001,0.8620605450000001,0.5000576224815869,0.5000174532925199,0.500015987739547,56.1,21.15,29.25
0.011474609999999984,0.49291992,0.380859375,0.5000226493122361,0.49990966926283253,0.500011324656118,-0.3,24.75,18.75,0.59423828,0.5498046900000001,1.026123045,0.5000152549630607,0.5000269127152663,0.49997495251810525,60.9,6.75,92.55,0.11621094,0.53564453,0.8508300799999999,0.5000785398163398,0.5000532259099346,0.5000176531327193,57.9,21.15,30.0
0.019775390000000014,0.484375,0.38623047,0.5000103920394322,0.4999443093360957,0.49997668449558846,0.15,26.1,20.4,0.58203125,0.5373535150000001,0.9860839849999999,0.5000137894100877,0.5000127236247799,0.49995097090878465,61.35,7.5,91.8,0.12353515499999998,0.5520019549999999,0.861816405,0.5000710788828533,0.49999946706371295,0.5000516271010734,57.9,20.55,28.95
0.020996095000000024,0.47363281,0.39868164,0.5000233820887224,0.49993884689186924,0.499962561989413,0.0,25.5,20.85,0.5905761700000001,0.5407714849999999,0.9792480450000001,0.500042634030303,0.5000053958599154,0.49994963861170016,61.95,6.3,92.55,0.13769531499999998,0.55126953,0.8410644549999999,0.5000568897051004,0.49995370217453117,0.5000509609088979,56.7,20.85,29.7
0.03051758000000001,0.48535156,0.399414065,0.5000604870032217,0.4999267227876873,0.49999393794790903,-0.75,23.85,20.7,0.5983886700000001,0.5546875,0.9797363299999999,0.5000417014136173,0.5000087932305709,0.499967225072842,61.35,7.05,92.55,0.14868164,0.5471191400000001,0.8361816400000001,0.5000538254305328,0.49995610034418986,0.5000746760937081,57.0,21.0,30.15
0.021240234999999986,0.48388672000000005,0.397216795,0.5000522932932489,0.49996742500030783,0.4999944042998852,0.15,24.6,21.0,0.60205078,0.5622558599999999,0.9660644549999999,0.5000645505660527,0.4999875428869968,0.4999859440781355,60.75,6.9,93.75,0.16943359500000002,0.537109375,0.8400878900000001,0.500030776437898,0.49996695864833174,0.5000594877149585,56.25,22.2,29.4
0.018554689999999995,0.49926758,0.407470705,0.5000489625069043,0.49997055585918654,0.5000117910080942,0.15,24.6,21.0,0.60595703,0.5700683599999999,0.96582031,0.5000826699634817,0.49997894949662525,0.4999660260316459,60.75,6.9,93.75,0.166259765,0.5212402349999999,0.8337402349999999,0.49999353826751036,0.49997188824353755,0.5000782733918294,57.6,20.25,29.4
0.02612304499999999,0.50830078,0.39770508,0.5000550911433063,0.49996089659624077,0.5000332411918677,1.05,25.5,20.85,0.6008300799999999,0.5852050799999999,0.9641113299999999,0.5000814709222855,0.4999714884758723,0.49999307200280063,60.45,6.9,93.75,0.17065429499999998,0.51904297,0.8420410150000001,0.49998720979090905,0.4999862771742233,0.5000529593981579,57.6,20.25,29.4
0.03149414000000002,0.529296875,0.40185547,0.5000324418310702,0.4999895413762568,0.500012790209091,-0.45,26.7,20.7,0.6066894549999999,0.587890625,0.970703125,0.5000543583668198,0.4999880758232839,0.4999956700126587,61.8,6.9,92.4,0.16381836,0.515625,0.8332519549999999,0.4999992672235135,0.49998734304679743,0.5000464310813573,56.7,22.35,29.7
0.028320314999999995,0.5402832049999999,0.392333985,0.5000130566336013,0.49999200613022643,0.500000066584311,0.0,25.05,19.5,0.5959472650000001,0.5891113299999999,0.9709472650000001,0.5000567565364785,0.5000289777888374,0.49999260565082454,61.65,7.8,92.85,0.14770508000000002,0.5202636700000001,0.83935547,0.4999965359577671,0.4999822136113923,0.5000372381703876,56.7,22.35,29.7
0.024902345000000024,0.5446777349999999,0.385009765,0.5000021983294594,0.4999722879239362,0.5000263797789792,0.3,24.3,19.2,0.6242675799999999,0.5842285150000001,0.98828125,0.5000143889306857,0.5000362388821243,0.49999553675677033,61.65,7.8,92.85,0.14501952999999998,0.517578125,0.8371582049999999,0.5000035306265439,0.5000095926786348,0.5000385704674721,56.7,21.15,30.3
0.027587890000000014,0.537597655,0.377197265,0.499971222051362,0.5000057289560033,0.4999884755036826,-1.8,23.85,19.95,0.58544922,0.568847655,0.9855957049999999,0.5000103920394322,0.4999660260316459,0.5000074609334864,61.05,7.65,92.4,0.13159179499999998,0.5168457049999999,0.8386230450000001,0.4999958698528581,0.5000289777888374,0.5000202511425773,56.4,20.85,28.95
0.016113279999999976,0.5285644549999999,0.368896485,0.4999636944462982,0.4999956033410813,0.4999774839436523,-0.15,22.35,19.65,0.5734863299999999,0.5983886700000001,0.9851074200000001,0.49998794256739554,0.49998694336639876,0.5000201845582664,61.35,9.75,92.55,0.126708985,0.5224609400000001,0.830078125,0.5000041301471418,0.5000407021253541,0.5000127236247799,56.55,21.0,28.8
0.012207029999999975,0.5146484400000001,0.372802735,0.49997355363670976,0.49997008959447686,0.4999826799633685,-0.6,24.0,21.6,0.58935547,0.5910644549999999,1.022216795,0.5000013989686619,0.5000183193248948,0.49998168067510523,61.35,9.75,92.55,0.10913085999999998,0.5185546900000001,0.81591797,0.5000025314255471,0.5000759418064817,0.4999938047792871,56.7,21.6,28.65
0.013916015000000016,0.5,0.37158203,0.49996442722278467,0.4999609632678182,0.499963894373764,0.75,25.35,20.7,0.5703125,0.592773435,1.0122070300000001,0.5000056622844258,0.5000063950609122,0.5000013989686619,61.65,8.25,93.3,0.10766601500000002,0.5021972650000001,0.834960935,0.5000124571130031,0.5000917962901403,0.4999880758232839,55.65,20.85,30.0
0.013183595000000025,0.491210935,0.358154295,0.4999760849749904,0.49998414551634135,0.4999892082801691,0.75,25.35,20.7,0.5759277349999999,0.58300781,1.0180664050000001,0.49997022285036524,0.500011258071807,0.5000038637226316,61.5,10.35,93.45,0.091796875,0.50708008,0.8400878900000001,0.5000171201964322,0.5000453652087831,0.499991339938051,56.4,20.85,28.95
0.01049804499999999,0.49560547000000005,0.345458985,0.500015388218949,0.4999692902336795,0.5000523598775598,0.6,25.05,19.8,0.55419922,0.57470703,1.009521485,0.49998041504959817,0.5000095926786348,0.5000369050742999,61.35,8.55,94.05,0.09106445500000002,0.505126955,0.8537597650000001,0.5000552909835057,0.5000251140662058,0.49998441194085164,56.4,20.85,28.95
0.00024414000000001578,0.5202636700000001,0.33154297,0.4999922059704259,0.4999688904660143,0.5000298438212122,0.45,24.9,19.65,0.5563964849999999,0.5617675799999999,1.00805664,0.49997162173176074,0.5000161209954355,0.5000255804181818,61.35,8.55,94.05,0.08374023499999998,0.498779295,0.8479003900000001,0.5000979249265423,0.5000008660323748,0.4999798154417336,56.55,22.5,29.1
-0.0014648450000000254,0.5251464849999999,0.338623045,0.5000043299873413,0.4999648269904498,0.5000289777888374,0.15,26.4,21.45,0.55029297,0.5534667950000001,1.0078125,0.4999996669039123,0.5000038637226316,0.5000077940295742,61.05,8.1,94.2,0.08349609500000002,0.48535156,0.8249511700000001,0.5001346301606429,0.49998188051530457,0.4999936049390878,54.45,21.75,28.05
-0.001953125,0.5314941400000001,0.34375,0.5000249142260064,0.49994803980283886,0.5000740099887991,-0.45,23.85,21.0,0.55517578,0.5498046900000001,1.006591795,0.5000071945089761,0.5000069946687767,0.5000245145456076,61.35,7.8,94.35,0.09423827999999998,0.48461914,0.8190917950000001,0.5001524165492505,0.5000062618922902,0.4999700230101659,57.0,21.75,28.05
-0.0031738300000000094,0.5302734400000001,0.35498047,0.4999847450369394,0.49995336907844334,0.5000513606765631,-0.45,23.85,21.0,0.5598144549999999,0.53515625,1.002197265,0.5000089264864593,0.5000221829602599,0.49999600302148,60.9,6.75,94.05,0.098632815,0.4765625,0.83642578,0.5001304333419234,0.5000305099261212,0.4999856776536252,57.3,21.0,29.1
0.00048827999999997475,0.5187988299999999,0.361083985,0.49998201377119295,0.49994870599501434,0.5000538920148437,0.75,26.1,19.35,0.5729980450000001,0.5402832049999999,1.005615235,0.5000419012538166,0.4999906071615645,0.49994577488906855,60.15,7.5,91.2,0.10791015499999998,0.47583008,0.8298339849999999,0.5001598774827368,0.4999892082801691,0.49996542651104786,55.8,20.7,28.8
0.005615234999999984,0.5173339849999999,0.365966795,0.5000297105653237,0.4999077373578836,0.5000563568560799,0.75,24.6,21.0,0.5788574200000001,0.5417480450000001,0.9875488299999999,0.5000536921746443,0.500006062052091,0.49994577488906855,60.0,8.4,93.45,0.11572265499999998,0.459472655,0.8293457049999999,0.5001761983183717,0.5000116577522058,0.49996216230901436,57.45,20.55,30.3
0.003662109999999984,0.5285644549999999,0.37866211,0.5000115910806283,0.49997308728473366,0.5000468307617559,-0.6,25.8,20.85,0.5729980450000001,0.5466308599999999,0.9904785150000001,0.5000540252707321,0.5000013322970845,0.49990140888128226,61.05,8.4,93.15,0.122070315,0.463134765,0.8098144549999999,0.5002334877911373,0.49998960796056774,0.49996156278841625,57.45,20.55,30.3
0.019042970000000024,0.5266113299999999,0.36669922,0.5000152549630607,0.4999631615972775,0.5000486959951276,-0.15,24.6,19.65,0.5754394549999999,0.5427246099999999,0.9921875,0.500073543636823,0.4999966692136555,0.49990520593233645,61.05,8.4,93.15,0.126953125,0.47412109500000005,0.80957031,0.5002562036876843,0.499971288635673,0.49998481162125036,54.75,21.75,29.4
0.01635741999999999,0.5363769549999999,0.361083985,0.5000479632186411,0.49995530089612594,0.5000732772123127,-0.15,24.6,19.65,0.567871095,0.5603027349999999,0.970214845,0.5000732772123127,0.5000139226659761,0.4998906837457623,61.5,8.1,93.15,0.12963866999999998,0.47338867,0.826171875,0.5002597343142282,0.49999813476662835,0.4999340505525518,54.75,21.75,29.4
0.013671875,0.5520019549999999,0.35083008,0.5000509609088979,0.4999944042998852,0.5000864671018024,1.5,25.65,19.65,0.560546875,0.5700683599999999,0.96826172,0.5000457648891817,0.5000815375065966,0.49987329712481976,61.95,7.8,93.6,0.122070315,0.49609375,0.82128906,0.5002785199038327,0.4999990673833142,0.49993411713686275,54.75,21.75,29.4
-0.0009765600000000063,0.56298828,0.35083008,0.49999960031960133,0.5000054624442265,0.5000284448525503,0.75,25.35,21.0,0.556152345,0.569335935,0.991210935,0.5000383039556954,0.5000786064006507,0.49985944104315466,60.75,7.65,91.95,0.122070315,0.49243164,0.81640625,0.5002943744747578,0.5000267128750671,0.49991366615408606,57.45,20.1,28.95
0.002197265000000016,0.5690917950000001,0.349609375,0.5000265796191786,0.4999958698528581,0.49999833460682774,0.15,25.65,20.7,0.556152345,0.5710449200000001,0.9948730450000001,0.5000298438212122,0.5000860007498261,0.4998551776401243,60.75,7.65,91.95,0.118164065,0.49853515499999995,0.81689453,0.5002899778158391,0.500038037531185,0.4999090030706571,57.9,22.35,27.9
0.015869140000000014,0.56689453,0.364257815,0.5000275122358644,0.49997548545439235,0.5000109915600303,-1.05,24.3,20.25,0.540527345,0.56591797,1.0151367199999999,0.500057489312965,0.5001661393750272,0.49983719141131727,60.75,7.65,91.95,0.10888672000000002,0.49291992,0.8195800799999999,0.5003011026317578,0.5000419678381276,0.499919861374799,58.2,21.15,28.65
0.01684570500000001,0.5441894549999999,0.380371095,0.49999034073705423,0.5000100589433445,0.4999584984265821,0.6,24.3,21.3,0.544921875,0.568359375,1.0024414050000001,0.5000184524935167,0.5001329647674705,0.49982699921208446,63.6,9.15,92.7,0.10083008000000002,0.489501955,0.834960935,0.5003142258496699,0.5000237817691212,0.499893148499732,56.4,21.9,28.65
0.030761720000000024,0.53955078,0.39355469,0.5000309762780973,0.5000029976902568,0.4999930053312232,1.05,24.75,19.8,0.5563964849999999,0.568847655,1.02734375,0.49999726873425354,0.5000954601725726,0.4998161409079426,61.95,7.05,92.85,0.09643554499999998,0.493164065,0.8244628900000001,0.5003396064276524,0.5000137228257767,0.499904406571539,56.4,20.55,27.9
0.03295898499999998,0.5361328150000001,0.38305664,0.5000490290912153,0.5000298438212122,0.4999774839436523,-0.45,26.1,21.0,0.560546875,0.5676269549999999,1.025634765,0.49996249540510207,0.5000379042752966,0.4998096791754529,61.95,7.05,92.85,0.10180664000000002,0.51513672,0.818847655,0.5003447358630576,0.5000137228257767,0.49988715311921844,57.15,20.85,28.65
0.029785154999999976,0.5461425799999999,0.361083985,0.5000359057860366,0.5000492289314147,0.4999997335754897,0.45,25.35,20.4,0.5715332049999999,0.5661621099999999,1.024414065,0.49996955665818976,0.5000182526533173,0.4998166071726522,61.05,7.35,91.65,0.10302734500000002,0.5205078150000001,0.82373047,0.5003625888359762,0.5000329747673573,0.49988861867219136,57.15,20.85,28.65
0.006591794999999991,0.5388183599999999,0.3515625,0.5000748759339075,0.5000293108849251,0.5000117243365167,0.45,25.35,20.4,0.564941405,0.5705566400000001,1.0161132800000001,0.49995010487640984,0.499995336916571,0.49980581545282127,61.8,7.35,93.15,0.11230469,0.5305175799999999,0.8220214849999999,0.5003524632210543,0.5000223162161483,0.49985277947046564,56.4,19.8,28.65
-0.013427734999999984,0.5422363299999999,0.35058594,0.5000991240550048,0.4999900076409665,0.500026779459378,-0.15,26.4,19.95,0.57519531,0.5710449200000001,1.00756836,0.49994337671940986,0.4999880758232839,0.4998120107608006,62.7,6.3,93.3,0.12255859500000002,0.53173828,0.8171386700000001,0.5003621224840001,0.5000156546434593,0.49988402217307326,56.4,19.8,28.65
0.0012207050000000094,0.541015625,0.353027345,0.5000854012292282,0.5000082602942838,0.49999780167054064,0.15,24.6,20.4,0.572265625,0.5556640650000001,0.9875488299999999,0.49994910567541306,0.4999828798035678,0.49980654822930776,62.7,6.3,93.3,0.109375,0.5529785150000001,0.8137207049999999,0.5003581255927466,0.5000693468181037,0.49985024804491857,55.8,20.7,27.75
0.009277345000000025,0.541503905,0.35083008,0.5001185091652074,0.4999407121252408,0.5000141890904864,1.2,24.9,20.4,0.56982422,0.5690917950000001,0.99609375,0.49995356891864273,0.49999393794790903,0.4998093460793651,62.7,6.3,92.55,0.11547851500000002,0.5485839849999999,0.822265625,0.5003182894125009,0.5000512940049857,0.49993291809566665,57.6,21.0,28.35
0.011474609999999984,0.5251464849999999,0.35864258,0.5001502848041021,0.4999344502329506,0.4999876761428852,-0.3,24.3,19.8,0.5744628900000001,0.5456542950000001,0.9943847650000001,0.4999500382920989,0.5000216501112393,0.4997757052070988,61.05,7.35,93.45,0.119140625,0.5534667950000001,0.841308595,0.5003054992034099,0.5000870666224003,0.49989667921354225,56.25,21.45,28.8
0.00903320500000001,0.517578125,0.35839844,0.5001805949772904,0.4999072044215964,0.49999920063920256,0.0,25.8,21.3,0.5573730450000001,0.5661621099999999,1.016601565,0.49994437592040664,0.4999908736733413,0.49978669676712906,63.3,6.9,92.4,0.11499023499999998,0.55078125,0.8515625,0.5002598008985392,0.5000734103809346,0.4999134663138867,57.0,20.7,28.8
-0.0026855449999999906,0.5146484400000001,0.361083985,0.5002060421395839,0.4998824234514785,0.5000035306265439,1.5,24.9,19.95,0.5446777349999999,0.548339845,1.0,0.5000061952207129,0.500033441032067,0.49974686067414986,62.25,4.95,92.7,0.10766601500000002,0.56640625,0.8605957049999999,0.5002608001868024,0.5000811378261978,0.49991573122765703,57.0,20.7,28.8
-0.001953125,0.520996095,0.36645508,0.5002430137981947,0.4998822236112791,0.5000030643618342,2.1,24.75,20.25,0.5661621099999999,0.5583496099999999,1.01098633,0.5000305099261212,0.5000445658479856,0.4997441294084034,62.25,6.6,93.15,0.10083008000000002,0.576660155,0.91015625,0.5002364188098166,0.5000698797543908,0.4999626952453014,57.45,21.6,26.1
