IMU1_AccX,IMU1_AccY,IMU1_AccZ,IMU1_GyrX,IMU1_GyrY,IMU1_GyrZ,IMU1_MagX,IMU1_MagY,IMU1_MagZ,IMU2_AccX,IMU2_AccY,IMU2_AccZ,IMU2_GyrX,IMU2_GyrY,IMU2_GyrZ,IMU2_MagX,IMU2_MagY,IMU2_MagZ,IMU3_AccX,IMU3_AccY,IMU3_AccZ,IMU3_GyrX,IMU3_GyrY,IMU3_GyrZ,IMU3_MagX,IMU3_MagY,IMU3_MagZ
0.03149414000000002,0.5134277349999999,0.377685545,0.49994564163318017,0.5000394364125805,0.49998927486448,-0.6,25.05,21.3,0.5974121099999999,0.5422363299999999,0.9865722650000001,0.500035439521327,0.500013389729689,0.49995756580989625,57.3,7.05,94.05,0.13671875,0.46020508,0.8562011700000001,0.5000793391771372,0.49991939511008926,0.4999631615972775,55.65,18.6,32.4
0.026855470000000024,0.5124511700000001,0.380126955,0.49994470901649435,0.5000823368673939,0.49997055585918654,0.15,24.6,21.45,0.604492185,0.5524902349999999,0.9826660150000001,0.5000425673587257,0.5000255137466044,0.4999849448771388,58.8,7.05,94.65,0.14550781499999998,0.467529295,0.85888672,0.5000885321753732,0.49993065318189633,0.49993591578592345,55.65,18.6,32.85
0.03271484500000003,0.5187988299999999,0.380615235,0.4999328514240892,0.5000766079986572,0.4999413116458389,-1.2,26.4,21.75,0.6076660150000001,0.5568847650000001,0.9865722650000001,0.5000425007744147,0.5000378376909856,0.49996962324250077,58.8,7.05,94.65,0.15502929499999998,0.454833985,0.8630371099999999,0.5001026546815487,0.499915131707059,0.49989428104388356,57.15,19.35,32.4
0.025878904999999976,0.5266113299999999,0.384765625,0.4999334510319538,0.5000530926540463,0.5000057289560033,-0.15,26.4,20.4,0.624023435,0.544921875,0.994140625,0.5000409019655534,0.5000067948285775,0.4999806148897975,59.7,7.35,94.2,0.15649414,0.46020508,0.865722655,0.500100789448177,0.49989994332830934,0.4999271891396635,56.55,18.45,33.0
0.023925779999999976,0.5227050799999999,0.39086914,0.4998710987953604,0.5000775406153429,0.4999904739929426,-0.15,26.4,20.4,0.6286621099999999,0.5441894549999999,0.9802246099999999,0.5000390367321818,0.5000387703076715,0.49996855745719304,58.35,6.0,94.65,0.15356445500000002,0.44970703,0.8645019549999999,0.5001209740064435,0.49990693799708613,0.4999381141153828,56.55,17.7,33.0
0.03247070500000001,0.5178222650000001,0.39428711,0.4998726975169553,0.5000832694840798,0.5000275122358644,-1.35,27.0,20.85,0.6252441400000001,0.5322265650000001,0.983398435,0.500051427260874,0.5000292443006141,0.49995949771484527,57.9,7.35,93.15,0.16552734500000002,0.44970703,0.877441405,0.5001442894235886,0.49991486528254864,0.4999181959816267,56.55,17.7,33.0
0.03881835999999998,0.5217285150000001,0.39111328,0.4998877526398165,0.500068347617107,0.5000394364125805,0.45,26.7,20.4,0.6242675799999999,0.5283203150000001,0.9787597650000001,0.5000417014136173,0.5000255804181818,0.49997415315730787,57.9,7.35,93.15,0.15991211,0.44555664,0.870117185,0.5001629417573046,0.49994111180563955,0.4999317856387815,56.25,19.95,33.3
0.026855470000000024,0.52001953,0.399902345,0.49988995096927585,0.5000573560570766,0.5000394364125805,-0.15,25.65,19.95,0.6462402349999999,0.5146484400000001,0.9765625,0.500054091855043,0.500022116375949,0.49998927486448,57.9,7.35,93.15,0.154052735,0.44604492,0.8747558599999999,0.5001969823972361,0.49990380705094095,0.49994737369792985,56.7,18.6,33.9
0.02465820500000001,0.50390625,0.403564455,0.4998873529594178,0.5000625520767927,0.5000588216100496,0.75,26.1,18.9,0.635742185,0.502685545,0.974609375,0.500060753427732,0.5000470972735328,0.49993351761626476,58.35,7.05,93.3,0.16552734500000002,0.446777345,0.8737792950000001,0.5002035773856142,0.4999168636845422,0.49997628481518974,56.4,18.6,32.85
0.011962890000000016,0.505859375,0.40673828,0.4998824234514785,0.5000420344224386,0.5000526929736476,0.75,26.1,18.9,0.650878905,0.49975586,0.9924316400000001,0.5000831363154578,0.5000224494720368,0.4999453752086699,58.2,8.4,94.2,0.174072265,0.455322265,0.875,0.5002115045838103,0.4999457083047576,0.49999473739597294,57.45,17.85,34.2
0.016601564999999995,0.5173339849999999,0.404785155,0.4999201944708867,0.5000035972108549,0.5000582886737623,-1.8,25.35,20.7,0.6428222650000001,0.5144042950000001,1.0014648449999999,0.500082869803681,0.5000010658725742,0.49992012788657575,58.2,8.4,94.2,0.1640625,0.470947265,0.8671875,0.5002001133433813,0.4999726876043349,0.4999875428869968,56.7,17.85,32.4
0.03051758000000001,0.532714845,0.39379883,0.4999522366215582,0.4999864770144226,0.5000897312165694,-1.2,26.7,20.7,0.63378906,0.5227050799999999,0.97753906,0.5000572894727656,0.5000275122358644,0.49991486528254864,59.1,6.3,92.85,0.17626952999999998,0.48193359500000005,0.8640136700000001,0.5001841921881452,0.49999307200280063,0.5000213835994626,55.8,20.25,33.75
0.027832029999999976,0.541503905,0.39013672,0.49989548008507967,0.5000273123956651,0.5000510275804753,-0.6,27.3,19.8,0.6328125,0.5441894549999999,0.9719238299999999,0.5000383706272727,0.5000265796191786,0.4999349164976602,57.3,7.8,95.4,0.17089843999999998,0.48803711,0.865234375,0.500183126315571,0.5000216501112393,0.50000472966774,55.8,20.25,33.75
0.022460939999999995,0.5437011700000001,0.39013672,0.49994530853709246,0.49998887518408136,0.5000540252707321,-0.6,27.3,19.8,0.70703125,0.5163574200000001,1.016845705,0.5000315757986954,0.5000862672616029,0.4999434433037208,57.45,8.1,94.5,0.17871093999999998,0.49902344,0.8596191400000001,0.5001431569667034,0.5000236485132329,0.4999813476662839,55.65,18.3,33.15
0.018066404999999976,0.541503905,0.372070315,0.49993957966835567,0.4999855443977368,0.5000694800739921,-0.3,28.5,21.6,0.5778808599999999,0.545410155,0.9875488299999999,0.500113579657268,0.5000550911433063,0.49992132692777186,57.45,8.1,94.5,0.16528320500000002,0.509033205,0.864746095,0.5001483529864196,0.5000325084153812,0.5000117243365167,55.65,18.3,33.15
0.01171875,0.5339355450000001,0.380371095,0.49991892875811317,0.49999200613022643,0.49999913396762513,-2.4,27.3,21.9,0.62988281,0.56689453,1.00366211,0.5000680811925965,0.500035506105638,0.49994863932343697,58.95,7.35,94.2,0.158203125,0.5036621099999999,0.86279297,0.5001370283303015,0.5000190521013812,0.5000091929982361,56.1,19.05,32.4
0.007324220000000025,0.5234375,0.372314455,0.49994610798515626,0.499997401990142,0.499993271843,-1.2,29.7,19.95,0.6193847650000001,0.556640625,0.9943847650000001,0.5001010558726874,0.5000315092143844,0.4999235252572312,57.75,7.8,94.35,0.1484375,0.49658202999999995,0.86279297,0.5001199747181803,0.5000782733918294,0.49999886754311484,55.5,20.25,31.95
0.010009765000000016,0.5227050799999999,0.365234375,0.4999884755036826,0.49995110416467303,0.500042167678327,-1.65,27.75,19.2,0.61376953,0.5615234400000001,1.001953125,0.5000288445329489,0.5000218499514386,0.4999590313628692,59.25,8.4,93.45,0.14428711,0.49926758,0.87109375,0.50010498617963,0.5000338407124657,0.49998141425059495,56.1,17.85,33.15
0.01440429499999999,0.5241699200000001,0.373046875,0.4999814808349059,0.49996835761699365,0.5000245811299187,-1.65,27.75,19.2,0.6062011700000001,0.556640625,0.98828125,0.5000538254305328,0.5000158544836586,0.4999470406018421,60.0,8.1,93.75,0.13256836,0.49462890499999995,0.8645019549999999,0.500104853011008,0.5000460314009586,0.4999713553072504,57.3,18.0,31.5
0.007568359999999984,0.5295410150000001,0.369628905,0.4999868101105104,0.49995983081093304,0.4999948039802839,-0.6,28.05,20.85,0.600097655,0.5485839849999999,0.9987792950000001,0.5000221829602599,0.500013856081665,0.4999647603188724,59.55,8.25,94.35,0.13159179499999998,0.48876952999999995,0.8532714849999999,0.5001081171257752,0.500047430282354,0.4999808813143078,55.8,19.95,33.0
0.01489258000000001,0.5319824200000001,0.36621094,0.5000154548032599,0.49993298467997765,0.5000323085751819,-1.05,28.05,20.55,0.5886230450000001,0.556640625,0.9934082049999999,0.5000347733291515,0.50000199848926,0.4999831462280781,58.95,8.4,93.45,0.12866211,0.47973633,0.853027345,0.500087466302799,0.5000391699880702,0.49997894949662525,57.3,18.45,32.25
0.02221679499999999,0.53857422,0.364501955,0.500018585749405,0.4999760849749904,0.5000077940295742,-0.45,27.15,18.9,0.587890625,0.5539550799999999,0.9904785150000001,0.5000043299873413,0.49997688442305427,0.4999877427271962,58.95,8.4,93.45,0.12792968999999998,0.47509765499999995,0.8459472650000001,0.5000774073594546,0.5000057289560033,0.5000132564738006,57.3,18.45,32.25
0.019775390000000014,0.52685547,0.369140625,0.5000383039556954,0.49997428641319624,0.4999890750242807,-0.45,27.15,18.9,0.5871582049999999,0.544921875,0.986328125,0.5000111914002296,0.49999766841465226,0.49998967454487875,59.55,7.5,94.35,0.12060547000000002,0.47216797000000005,0.857421875,0.5000752756143062,0.5000021983294594,0.4999910069292297,56.55,18.45,31.95
0.016601564999999995,0.52294922,0.364501955,0.5000544249511308,0.499971222051362,0.4999954701724594,-0.75,29.4,20.7,0.5847167950000001,0.5400390650000001,1.00317383,0.49999680246954387,0.5000064617324896,0.49997708426325366,57.45,7.65,95.25,0.12963866999999998,0.466064455,0.846679685,0.5000897978881468,0.5000237817691212,0.4999844785251626,56.1,18.3,33.15
0.008300779999999975,0.528808595,0.358154295,0.5000461646568469,0.49999980015980067,0.4999698230827001,0.45,27.45,19.95,0.596191405,0.532714845,0.9973144549999999,0.49998960796056774,0.5000051294354051,0.49996436063847366,58.65,7.35,93.75,0.12280273499999998,0.463134765,0.8581542950000001,0.5000722779240494,0.4999856110693143,0.5000117910080942,56.25,19.5,33.3
0.0031738300000000094,0.5197753900000001,0.352783205,0.500039569668469,0.4999918062900271,0.49998334606827743,-1.8,27.15,20.4,0.5690917950000001,0.5280761700000001,1.01171875,0.49991519829137,0.4999493720999234,0.5000210505033748,58.65,7.35,93.75,0.13232422000000002,0.466796875,0.8581542950000001,0.5000616194601069,0.5000249808975838,0.5000145888581515,57.45,19.8,32.4
-0.0024414049999999746,0.5178222650000001,0.3515625,0.5000713453073636,0.4999812144103955,0.5000175865484083,-1.35,27.3,20.25,0.58984375,0.5234375,1.00073242,0.5000350398409282,0.5000056622844258,0.49994284378312276,60.15,7.05,95.1,0.12646484500000002,0.462402345,0.849121095,0.500068281032796,0.49998501146144975,0.500015321634638,57.45,19.8,32.4
-0.003662109999999984,0.51074219,0.35180664,0.5000552243119282,0.49999833460682774,0.49997615164656783,-1.35,27.3,20.25,0.60888672,0.5185546900000001,0.9997558599999999,0.5000265130348677,0.5000219831200605,0.49993904673206857,59.85,6.75,94.35,0.135009765,0.45703125,0.8469238299999999,0.5000845351968533,0.4999782167201388,0.4999963361175678,56.55,17.4,33.0
-0.006103515000000016,0.5114746099999999,0.35839844,0.5000392365723811,0.4999585650981595,0.49999660262934453,-1.35,27.3,20.25,0.599609375,0.52294922,0.9921875,0.5000055957001148,0.5000275789074419,0.49997428641319624,59.85,6.75,94.35,0.13916015499999998,0.46582031,0.8488769549999999,0.5000895980479474,0.5000015321372838,0.5000152549630607,57.3,18.45,32.55
0.004394529999999975,0.5146484400000001,0.358154295,0.5000762749025695,0.4999628285011898,0.5000099256874561,-0.3,27.75,20.85,0.5949707049999999,0.510498045,1.006591795,0.5000081271256619,0.5000396362527799,0.49993744792320727,59.25,8.1,93.75,0.13183593999999998,0.45751953,0.85205078,0.500127035971268,0.49999260565082454,0.5000165872601451,57.3,18.45,32.55
0.004394529999999975,0.5126953150000001,0.364746095,0.5000331079359792,0.4999704226905646,0.49999267232240197,-1.5,27.45,21.0,0.6018066400000001,0.5056152349999999,0.997558595,0.5000095260070574,0.500028711364327,0.4999359823702344,59.1,6.75,94.65,0.14184570500000002,0.46069336,0.84814453,0.5001052526914067,0.5000027312657465,0.5000191186856922,56.1,19.05,32.85
-0.0026855449999999906,0.5139160150000001,0.368652345,0.5000223162161483,0.49998674352619943,0.49997974885742263,-0.15,26.4,20.4,0.6081542950000001,0.5126953150000001,0.9973144549999999,0.500033507616378,0.5000468307617559,0.499941911166437,59.25,9.15,93.15,0.14770508000000002,0.462402345,0.846191405,0.5001351630969298,0.5000054624442265,0.50002145027104,56.1,19.05,32.85
0.0014648450000000254,0.5119628900000001,0.37915039,0.5000461646568469,0.4999965359577671,0.5000053958599154,-0.15,26.4,20.4,0.60107422,0.5153808599999999,0.998046875,0.5000257802583812,0.5000250474818948,0.49990294101856614,59.25,9.15,93.15,0.13989258000000002,0.46582031,0.84033203,0.5001345635763318,0.5000749426054849,0.4999994004794019,57.9,19.05,33.9
0.00854491999999999,0.5153808599999999,0.377441405,0.5000507610686985,0.500007327677598,0.49999020748116585,-1.5,26.7,19.35,0.6105957049999999,0.506347655,0.98925781,0.5000484295706172,0.5000285115241276,0.4999337174564641,59.25,6.9,93.75,0.13671875,0.47192383,0.8391113299999999,0.5001398927646699,0.5000731439564243,0.500007327677598,58.05,20.25,31.5
0.004638669999999991,0.5197753900000001,0.380859375,0.5000490290912153,0.4999941377881084,0.49997874965642586,-1.5,26.7,20.4,0.5979003900000001,0.5263671900000001,0.9812011700000001,0.5000105252953206,0.5000402358606444,0.4999182626532041,59.55,6.3,94.35,0.15087890499999998,0.470947265,0.8444824200000001,0.5001361622979267,0.500070879042654,0.5000045298275406,58.5,19.05,32.4
0.008789064999999993,0.5202636700000001,0.372558595,0.5000799387850017,0.4999962695332568,0.500038703636094,-0.3,26.25,20.85,0.5998535150000001,0.5148925799999999,0.98876953,0.5000429670391244,0.5000459648166476,0.4999000099126203,60.0,6.6,93.15,0.14770508000000002,0.46850586,0.8259277349999999,0.5001185758367848,0.5001063851482919,0.5000183859092058,56.4,19.35,30.75
0.004150390000000016,0.5158691400000001,0.373291015,0.5000423009342153,0.5000211171749521,0.5000137894100877,-0.75,27.15,21.45,0.596679685,0.5283203150000001,0.989746095,0.500048229730418,0.5000637511179888,0.4998874862153062,58.65,6.15,94.2,0.14599609500000002,0.47265625,0.845214845,0.5001328315115822,0.5001152450504402,0.5000196516219793,56.1,20.1,29.7
0.0024414049999999746,0.5119628900000001,0.37084961,0.5000504280598773,0.5000407687969315,0.4999824801231691,-0.75,27.15,21.45,0.604492185,0.5236816400000001,0.99951172,0.5000378376909856,0.5000767411672791,0.49988835224768097,59.1,7.5,94.35,0.13745116999999998,0.46850586,0.849121095,0.5001434900627911,0.5000766079986572,0.4999831462280781,56.4,18.3,32.4
-0.005126955000000009,0.5134277349999999,0.37036133,0.5000875995586875,0.5000265130348677,0.4999988009588039,-0.15,27.45,20.4,0.583496095,0.525390625,0.985839845,0.5000461646568469,0.5001077840296874,0.49989754515865065,58.35,7.05,94.35,0.13916015499999998,0.482177735,0.8410644549999999,0.5001722013398517,0.5000757419662823,0.5000055957001148,56.4,18.3,32.4
-0.005371095000000025,0.501464845,0.380615235,0.5000513606765631,0.5000296439810128,0.49995590041672405,0.15,26.4,21.0,0.5979003900000001,0.52734375,0.9919433599999999,0.5000459648166476,0.5000770742633669,0.49991000227165383,58.35,7.05,94.35,0.14916991999999998,0.482177735,0.8415527349999999,0.5001464877530479,0.5000872664625997,0.5000045964991181,56.4,19.8,32.1
-0.0012207050000000094,0.501220705,0.38354492,0.5000681477769074,0.5000147886983509,0.49997428641319624,-1.5,27.45,20.7,0.60644531,0.5388183599999999,0.987304685,0.5000520934530495,0.5000361722978134,0.49989301533111,60.0,7.65,93.45,0.14892577999999998,0.482666015,0.82519531,0.5001638077896795,0.5001251041535855,0.500022116375949,56.25,19.5,31.95
0.015625,0.501464845,0.380615235,0.5000984578628294,0.4999950704047942,0.49999840119113875,-1.5,27.45,20.7,0.6174316400000001,0.53955078,0.9841308599999999,0.5000450987842727,0.5000502282196779,0.4998874196309952,59.55,6.75,93.6,0.14868164,0.471679685,0.8332519549999999,0.5001339639684673,0.500118309325008,0.49996396095807494,55.8,19.2,31.5
0.027099609999999986,0.5139160150000001,0.383789065,0.5000902641528565,0.500033507616378,0.5000176531327193,-1.05,27.3,20.85,0.611816405,0.5380859400000001,0.98486328,0.5000336408722663,0.5000946608117751,0.4999052726039139,59.25,7.65,93.15,0.142578125,0.48120117,0.8359375,0.5001458882324499,0.500137761106788,0.49996729174441945,57.15,19.35,32.85
0.025634765000000014,0.513671875,0.381591795,0.5000633514375902,0.5000598874826238,0.4999593644589569,-0.6,27.3,19.8,0.5983886700000001,0.53955078,0.98828125,0.5000210505033748,0.5000893315361706,0.4998938146919074,59.25,7.65,93.15,0.14013672000000002,0.467529295,0.8361816400000001,0.5001927855785168,0.5001562136003046,0.4999796822731117,57.3,18.45,31.5
0.029052734999999986,0.5078125,0.37866211,0.5000606868434211,0.5000633514375902,0.4999812144103955,0.6,26.55,19.8,0.5808105450000001,0.54345703,0.982421875,0.5000730773721133,0.500116177667126,0.49988129099459333,60.6,7.5,93.3,0.13037109500000002,0.455322265,0.830078125,0.5002284249400432,0.5001632082690814,0.4999726876043349,57.6,21.0,30.9
0.037109375,0.50830078,0.36303711,0.5000538254305328,0.5000790727526269,0.5000055957001148,-1.8,26.4,21.0,0.57910156,0.55126953,0.9963378900000001,0.5000413683175295,0.5001356293616396,0.49988961787318814,59.55,9.0,91.8,0.10205077999999998,0.467285155,0.856933595,0.5002509410836573,0.5001534824218247,0.499950571228386,57.6,21.0,30.9
0.03198241999999999,0.505371095,0.354248045,0.5000328415114689,0.5001107151356332,0.49997655132696656,-1.8,26.4,21.0,0.57373047,0.5349121099999999,1.00488281,0.5000485628265057,0.5001411584774434,0.4998957465968565,60.45,8.1,94.2,0.09643554499999998,0.46191406,0.8664550799999999,0.5002892450393527,0.5001516171884531,0.49994783996263953,57.9,19.35,29.7
0.03417968999999999,0.5148925799999999,0.34008789,0.500035372937016,0.5001076508610655,0.4999928721626013,-1.2,25.65,19.35,0.60205078,0.515625,1.0346679699999999,0.5000312427026077,0.5002220298791309,0.4998772940160733,60.45,8.1,94.2,0.07983398499999998,0.47216797000000005,0.8684082049999999,0.5003218867106222,0.5001019884893733,0.4999353828496363,57.9,19.35,29.7
0.01879883000000001,0.5134277349999999,0.34057617,0.5000154548032599,0.5001095160944371,0.5000311095339858,-1.5,26.4,19.95,0.5234375,0.51220703,1.03100586,0.5000218499514386,0.5001997802472935,0.4999002098400861,59.25,6.9,93.15,0.08154297000000002,0.470947265,0.864746095,0.5003697166733749,0.5000739433172217,0.4999559670883015,58.35,19.2,29.4
0.020019529999999976,0.509033205,0.33251953,0.4999631615972775,0.5001143790180654,0.49999713556563163,-1.5,27.15,20.4,0.5520019549999999,0.5017089849999999,1.03417969,0.5000393698282696,0.500102321585461,0.4998825566201004,59.7,7.35,93.45,0.07958984500000002,0.489501955,0.865234375,0.500388235838469,0.5000449655283844,0.4999542351108182,57.45,19.8,30.0
0.016601564999999995,0.50439453,0.32836914,0.49998008195351035,0.500062285565016,0.5000333077761786,-1.5,27.15,20.4,0.5554199200000001,0.49755859500000005,1.04321289,0.5000645505660527,0.5000611531081308,0.4998693667306108,61.35,7.8,93.3,0.08715820500000002,0.501220705,0.8576660150000001,0.5003980949416142,0.5000444992636747,0.499980015281933,57.45,19.8,30.0
0.0078125,0.494140625,0.333007815,0.499975219029882,0.5000670153200223,0.500026646290756,-0.6,27.75,20.55,0.56201172,0.49291992,1.033935545,0.5000716118191404,0.5000327749271579,0.4998412549741483,61.35,7.8,93.3,0.09033202999999998,0.501220705,0.8664550799999999,0.5003879694139587,0.5000367052341005,0.5000005329362871,58.2,19.05,29.7
0.0048828149999999935,0.483154295,0.336914065,0.4999644938943621,0.5000681477769074,0.5000714785632521,-1.8,27.45,19.65,0.57470703,0.5263671900000001,1.01977539,0.5000871332067113,0.5000009992009967,0.4998401891015741,61.05,8.1,93.15,0.10571289000000002,0.50317383,0.865722655,0.5003847717962362,0.49999766841465226,0.5000036638824322,57.3,20.25,29.1
0.0014648450000000254,0.49584961,0.34838867,0.4999962029489458,0.5000273789799761,0.5000822702830829,-2.25,27.15,18.9,0.5729980450000001,0.5305175799999999,0.998046875,0.5001147121141531,0.5000117243365167,0.4998166738442296,60.9,7.05,93.3,0.119140625,0.518066405,0.8557128900000001,0.5003597909859189,0.500028711364327,0.4999937381077097,56.25,19.2,29.85
0.016601564999999995,0.501953125,0.35498047,0.49998041504959817,0.5000022649137703,0.5000632848532791,-1.5,27.15,20.7,0.5812988299999999,0.5539550799999999,0.98828125,0.5000780068800527,0.4999950704047942,0.49983732466720565,60.9,7.05,93.3,0.11669922000000002,0.5197753900000001,0.85205078,0.5003430037983079,0.5000256470024929,0.49996289508550074,58.35,18.45,28.8
0.02734375,0.50708008,0.372802735,0.49997262102002393,0.5000232488328341,0.5000626853326811,-1.5,27.15,20.7,0.5842285150000001,0.5622558599999999,0.986328125,0.5000770742633669,0.5000031975304562,0.49984478560069207,60.0,7.35,92.7,0.14331054499999998,0.52001953,0.85107422,0.5003160910830415,0.4999902741527433,0.4999720880837369,58.35,18.45,28.8
0.03637695500000001,0.5148925799999999,0.37402344,0.5000028644343684,0.49998414551634135,0.5000584219296508,-1.5,27.9,21.0,0.5881347650000001,0.5637207049999999,0.97998047,0.5000321087349825,0.5000059953805135,0.49984525195266827,60.9,6.75,92.85,0.14160156499999998,0.5407714849999999,0.854003905,0.5002806516489811,0.5000077940295742,0.4999837457486762,58.05,21.75,29.85
0.04541015499999997,0.5166015650000001,0.38256836,0.500006062052091,0.4999880758232839,0.5000797388575359,-1.8,26.4,18.6,0.5886230450000001,0.55908203,0.9685058599999999,0.5000562236001914,0.5000001998401994,0.4998580420744927,60.75,9.15,93.15,0.15966797000000002,0.5419921900000001,0.85595703,0.5002907105923255,0.4999830130594562,0.49994837289892663,58.05,21.75,29.85
0.04516601500000002,0.5231933599999999,0.38305664,0.4999722879239362,0.5000186523337161,0.500042101094016,-3.15,26.55,19.2,0.6013183599999999,0.5515136700000001,0.9675292950000001,0.5000903307371675,0.49998927486448,0.4998607067559282,60.75,9.15,93.15,0.15283202999999998,0.552246095,0.8508300799999999,0.5002751225331772,0.49994877257932535,0.4999702894346762,57.15,20.1,28.65
0.03588866999999999,0.5244140650000001,0.377441405,0.49999267232240197,0.500012790209091,0.5000329747673573,-3.15,26.55,19.2,0.6013183599999999,0.5642089849999999,0.97705078,0.5000516271010734,0.4999892082801691,0.49985997397944176,61.5,8.1,94.2,0.16943359500000002,0.5598144549999999,0.84814453,0.5002979051013017,0.49996356127767627,0.4999750191024162,57.3,20.25,29.1
0.030761720000000024,0.521972655,0.377685545,0.49999200613022643,0.5000243812897193,0.500015321634638,-3.45,26.55,19.8,0.60644531,0.557128905,0.9621582049999999,0.5000981248540081,0.5000049961795168,0.49987536219839074,61.35,7.8,91.8,0.16064452999999998,0.564941405,0.8557128900000001,0.5002697932575726,0.49998274654767944,0.4999844785251626,55.8,19.2,29.1
0.02465820500000001,0.5163574200000001,0.372558595,0.49997635148676717,0.500013323145378,0.5000042634030304,-2.25,26.7,19.35,0.6042480450000001,0.579589845,0.9675292950000001,0.5000852679733397,0.5000152549630607,0.49986203905301274,61.35,7.05,93.6,0.154541015,0.564941405,0.860839845,0.5002466776806269,0.4999640942139633,0.49997455283770653,57.3,20.25,29.4
0.017333984999999986,0.51513672,0.37133789,0.5000170536121212,0.5000257802583812,0.5000059953805135,-1.8,26.7,20.4,0.596191405,0.58300781,0.9772949200000001,0.5000536255903334,0.5000249142260064,0.49989288207522165,61.95,7.05,94.35,0.14453125,0.579589845,0.85644531,0.5002295573969283,0.49998427868496326,0.4999882089919058,57.3,20.25,29.4
0.01953125,0.51171875,0.381347655,0.5000394364125805,0.5000257135868038,0.5000331079359792,0.15,27.45,19.35,0.6013183599999999,0.58642578,0.9921875,0.5000410352214418,0.5000299769898341,0.49987449616601587,59.55,7.05,92.85,0.13745116999999998,0.5703125,0.850097655,0.5002190321888741,0.4999832128996555,0.5000110582316077,58.2,20.85,30.3
0.015136720000000025,0.5056152349999999,0.38256836,0.5000119908482935,0.5000349731693509,0.5000030643618342,0.15,27.45,19.35,0.5979003900000001,0.5935058599999999,0.99560547,0.5000628851728804,0.5000282450123509,0.49991593106785637,60.6,9.3,93.3,0.13623047000000002,0.5764160150000001,0.86279297,0.500186656942115,0.49995729938538597,0.5000105252953206,58.2,20.85,30.3
0.017333984999999986,0.5100097650000001,0.38745117,0.5000519601971611,0.500019984718067,0.5000339073840431,0.15,27.45,19.35,0.6003417950000001,0.5915527349999999,1.010498045,0.5000558905041037,0.49999080700176385,0.49990953600694416,60.6,9.3,93.3,0.13403320500000002,0.58154297,0.8610839849999999,0.5001565466963924,0.4999948039802839,0.5000242481210974,57.15,19.8,28.65
0.023193359999999986,0.510498045,0.38208008,0.5000460314009586,0.49999160644982776,0.5000103254551213,-2.25,26.1,18.6,0.6042480450000001,0.5979003900000001,1.006103515,0.500038037531185,0.49999067383314194,0.49994097854975117,62.85,7.65,92.7,0.130615235,0.592773435,0.8596191400000001,0.5001452220402743,0.4999776171122743,0.500006661572689,55.5,22.2,30.9
0.024902345000000024,0.5153808599999999,0.376220705,0.5000121240169154,0.5000365053939012,0.5000113912404289,-1.65,27.0,17.7,0.5920410150000001,0.59765625,1.005126955,0.5000413683175295,0.4999942710439968,0.49993758117909565,62.85,6.9,92.7,0.13671875,0.599121095,0.8464355450000001,0.5001314992144976,0.499986610270311,0.5000325084153812,57.45,20.55,29.7
0.025146484999999986,0.525390625,0.37084961,0.5000358392017257,0.5000123238571148,0.5000130566336013,-0.6,27.3,18.75,0.5842285150000001,0.5983886700000001,1.0053710949999999,0.5000227825681245,0.49999367152339874,0.49996456047867305,60.9,7.8,94.05,0.13745116999999998,0.604492185,0.8493652349999999,0.5000979249265423,0.5000085933903716,0.5000025314255471,56.55,19.95,30.15
0.03247070500000001,0.5173339849999999,0.36376953,0.5000193185258915,0.4999989341274258,0.5000423675185263,-3.0,26.7,19.95,0.58203125,0.5983886700000001,0.995117185,0.5000262465230909,0.4999722879239362,0.4999859440781355,60.9,7.8,94.05,0.13671875,0.6101074200000001,0.8479003900000001,0.5000409019655534,0.5000198514621786,0.5000177197170302,57.15,20.55,29.25
0.015136720000000025,0.5139160150000001,0.36230469,0.4999895413762568,0.5000304433418102,0.49999673579796644,-1.2,27.15,18.3,0.5847167950000001,0.596191405,0.994140625,0.5000285781084386,0.499986676854622,0.5000191186856922,63.15,8.55,92.85,0.130615235,0.6047363299999999,0.84472656,0.499993405011622,0.5000500949637895,0.5000436332312999,56.7,21.6,29.25
0.019042970000000024,0.513671875,0.361572265,0.49999400461948645,0.5000196516219793,0.5000117243365167,-0.75,26.7,19.95,0.5861816400000001,0.60595703,1.0092773449999999,0.5000095926786348,0.4999838790045646,0.5000069946687767,62.25,7.65,92.4,0.13818359500000002,0.599121095,0.8542480450000001,0.49994204442232537,0.5000947273960861,0.5000125903688916,56.7,21.6,29.25
0.01953125,0.510253905,0.369873045,0.5000089264864593,0.5000209839190638,0.5000100589433445,-1.8,27.15,19.95,0.59423828,0.59472656,1.0122070300000001,0.5000143889306857,0.49996416079827427,0.5000277120760638,62.25,7.65,92.4,0.131103515,0.5944824200000001,0.849121095,0.49989501382037005,0.500074143157421,0.5000045298275406,56.55,21.0,28.8
0.025146484999999986,0.50341797,0.376464845,0.4999811477388181,0.4999972021499426,0.5000004663519761,-1.8,26.1,19.35,0.5969238299999999,0.600097655,1.00415039,0.49999960031960133,0.49996036374722014,0.5000504280598773,61.05,7.65,92.4,0.12768554499999998,0.5886230450000001,0.8552246099999999,0.4998882189917926,0.5000696133298804,0.5000478966343301,56.55,21.0,28.8
0.027832029999999976,0.50488281,0.37792969,0.49998334606827743,0.49996695864833174,0.5000319088947831,-1.8,26.1,19.35,0.6052246099999999,0.591308595,1.00097656,0.49999813476662835,0.49995396859904145,0.50007007959459,61.8,7.65,93.45,0.13208008000000002,0.583984375,0.842285155,0.4998631715098979,0.5000513606765631,0.5000227825681245,56.55,21.0,28.8
0.023681640000000014,0.5234375,0.369628905,0.49996955665818976,0.49996289508550074,0.5000390367321818,-2.7,26.25,18.75,0.603027345,0.5895996099999999,1.0024414050000001,0.5000196516219793,0.499941844582126,0.5000983246942075,61.65,7.8,93.6,0.13525390499999998,0.5891113299999999,0.8459472650000001,0.49983612553874307,0.5000299104055231,0.5000504280598773,55.35,20.85,28.65
0.019775390000000014,0.524902345,0.37133789,0.49994410949589635,0.4999864770144226,0.5000440329116985,-1.65,26.25,19.5,0.60546875,0.580566405,0.9895019549999999,0.5000281117564624,0.49994650766555504,0.5000911301852313,61.65,7.8,93.6,0.14111327999999998,0.583984375,0.8415527349999999,0.49980428331553745,0.5000391699880702,0.5000431668793237,57.9,19.8,29.7
0.01831054499999999,0.5270996099999999,0.3671875,0.4999636944462982,0.4999812809947065,0.500002131657882,-2.25,26.7,18.9,0.5925292950000001,0.58154297,0.970214845,0.5000415681577288,0.4999731538690446,0.5000986577030287,60.75,7.65,94.2,0.14160156499999998,0.58154297,0.8425292950000001,0.49978356582098393,0.5000547580472186,0.5000604870032217,57.15,20.55,28.95
0.01635741999999999,0.53564453,0.37158203,0.49997248776413555,0.4999502381322982,0.5000425007744147,-1.65,27.75,19.2,0.556152345,0.5769042950000001,0.956054685,0.5000464310813573,0.49995110416467303,0.500111581168008,60.15,8.25,93.6,0.14599609500000002,0.56982422,0.83984375,0.4997694433148085,0.500057555897276,0.5000503613882998,57.45,20.55,28.95
0.012207029999999975,0.529785155,0.377197265,0.4999323184878022,0.499955234311815,0.500015388218949,-1.65,27.75,19.2,0.6066894549999999,0.587402345,0.9831542950000001,0.5000185191650941,0.5000262465230909,0.5001142457621771,61.8,7.65,92.7,0.134521485,0.5603027349999999,0.8576660150000001,0.4997530558948627,0.5000714785632521,0.5000307097663205,57.45,20.55,28.95
0.021484375,0.5310058599999999,0.38671875,0.4999421110066363,0.49997182157196013,0.49999573659696966,-1.5,27.15,20.7,0.5876464849999999,0.5891113299999999,0.978515625,0.5000855344851165,0.5000324418310702,0.5000868001106236,61.8,7.65,92.7,0.12426758000000002,0.561035155,0.857421875,0.49976884379421044,0.500053492334445,0.5000608200993095,57.15,21.9,28.2
0.031005859999999986,0.52734375,0.37939453,0.49994697393026466,0.49996196246881497,0.5000629517571914,-1.35,27.75,19.8,0.6081542950000001,0.6037597650000001,1.0092773449999999,0.5000128567934019,0.5000366385625231,0.500124970897697,62.7,7.5,92.25,0.126708985,0.54296875,0.8532714849999999,0.4997717082285788,0.5000486294108166,0.5000331746075567,57.15,21.9,28.2
0.028320314999999995,0.5217285150000001,0.381347655,0.4999309196064067,0.4999908736733413,0.5000248476416954,-1.2,28.2,19.65,0.5969238299999999,0.5983886700000001,1.0180664050000001,0.4999998667441116,0.5000385037958948,0.5001299670772138,61.65,9.75,92.55,0.11596679499999998,0.5476074200000001,0.8405761700000001,0.49978862867207813,0.5000570229609889,0.5000523598775598,57.45,20.85,29.25
0.022949220000000024,0.517578125,0.368408205,0.499905805540201,0.500002664594169,0.5000452986244721,-1.2,28.2,19.65,0.584960935,0.57861328,1.016601565,0.500013323145378,0.49999054057725356,0.5001350298410415,62.25,6.9,92.7,0.11987304499999998,0.5341796900000001,0.817871095,0.4997949571486794,0.500060087322823,0.5000474969539315,57.15,21.15,28.95
0.014648439999999993,0.5202636700000001,0.35961914,0.49994923893130144,0.49995363550295374,0.5000650835023398,-1.65,27.0,18.45,0.57910156,0.57763672,0.993652345,0.5000097925188342,0.4999814808349059,0.5001139793376667,62.25,6.9,92.7,0.12841797000000002,0.53955078,0.8142089849999999,0.4997912932662471,0.5000355727772153,0.5000493621873031,57.6,20.25,29.4
0.016113279999999976,0.5314941400000001,0.35449219,0.49994457576060597,0.499966558967933,0.5000483628990399,-2.4,26.55,20.55,0.5783691400000001,0.5651855450000001,0.9821777349999999,0.5000017319774832,0.4999842121006523,0.5001548813032202,61.5,6.9,93.45,0.14013672000000002,0.5217285150000001,0.8215332049999999,0.4997777036963588,0.500053492334445,0.5000406355410432,57.15,20.55,28.95
0.015380859999999984,0.532714845,0.352783205,0.4999191285983125,0.4999681577767943,0.5000391034037592,-3.0,27.15,19.95,0.5773925799999999,0.5485839849999999,0.986328125,0.5000147220267734,0.49999187287433805,0.5001605436749124,61.8,9.15,91.95,0.1328125,0.50854492,0.8264160150000001,0.4997769042482949,0.5000682143612185,0.5000291110447257,56.1,20.55,28.2
0.01489258000000001,0.5390625,0.353271485,0.49993831395558214,0.49994204442232537,0.5000624188209043,-1.65,25.8,19.5,0.5715332049999999,0.5417480450000001,0.95800781,0.5000257135868038,0.5000094594227464,0.5001143790180654,61.05,10.35,92.7,0.14013672000000002,0.49755859500000005,0.81640625,0.4997916263623349,0.5000815375065966,0.5000282450123509,56.25,20.7,27.75
0.006103515000000016,0.5341796900000001,0.35449219,0.4999300535740318,0.49996262866099045,0.5000765413270797,-1.65,25.8,19.5,0.572753905,0.5478515650000001,0.9719238299999999,0.500042767198925,0.5000637511179888,0.5001204410701564,61.35,8.25,92.25,0.13671875,0.49072265499999995,0.8269042950000001,0.49980534918811165,0.5000959931088598,0.500000066584311,56.25,20.7,27.75
0.007080080000000009,0.5402832049999999,0.353271485,0.49991386599428544,0.49996849078561556,0.5000548913031069,-1.8,27.15,20.4,0.571777345,0.55029297,0.9924316400000001,0.5000209839190638,0.5000436998156108,0.5000959265245487,61.5,8.85,92.7,0.12622070500000002,0.485595705,0.826660155,0.49981081163233804,0.5001140459219776,0.5000161875797464,55.65,20.1,29.25
0.020019529999999976,0.5402832049999999,0.36303711,0.49994577488906855,0.4999473070263524,0.5000603537473334,-1.65,29.25,19.5,0.568847655,0.557128905,0.99316406,0.5000295773094354,0.5000687472975056,0.5000974586618326,60.75,10.35,94.2,0.11254883000000002,0.484375,0.8322753900000001,0.4998145420990812,0.5000879326547752,0.5000083935501722,55.65,20.1,29.25
0.025390625,0.5478515650000001,0.361572265,0.49991959495028865,0.4999880758232839,0.500038104115496,-0.3,28.8,21.3,0.569335935,0.56298828,1.0073242199999999,0.5000248476416954,0.5000526263020701,0.5000866002704243,60.75,10.35,94.2,0.11352539000000002,0.497070315,0.818359375,0.4998317289670909,0.5000625520767927,0.4999751523583046,57.3,20.7,30.45
0.029541015000000014,0.5456542950000001,0.35473633,0.4999127335374003,0.49999460414008456,0.5000512274206746,-0.3,28.8,21.3,0.5615234400000001,0.583984375,1.0063476550000001,0.5000249142260064,0.500042767198925,0.500120241229957,61.05,8.4,92.7,0.10864258000000002,0.5021972650000001,0.8127441400000001,0.49983519292205736,0.5000634846934785,0.49999487056459485,57.15,20.55,28.65
0.021972654999999976,0.5478515650000001,0.348632815,0.49994437592040664,0.4999996669039123,0.5000504280598773,-0.3,28.05,20.25,0.5520019549999999,0.5788574200000001,0.9992675799999999,0.5000007993607974,0.5000097925188342,0.5001043200747209,61.65,9.3,92.85,0.10522460999999998,0.50073242,0.81738281,0.49986410412658366,0.500035439521327,0.4999750191024162,57.3,20.7,29.1
0.023193359999999986,0.5495605450000001,0.34057617,0.4999205941512854,0.5000081271256619,0.5000331079359792,-1.65,26.55,20.55,0.552734375,0.5676269549999999,1.01635742,0.4999940712037974,0.5001129134650926,0.5000856676537384,60.6,10.05,94.05,0.10864258000000002,0.506591795,0.8122558599999999,0.49983072967882763,0.500035439521327,0.49997961560153426,55.2,20.25,28.05
0.017578125,0.548828125,0.34057617,0.49991573122765703,0.5000305765976986,0.5000171868680097,-0.75,28.2,21.45,0.545410155,0.5615234400000001,0.9812011700000001,0.49998261329179106,0.5000097925188342,0.5001012557128868,60.6,10.05,94.05,0.10449219,0.50488281,0.81298828,0.49986157270103654,0.5000401691890669,0.4999628285011898,55.2,20.25,28.05
0.020019529999999976,0.5461425799999999,0.33496094,0.49994124506152793,0.49999913396762513,0.4999890750242807,-2.25,28.65,21.45,0.55419922,0.55859375,0.990722655,0.4999623621492137,0.5000363055537018,0.500086933366512,60.9,9.3,94.05,0.10498047000000002,0.5080566400000001,0.8176269549999999,0.4998624387334114,0.5000616860444178,0.49997262102002393,57.45,19.8,28.2
0.020507814999999995,0.544921875,0.333007815,0.4999339172966634,0.5000257802583812,0.49999680246954387,-2.25,28.65,21.45,0.5537109400000001,0.5637207049999999,0.99316406,0.49996049691584205,0.5000386370517831,0.500086866782201,60.6,9.3,93.6,0.09619140499999998,0.51074219,0.814453125,0.49984758345074953,0.5000637511179888,0.4999796822731117,57.45,19.8,28.2
0.024902345000000024,0.548828125,0.338623045,0.4999337174564641,0.5000449655283844,0.4999781500485614,-0.6,28.5,20.25,0.5556640650000001,0.5573730450000001,1.00073242,0.4999576324814737,0.5000328415114689,0.5000954601725726,60.45,9.9,92.7,0.09912109500000002,0.49584961,0.8342285150000001,0.49987842647295844,0.5000407021253541,0.499975219029882,57.45,19.8,28.2
0.023925779999999976,0.5397949200000001,0.34008789,0.4999623621492137,0.5000183193248948,0.4999906071615645,-1.05,28.5,19.2,0.5441894549999999,0.556640625,0.99609375,0.49996416079827427,0.5000635512777895,0.5000872664625997,61.05,9.15,92.4,0.098632815,0.497314455,0.833496095,0.4998584418421579,0.5000331079359792,0.4999798154417336,56.7,19.8,28.95
0.015625,0.5402832049999999,0.338134765,0.4999670252326427,0.5000383706272727,0.49995503447161566,-1.8,28.95,20.7,0.5563964849999999,0.5627441400000001,1.0014648449999999,0.49995929787464594,0.5000280451721515,0.5000911967695423,61.8,9.15,92.7,0.09277344,0.493896485,0.8327636700000001,0.4999056722843126,0.5000301769172999,0.4999962695332568,55.8,18.75,29.85
0.015625,0.5490722650000001,0.337890625,0.4999594311305343,0.5000486959951276,0.49994977178032207,-1.8,28.95,20.7,0.5634765650000001,0.5534667950000001,1.0083007800000001,0.49992725572397445,0.5000119241767161,0.5000528928138469,60.9,8.25,92.85,0.10058594,0.489501955,0.829589845,0.4998986776155358,0.500015321634638,0.4999567664490988,57.0,19.95,28.35
0.02416991999999999,0.5549316400000001,0.35229492,0.4999814808349059,0.49999606969305743,0.4999780168799394,-1.8,28.95,20.7,0.567871095,0.544433595,1.010009765,0.49994504211258206,0.5000255137466044,0.5000792725928263,60.9,8.25,92.85,0.10839844,0.48779297000000005,0.8283691400000001,0.4998888851839681,0.5000007327764865,0.4999986677029155,58.5,21.9,28.95
0.02856445500000001,0.561035155,0.346435545,0.4999523032058692,0.5000157878993476,0.4999437098154976,-0.75,28.65,19.95,0.5725097650000001,0.541015625,0.9953613299999999,0.4999318522230925,0.5000007327764865,0.500075542126083,61.35,8.25,94.35,0.11889648499999998,0.47802734500000005,0.8322753900000001,0.4998645038069824,0.5000072610932871,0.4999746860935949,56.4,20.55,28.65
0.023925779999999976,0.556640625,0.345703125,0.499947173770464,0.5000306431820095,0.49989581318116744,-2.4,28.05,19.8,0.5788574200000001,0.5466308599999999,1.005859375,0.4999616960443046,0.49999420445968584,0.500088931855772,61.05,8.4,93.45,0.12475585999999998,0.490478515,0.837890625,0.4998559104166108,0.5000375711792089,0.5000104586237432,56.7,21.15,27.9
0.025634765000000014,0.5456542950000001,0.349365235,0.4999668920640208,0.5000154548032599,0.4999185290777145,-1.65,28.05,19.5,0.5866699200000001,0.5380859400000001,0.997558595,0.4999354494339473,0.5000208506631754,0.5000754088701945,59.55,8.25,93.6,0.122070315,0.49194336,0.83935547,0.4998525796302663,0.5000238483534322,0.499993405011622,56.7,21.15,27.9
0.020019529999999976,0.5290527349999999,0.35131836,0.4999774172720749,0.499973287124933,0.4999292542132344,-1.2,27.45,20.4,0.57470703,0.53173828,1.005126955,0.49993245174369055,0.5000045298275406,0.500064883574874,60.75,8.4,93.45,0.11791991999999998,0.48510742,0.8342285150000001,0.4998441194957831,0.5000117910080942,0.4999832128996555,56.55,19.95,30.15
0.005615234999999984,0.52392578,0.350341795,0.4999786164005375,0.5000072610932871,0.49989814467924876,-1.2,27.45,20.4,0.5856933599999999,0.528808595,1.017822265,0.49993844712420404,0.5000104586237432,0.5000546247913301,61.5,8.1,93.15,0.118164065,0.489990235,0.83251953,0.4998361922103205,0.5000231822485232,0.49998867534388197,56.4,19.35,27.9
0.00390625,0.5241699200000001,0.344970705,0.500000066584311,0.49996156278841625,0.49993385071235247,-1.05,28.05,19.8,0.595703125,0.53515625,1.0034179699999999,0.49994910567541306,0.49999094025765234,0.5000497618677018,61.5,9.15,93.75,0.12280273499999998,0.48803711,0.837402345,0.49982786524445927,0.49999200613022643,0.4999871432065981,57.6,20.7,29.4
0.0017089849999999843,0.52294922,0.342529295,0.4999902741527433,0.4999584318422711,0.4999114012403158,-1.65,27.0,21.3,0.5891113299999999,0.5446777349999999,0.98876953,0.49996555976693624,0.49999114009785167,0.5000655497670494,61.5,9.15,93.75,0.10864258000000002,0.493164065,0.8415527349999999,0.4998692335619888,0.4999897412164561,0.4999656929355582,58.2,20.55,29.25
0.0034179700000000254,0.525390625,0.34277344,0.500000599520598,0.4999547679598389,0.49990920291085644,-1.2,27.9,20.4,0.5812988299999999,0.54736328,0.99658203,0.4999746860935949,0.500009326166858,0.5000583552580733,61.5,9.9,91.65,0.11840820500000002,0.50439453,0.8298339849999999,0.49988608724664424,0.4999716884033381,0.4999878759830846,56.1,19.8,28.65
0.010253904999999975,0.5185546900000001,0.350097655,0.500028777948638,0.49993012024560923,0.4999303866701196,-1.2,27.9,20.4,0.57421875,0.5534667950000001,0.9958496099999999,0.4999482396430382,0.5000299769898341,0.5000712787230527,60.6,7.8,93.3,0.10791015499999998,0.506347655,0.8352050799999999,0.4998490490037224,0.5000105918796316,0.499979882113311,58.2,19.8,27.9
0.0007324199999999905,0.5187988299999999,0.361328125,0.5000302435016108,0.49993558268983573,0.4999188621738022,-2.7,27.3,19.2,0.57470703,0.5515136700000001,1.005859375,0.4999467075057544,0.5000263797789792,0.5000592878747592,61.5,8.1,93.15,0.107421875,0.51171875,0.8376464849999999,0.49985178026946886,0.49999333842731103,0.49996489357476076,58.2,19.8,27.9
0.007324220000000025,0.5241699200000001,0.37451172,0.5000412350616411,0.49993378404077504,0.49994424275178473,-0.75,26.1,19.95,0.5788574200000001,0.5471191400000001,1.0141601550000001,0.4999551010559266,0.5000282450123509,0.5000595543865359,61.5,8.1,93.15,0.10791015499999998,0.50097656,0.8415527349999999,0.49984565163306693,0.5000073943491754,0.4999870099507097,58.05,18.75,28.35
0.021240234999999986,0.529296875,0.38720703,0.5000665489680463,0.49994304362332215,0.49996142953252787,0.3,27.0,20.25,0.5856933599999999,0.5402832049999999,1.02270508,0.4999557672481021,0.5000226493122361,0.5000563568560799,61.5,8.1,93.15,0.11303710999999998,0.501953125,0.8474121099999999,0.49982033763939543,0.500000066584311,0.4999916730341387,58.05,18.75,28.35
0.03344726500000002,0.532714845,0.397216795,0.5000616860444178,0.4999725543484465,0.4999547013755279,-2.1,26.55,19.8,0.6027832049999999,0.53173828,1.0131835949999999,0.499977284103453,0.5000073943491754,0.5000438996558102,61.65,8.25,94.05,0.12255859500000002,0.497802735,0.8469238299999999,0.49983552601814507,0.49999853444702713,0.49999540350088195,56.4,20.85,28.65
0.029541015000000014,0.5285644549999999,0.400634765,0.5000298438212122,0.4999970688940542,0.49993791427518347,-2.1,26.55,19.8,0.603515625,0.5400390650000001,1.00073242,0.5000009992009967,0.49996535983947044,0.5000315757986954,60.75,8.1,93.75,0.13549804499999998,0.479248045,0.8503417950000001,0.4998403889417734,0.5000280451721515,0.5000105918796316,57.3,19.2,29.4
0.017333984999999986,0.51904297,0.39526367,0.5000488292510159,0.49997561871028073,0.4999743529975072,-1.5,27.45,20.4,0.6105957049999999,0.53955078,0.990234375,0.4999950704047942,0.49996102985212915,0.5000151217071722,60.75,8.1,93.75,0.146484375,0.49145508,0.85595703,0.4998591079470669,0.5000308430222089,0.49998687669482134,55.5,18.75,28.05
0.011474609999999984,0.515625,0.38720703,0.5000375711792089,0.4999977350862297,0.4999687572973924,-1.8,28.2,19.95,0.5959472650000001,0.556152345,0.96044922,0.4999949372361723,0.49985211327829016,0.5000182526533173,59.85,9.75,93.3,0.14355468999999998,0.49291992,0.8449707049999999,0.49984811638703663,0.5000510275804753,0.5000157878993476,56.55,19.95,29.1
0.008789064999999993,0.509765625,0.381591795,0.5000321753192934,0.49998694336639876,0.49997775036816267,-1.05,27.0,19.2,0.618652345,0.5534667950000001,0.9909667950000001,0.49999853444702713,0.49999886754311484,0.5000096592629458,61.5,7.35,93.75,0.146484375,0.505371095,0.8337402349999999,0.4998660360315327,0.5000987909589171,0.5000099923590335,56.25,19.5,28.35
0.008056640000000016,0.50488281,0.37402344,0.5000620191405056,0.499966558967933,0.4999788828250478,-1.05,27.0,19.2,0.6022949200000001,0.561035155,0.9685058599999999,0.49999247239493616,0.5000009326166858,0.5000206508229761,61.8,9.15,93.15,0.14379883000000002,0.502441405,0.83544922,0.49985417843912755,0.500120241229957,0.49999160644982776,57.0,19.5,29.4
0.005126955000000009,0.505126955,0.376708985,0.5000698131700798,0.49994564163318017,0.4999948039802839,-1.8,27.45,19.35,0.607910155,0.5617675799999999,0.97753906,0.4999680245209059,0.5000207174945535,0.5000294441408134,61.8,9.15,93.15,0.126953125,0.506835935,0.8444824200000001,0.4998611064363269,0.5000865336861133,0.49999673579796644,57.0,19.5,29.4
0.015869140000000014,0.498779295,0.36743164,0.5000428338705024,0.4999624288207911,0.49997035601898715,0.0,27.75,21.6,0.588378905,0.572265625,0.9841308599999999,0.49994204442232537,0.5000259800985806,0.5000551577276172,60.0,9.6,92.7,0.12866211,0.5075683599999999,0.8278808599999999,0.49986103985201596,0.5000817373467958,0.5000207174945535,57.0,19.5,29.4
-0.0012207050000000094,0.49975586,0.364257815,0.5000699464259681,0.4999427105272344,0.500000599520598,-0.6,28.5,20.55,0.6013183599999999,0.55029297,0.9982910150000001,0.49996682539244336,0.5000537588462217,0.500056090344303,62.4,9.0,93.3,0.12255859500000002,0.51171875,0.831054685,0.49987602830329975,0.5000661492876476,0.49997788362405104,58.05,19.2,28.35
-0.012939454999999952,0.5,0.357177735,0.5000795390173365,0.4999283881808596,0.5000304433418102,-1.8,27.9,20.4,0.5935058599999999,0.5544433599999999,1.0004882800000001,0.49996262866099045,0.5000801386252011,0.5000790061683159,61.95,9.0,94.35,0.125,0.49951172000000005,0.8356933599999999,0.49983206206317865,0.5000620857248166,0.5000105918796316,56.4,18.6,29.25
-0.01953125,0.513183595,0.360595705,0.5000655497670494,0.49994231084683566,0.500075475541772,-1.8,27.9,20.4,0.59082031,0.5341796900000001,0.9973144549999999,0.49998947470467936,0.5000897978881468,0.5000969923098564,61.05,8.1,94.2,0.12353515499999998,0.48901367,0.8425292950000001,0.4998211370874593,0.5000926623225151,0.4999968690538548,56.7,18.6,28.2
0.005126955000000009,0.5322265650000001,0.37573242,0.5000804050497114,0.49991739662082935,0.5000746095093972,-0.75,26.7,20.4,0.5666503900000001,0.5322265650000001,0.994140625,0.5000001998401994,0.5000429004548135,0.5000722779240494,59.85,7.8,95.1,0.10083008000000002,0.4921875,0.82763672,0.49983952299666506,0.5000612197797082,0.4999930053312232,57.3,18.75,29.4
0.027832029999999976,0.5476074200000001,0.388916015,0.5000471638578438,0.49994610798515626,0.5000585550982727,-0.75,26.4,19.95,0.5632324200000001,0.54296875,1.001953125,0.5000470972735328,0.5000719449152282,0.5000793391771372,62.55,8.85,93.75,0.10595702999999998,0.486083985,0.81982422,0.49984112171825984,0.5000526929736476,0.500005196019716,57.0,19.95,28.05
0.04125976500000002,0.545410155,0.392578125,0.5000094594227464,0.5000083935501722,0.5000323751594928,-1.8,27.45,20.7,0.56738281,0.55419922,0.9973144549999999,0.500044099583276,0.5000636845336779,0.500055424239394,62.55,8.85,93.75,0.09790039000000002,0.493164065,0.822265625,0.49984258727123276,0.5000221829602599,0.5000231822485232,57.9,18.6,28.65
0.04296875,0.544433595,0.388183595,0.49999447088419613,0.5000054624442265,0.5000367718184114,-1.8,27.45,20.7,0.5651855450000001,0.5539550799999999,1.006835935,0.5000550911433063,0.5000377710194083,0.5000671485759107,61.8,8.85,93.75,0.10913085999999998,0.48681640499999995,0.8215332049999999,0.4998560436724992,0.5000451653685837,0.4999930053312232,57.9,18.6,28.65
0.041015625,0.5324707049999999,0.376708985,0.4999852113016491,0.5000330413516683,0.500033507616378,-1.5,26.4,19.35,0.55908203,0.5576171900000001,0.9953613299999999,0.5000494287716141,0.5000405688694657,0.500019984718067,60.9,8.55,92.55,0.11962890499999998,0.48852539,0.80908203,0.4998603070755295,0.5000703461063668,0.5000166539317226,57.3,18.75,27.75
0.028320314999999995,0.520996095,0.35498047,0.49995916461875756,0.5000512940049857,0.5000173867082089,-0.45,26.4,19.95,0.56640625,0.581054685,0.991210935,0.5000384372115838,0.5000189854298038,0.5000206508229761,60.75,8.1,93.75,0.115234375,0.5056152349999999,0.821777345,0.4998449854408915,0.5001011225442649,0.4999631615972775,57.3,18.75,27.75
0.012695314999999993,0.514160155,0.340820315,0.49997428641319624,0.5000399027645567,0.5000403024449553,-1.05,28.05,20.55,0.56640625,0.5876464849999999,0.9973144549999999,0.500013323145378,0.5000203177268884,0.5000383039556954,60.75,8.1,93.75,0.10864258000000002,0.498291015,0.821777345,0.49983206206317865,0.5001189755171835,0.4999958698528581,57.0,18.45,28.05
-0.008056640000000016,0.5146484400000001,0.325195315,0.49997408648573044,0.5000210505033748,0.5000454984646715,-2.55,27.45,19.35,0.5559082049999999,0.5720214849999999,0.99267578,0.500013856081665,0.5000359057860366,0.5000460979852696,62.4,9.0,93.3,0.10302734500000002,0.5,0.8181152349999999,0.4998176730452264,0.500138360627386,0.49997055585918654,57.0,20.25,29.85
-0.007080080000000009,0.5183105450000001,0.32885742,0.4999677580091291,0.5000558239197928,0.500008660061949,-2.55,27.45,19.35,0.55517578,0.5881347650000001,1.0063476550000001,0.5000157213150367,0.5000013322970845,0.5000187855896044,60.45,8.1,93.15,0.08935547000000002,0.491210935,0.81591797,0.4998218698639457,0.5001199747181803,0.4999571661294976,59.4,20.25,28.05
-0.005126955000000009,0.5363769549999999,0.32861328,0.4999806148897975,0.4999992672235135,0.5000359724576141,-1.8,27.45,19.95,0.5466308599999999,0.620117185,1.0170898449999999,0.49993871363598086,0.4999871432065981,0.5001003897677784,60.45,8.1,93.15,0.08740234500000002,0.506835935,0.82080078,0.49979076032996006,0.5000965260451468,0.4999548346314163,58.5,18.3,27.45
0.003662109999999984,0.5446777349999999,0.34375,0.49998967454487875,0.5000040635628309,0.5000003330960877,-1.5,27.15,19.35,0.58935547,0.58251953,1.0258789050000001,0.4999527028862679,0.5000329080957798,0.5001269027153795,61.35,8.25,94.05,0.09008789000000002,0.53125,0.823242185,0.49977230783644333,0.5000224494720368,0.49996049691584205,58.95,18.6,28.95
0.013671875,0.544921875,0.3515625,0.49996229556490274,0.5000458315607592,0.49998867534388197,-1.05,26.25,20.25,0.5290527349999999,0.59033203,1.0078125,0.4998880857359042,0.5000305099261212,0.5001643407259666,60.9,7.8,94.35,0.09423827999999998,0.5134277349999999,0.82080078,0.4997677113373253,0.49999233922631425,0.49997721743187556,57.0,19.2,28.35
0.011474609999999984,0.5422363299999999,0.358154295,0.49994444259198406,0.500038104115496,0.5000003330960877,-1.05,26.25,20.25,0.57373047,0.5764160150000001,1.01147461,0.49993937982815634,0.500002664594169,0.5001368284901021,60.75,9.9,93.75,0.11743164000000002,0.52001953,0.81591797,0.49975025804480533,0.499986610270311,0.49997401990141943,57.0,19.2,28.35
0.014160154999999975,0.5334472650000001,0.360595705,0.4999681577767943,0.5000157878993476,0.5000320421506715,-1.05,26.25,20.25,0.5734863299999999,0.5510253900000001,0.994140625,0.4999267227876873,0.49996156278841625,0.500149019178595,60.75,9.9,93.75,0.11547851500000002,0.5146484400000001,0.8205566400000001,0.499710621704759,0.5000231822485232,0.49995456811963945,56.7,18.6,28.65
0.0024414049999999746,0.525390625,0.35107422,0.49995410185492983,0.5000165872601451,0.49999800151074,-1.2,27.45,19.95,0.5773925799999999,0.548339845,0.9921875,0.49996122969232853,0.499964627062984,0.5001111148160319,60.6,8.25,93.6,0.11376952999999998,0.51123047,0.8342285150000001,0.49967778028055654,0.5000970589814339,0.4999571661294976,56.7,18.6,28.65
0.0068359399999999935,0.51074219,0.357910155,0.49995516772750404,0.500025313906405,0.500018585749405,-0.6,28.5,18.75,0.6066894549999999,0.54248047,0.979492185,0.4999751523583046,0.49995929787464594,0.500131099534099,61.05,8.85,94.2,0.11596679499999998,0.506835935,0.8264160150000001,0.4997066913978164,0.5001057189561164,0.49993924657226796,57.3,19.2,28.05
0.006347654999999975,0.5183105450000001,0.36743164,0.5000163874199458,0.5000054624442265,0.5000451653685837,-2.25,27.9,20.7,0.60546875,0.52392578,0.9885253900000001,0.5000417679979283,0.5000055291158039,0.5001171102838119,61.05,8.1,93.75,0.10717773499999998,0.5158691400000001,0.833496095,0.49968384224538104,0.50009152986563,0.49994590814495693,57.3,18.75,27.3
0.01171875,0.529785155,0.376708985,0.49998454519674007,0.5000290443731483,0.500005196019716,-1.2,26.7,19.35,0.5705566400000001,0.58300781,1.006835935,0.5000017986490606,0.4998284647650573,0.5001679379368213,62.25,9.15,93.75,0.11230469,0.48364258,0.83203125,0.4996769808324926,0.5000478300500192,0.49998294638787877,58.35,17.7,29.4
0.018554689999999995,0.5458984400000001,0.388671875,0.5000073943491754,0.5000471638578438,0.5000219831200605,-1.2,26.7,19.35,0.5993652349999999,0.56689453,1.0078125,0.49998501146144975,0.4998886853437688,0.500169137065284,61.65,8.25,94.35,0.109375,0.47729492,0.8464355450000001,0.4996856408944417,0.5000532924942456,0.4999539020147305,58.05,18.0,28.8
0.03125,0.541503905,0.39135742,0.500024647801496,0.500026113354469,0.5000293108849251,-0.45,27.9,20.4,0.59375,0.5627441400000001,0.9968261700000001,0.5000003996803987,0.4998640375422727,0.5001755987977736,60.15,8.25,93.6,0.09765625,0.45800781,0.8474121099999999,0.49965466461634434,0.4999954701724594,0.4999812144103955,58.05,18.0,28.8
0.02075195500000001,0.5515136700000001,0.407714845,0.5000182526533173,0.5000345734889522,0.5000433001352121,-1.2,27.45,19.95,0.58251953,0.498779295,0.99267578,0.5000576224815869,0.49998234686728066,0.500129101044839,60.15,8.25,93.6,0.130615235,0.43310547,0.8352050799999999,0.49968037829041456,0.49996855745719304,0.49997108879547364,58.5,18.3,28.95
0.027587890000000014,0.5478515650000001,0.41748047,0.4999734203808214,0.5000498284520127,0.5000319088947831,-1.35,27.3,19.2,0.6247558599999999,0.501464845,0.99658203,0.500123505344724,0.4999316523828931,0.5000931952588022,60.45,9.15,93.15,0.14453125,0.42529297,0.8474121099999999,0.49968337598067136,0.49996869062581495,0.49993471665746086,58.5,18.3,28.95
0.03588866999999999,0.5537109400000001,0.42138672,0.49998401226045297,0.5000502948039889,0.500048895835327,-1.35,27.3,19.2,0.6015625,0.5363769549999999,1.0004882800000001,0.4999597641393556,0.4998868200231307,0.5001638077896795,60.75,11.1,94.8,0.138671875,0.43261719,0.837402345,0.49968703986310364,0.4999642273825852,0.49995796557756145,58.5,18.3,28.95
0.04150390499999997,0.5556640650000001,0.419433595,0.4999679578493285,0.5000589548659379,0.5000356393615264,-0.6,27.75,18.45,0.6213378900000001,0.5197753900000001,0.967285155,0.4998870199505965,0.49981440884319284,0.5001795291047162,60.9,9.0,94.65,0.14575195500000002,0.403808595,0.8395996099999999,0.4997005627614145,0.49998401226045297,0.4999516371009602,56.7,17.85,29.25
