IMU1_AccX,IMU1_AccY,IMU1_AccZ,IMU1_GyrX,IMU1_GyrY,IMU1_GyrZ,IMU1_MagX,IMU1_MagY,IMU1_MagZ,IMU2_AccX,IMU2_AccY,IMU2_AccZ,IMU2_GyrX,IMU2_GyrY,IMU2_GyrZ,IMU2_MagX,IMU2_MagY,IMU2_MagZ,IMU3_AccX,IMU3_AccY,IMU3_AccZ,IMU3_GyrX,IMU3_GyrY,IMU3_GyrZ,IMU3_MagX,IMU3_MagY,IMU3_MagZ
0.04077148499999998,0.5625,0.40625,0.49989461405270486,0.5000960596931707,0.5000230489926347,-1.5,27.9,19.35,0.592773435,0.5671386700000001,0.955566405,0.4999756852945917,0.49989201604284683,0.5001142457621771,60.9,9.0,94.65,0.15234375,0.400634765,0.83544922,0.49974552828979885,0.49998041504959817,0.49994977178032207,58.05,17.4,28.8
0.04321289000000002,0.5573730450000001,0.39746094,0.49988009186613075,0.5000973254059442,0.500034040552665,-2.1,27.3,19.5,0.61328125,0.54248047,0.96044922,0.5000019318176826,0.49992305899252154,0.5001088499022616,60.9,9.0,94.65,0.14916991999999998,0.38745117,0.8410644549999999,0.499776771079673,0.4999822136113923,0.4999137994099745,57.9,17.55,29.25
0.03759765499999997,0.560058595,0.388427735,0.49981727336482773,0.5001189755171835,0.5000540252707321,-0.45,28.2,18.6,0.612304685,0.5341796900000001,0.9680175799999999,0.49998274654767944,0.4998924823948229,0.5001003897677784,59.85,8.55,94.35,0.14208984500000002,0.389404295,0.83642578,0.4998196049501754,0.5000327082555805,0.499908403550059,58.95,17.1,29.7
0.04150390499999997,0.5358886700000001,0.37451172,0.4997673782412375,0.5001311661184099,0.5000121906884929,-0.45,28.2,18.6,0.59863281,0.56298828,0.9641113299999999,0.4999551010559266,0.49992146018366024,0.5000946608117751,61.05,8.85,94.2,0.12890625,0.37060547,0.8415527349999999,0.49983759109171605,0.4999922725547368,0.49991053520794093,57.15,17.85,28.95
0.05566406499999999,0.532714845,0.369628905,0.4997715750599569,0.5000949272362856,0.5000302435016108,-1.8,27.9,20.4,0.5783691400000001,0.560546875,0.96875,0.4999159977394338,0.4999780168799394,0.5000993238952042,61.05,8.85,94.2,0.12817383000000002,0.364746095,0.838378905,0.49990187514599194,0.499997335405831,0.4998952136605694,58.05,17.4,30.15
0.07006835999999998,0.5205078150000001,0.38232422,0.4997519234379776,0.500107584189488,0.5000263797789792,-3.3,27.9,19.95,0.58154297,0.55517578,1.00415039,0.4998912166820494,0.499966558967933,0.5000738101485998,60.45,8.1,94.5,0.11450195500000002,0.365234375,0.8459472650000001,0.4999047396676268,0.5000059953805135,0.49984884916352307,58.05,17.4,30.15
0.07470702999999998,0.513183595,0.38989258,0.4997585850106666,0.5001558139199059,0.5000297105653237,-2.1,28.05,19.8,0.583984375,0.5397949200000001,1.02636719,0.49988708653490743,0.499963894373764,0.5000732105407353,59.85,8.55,94.35,0.10449219,0.356933595,0.8591308599999999,0.49993171896720406,0.499975285614193,0.49984671741837466,57.0,17.7,29.85
0.0703125,0.5197753900000001,0.36767578,0.49980181856156775,0.5001209740064435,0.500037438010587,-2.1,28.05,19.8,0.5852050799999999,0.5295410150000001,1.01464844,0.49985471128814823,0.4999531025666666,0.5000889984400829,60.15,9.75,95.4,0.10522460999999998,0.35180664,0.8493652349999999,0.49996442722278467,0.49995583383241304,0.4998225359688548,57.0,17.7,29.85
0.04467773499999998,0.5168457049999999,0.35620117,0.49982020447077347,0.5001195750377816,0.5000206508229761,-2.7,30.3,19.5,0.5881347650000001,0.51074219,0.9968261700000001,0.4998245344581148,0.49993711482711956,0.5000766745829681,60.15,9.75,95.4,0.09375,0.353271485,0.84716797,0.5000049295952058,0.49989927722340033,0.4998429869516315,57.6,17.7,29.4
0.03564452999999997,0.51953125,0.34033203,0.49985637668132044,0.5000889984400829,0.499977950208362,-2.55,29.7,18.9,0.592285155,0.48388672000000005,0.9992675799999999,0.49983938974077663,0.4999542351108182,0.5001098491905248,59.85,9.75,95.4,0.09106445500000002,0.361572265,0.8435058599999999,0.5000229157367464,0.49989028406536357,0.49983266158377665,59.4,16.95,28.8
0.04663085999999998,0.525878905,0.32861328,0.49991086830402864,0.5000416347420399,0.4999892082801691,-2.55,28.2,19.35,0.6013183599999999,0.470703125,1.00097656,0.49984864932332373,0.4999739533171085,0.5000556240795934,58.95,8.1,93.45,0.09692383000000002,0.354248045,0.849609375,0.5000271791397767,0.4998808246426171,0.49983592569854374,57.6,16.2,29.1
0.030761720000000024,0.5400390650000001,0.31982422,0.49996562635124725,0.5000123238571148,0.49993431697706214,-2.1,28.05,19.5,0.5935058599999999,0.45703125,1.009765625,0.49986550309524563,0.49998481162125036,0.500060153907134,58.65,8.85,94.5,0.08837890499999998,0.34814453,0.868652345,0.500053492334445,0.49988662018293134,0.49985784223429336,58.05,14.7,29.85
0.03247070500000001,0.53955078,0.31982422,0.4999704892748756,0.5000162542513238,0.4999149984511706,-2.1,28.05,19.5,0.60498047,0.45385742,1.040283205,0.4998713652198707,0.49998501146144975,0.5000628851728804,60.0,8.1,93.45,0.08886719,0.345458985,0.8669433599999999,0.5000718116593398,0.49989647928607645,0.49985917453137785,58.05,15.9,30.45
0.01879883000000001,0.53564453,0.318847655,0.5000263131946683,0.49996142953252787,0.4998868200231307,-3.3,30.15,19.35,0.5974121099999999,0.447509765,1.04272461,0.49987589513467784,0.4999692902336795,0.5000650168307623,59.1,9.3,95.1,0.08178710999999998,0.34692383,0.8615722650000001,0.5000974586618326,0.49984118838983727,0.4998748958464146,59.1,15.9,29.85
0.020019529999999976,0.5324707049999999,0.32836914,0.500030776437898,0.4999531025666666,0.4998872863751068,-2.1,30.3,19.8,0.6071777349999999,0.43725586,1.0385742199999999,0.49989954364791067,0.4999622289805918,0.5000277787476413,58.05,8.25,94.65,0.09204101500000002,0.34790039,0.8605957049999999,0.5001036538825455,0.4998265995316857,0.499922459384657,59.1,15.9,29.85
0.016601564999999995,0.513671875,0.34667969,0.5000265130348677,0.49993724808300793,0.49985504438423595,-1.5,29.4,19.95,0.614746095,0.427001955,1.0229492199999999,0.4998886853437688,0.49998141425059495,0.5000010658725742,58.05,8.25,94.65,0.09326172000000002,0.344970705,0.8664550799999999,0.5001141125935551,0.49980275117825357,0.49989701222236355,57.9,14.85,29.7
0.015869140000000014,0.5075683599999999,0.34790039,0.5000341072242425,0.4999026745940558,0.49988022512201913,-1.5,29.4,19.95,0.609375,0.42529297,1.056396485,0.4999060053804003,0.49998501146144975,0.4999856776536252,58.95,8.4,93.45,0.099609375,0.354003905,0.87158203,0.5001566133679698,0.4997758384629872,0.4999335842005757,57.3,14.7,31.2
0.01489258000000001,0.49853515499999995,0.35839844,0.5000502282196779,0.4998648369030701,0.49989341501150875,-1.5,29.4,18.6,0.6179199200000001,0.424560545,1.049560545,0.49991879558949126,0.4999555674079027,0.4999381141153828,59.55,7.5,95.4,0.11206054499999998,0.358154295,0.857910155,0.5001580788336762,0.4997577855626027,0.4999484394832376,57.3,15.9,31.2
-0.008789060000000007,0.48803711,0.361816405,0.5000452320401612,0.4999221929601467,0.499893148499732,-2.4,29.25,20.25,0.627929685,0.42602539,1.01147461,0.4999227924807448,0.4999600306511324,0.4999401791889537,57.75,8.25,94.65,0.13134765499999998,0.376464845,0.846679685,0.500171135554544,0.49976797776183557,0.49999173970571614,56.7,15.6,32.1
-0.019042969999999968,0.47680664,0.375,0.5000690138092824,0.49987343029344167,0.4999780834642504,-1.5,27.15,20.4,0.6135253900000001,0.41796875,1.0,0.49999980015980067,0.49988648701430943,0.4998785597288468,59.55,8.55,94.65,0.15283202999999998,0.388427735,0.8464355450000001,0.5001915199530097,0.4998034172831626,0.4999704892748756,57.6,15.15,31.95
-0.027099609999999986,0.47412109500000005,0.372558595,0.500093661523512,0.49985597700092177,0.4999854111418484,-1.5,28.65,18.9,0.64013672,0.446533205,0.98779297,0.5000398361802457,0.49988175725930295,0.4998577756499824,59.25,7.35,96.3,0.15649414,0.407958985,0.850097655,0.5001895214637497,0.4998347932416586,0.4999878759830846,57.15,16.05,30.75
-0.026611329999999954,0.46557617,0.38183594,0.5000867335263126,0.49985937445884365,0.49996122969232853,-1.5,28.65,18.9,0.6481933599999999,0.474365235,1.00415039,0.500071545147563,0.49987156506007013,0.49986696856095203,58.35,6.3,94.05,0.169921875,0.42626953,0.833496095,0.5001802618812026,0.4998800252818198,0.500011324656118,57.15,16.05,30.75
-0.018310545000000046,0.48120117,0.39379883,0.5001058522120049,0.4998730972846204,0.5000087932305709,-0.3,29.85,21.3,0.6447753900000001,0.5036621099999999,0.9772949200000001,0.5000819371869952,0.49991246711288995,0.4998657695197559,58.35,6.3,94.05,0.16674804499999998,0.44921875,0.814453125,0.500175798637973,0.49988955128887713,0.4999930053312232,57.15,16.05,30.75
-0.004394529999999975,0.48779297000000005,0.40258789,0.5001398927646699,0.4998295306376315,0.500024647801496,-1.5,27.9,21.45,0.620117185,0.53125,0.9396972650000001,0.5000725444358263,0.4999533024068659,0.49988721979079587,59.55,7.05,94.65,0.18115234500000002,0.47119140499999995,0.8005371099999999,0.5001863905176045,0.4998964127017655,0.4999998667441116,57.0,15.45,31.5
0.007324220000000025,0.5187988299999999,0.40283203,0.5000800053693126,0.4998720314120462,0.5000123238571148,-0.75,28.65,19.95,0.61669922,0.5485839849999999,0.9328613299999999,0.5000396362527799,0.5000151883787497,0.49990813703828224,58.35,9.0,95.4,0.18823241999999998,0.49194336,0.7927246099999999,0.5001644073102776,0.49993851379578147,0.5000211171749521,57.0,15.45,31.5
0.009277345000000025,0.529296875,0.40307617,0.5000478966343301,0.4998974785743397,0.49998960796056774,-0.75,28.65,19.95,0.6228027349999999,0.5568847650000001,0.96142578,0.4999927389067129,0.5000249808975838,0.499908403550059,58.65,9.9,96.0,0.18212890499999998,0.50073242,0.790527345,0.5001188422612951,0.5000023315853478,0.5000766745829681,57.45,16.35,32.4
-0.0012207050000000094,0.5344238299999999,0.403564455,0.5000448989440734,0.499897678414539,0.4999942710439968,-0.75,28.65,19.95,0.6154785150000001,0.541015625,0.9660644549999999,0.49998601074971294,0.5000401691890669,0.49989927722340033,58.65,9.9,96.0,0.19018554499999998,0.5178222650000001,0.78564453,0.5000706792024546,0.49998188051530457,0.5000728108603365,57.9,16.05,30.3
0.008789064999999993,0.521972655,0.40209961,0.5000226493122361,0.4999439762400079,0.4999751523583046,-0.6,28.5,20.85,0.631347655,0.557128905,0.96972656,0.4999995336480239,0.5000040635628309,0.49992079399148476,59.25,8.1,96.0,0.18090820500000002,0.5148925799999999,0.7995605450000001,0.4999760849749904,0.5000311095339858,0.5000961263647481,58.35,16.2,29.85
0.005859375,0.5144042950000001,0.392822265,0.5000021983294594,0.4999508376528963,0.49994590814495693,-1.65,29.55,21.6,0.627441405,0.5517578150000001,0.96435547,0.4999937381077097,0.5000083935501722,0.49993311793586603,58.65,8.4,95.25,0.169677735,0.5236816400000001,0.7883300799999999,0.49994697393026466,0.5000702795220558,0.5000764747427687,57.3,15.9,31.95
0.00024414000000001578,0.508789065,0.385253905,0.500026779459378,0.4999510374930956,0.4999616293727272,-0.45,28.2,19.95,0.6174316400000001,0.5720214849999999,0.96972656,0.4999864770144226,0.5000089930707703,0.49993651530652145,58.65,8.4,95.25,0.16918945500000002,0.5246582049999999,0.78515625,0.4999033406989648,0.5001227059839267,0.5000602871630224,57.0,15.9,30.9
0.010009765000000016,0.505371095,0.373535155,0.5000016653931723,0.5000151883787497,0.49996988975427753,-0.6,27.75,19.8,0.6062011700000001,0.5681152349999999,0.966796875,0.49999020748116585,0.5000616194601069,0.49996555976693624,59.55,6.75,95.4,0.12841797000000002,0.5251464849999999,0.78955078,0.4998791592494449,0.5001980482698103,0.5000796722732249,56.7,15.3,32.1
0.013427734999999984,0.49658202999999995,0.35571289,0.5000141225061755,0.5000488292510159,0.4999581654177608,-0.6,27.75,19.8,0.5944824200000001,0.5783691400000001,0.9865722650000001,0.4999897412164561,0.5000501615481006,0.5000245145456076,58.35,7.8,95.4,0.10546875,0.509765625,0.796875,0.49981714010893935,0.5001672052476014,0.5000916631215184,56.7,15.3,32.1
0.013671875,0.497070315,0.334228515,0.5000218499514386,0.5000070612530877,0.5000040635628309,-1.35,27.75,21.3,0.5671386700000001,0.5686035150000001,1.016601565,0.5000383706272727,0.5000361722978134,0.5000100589433445,60.0,6.6,94.2,0.08666991999999998,0.49633789,0.815429685,0.49975165692620077,0.5001244379614099,0.5000734103809346,57.15,16.35,32.4
0.020019529999999976,0.49902344,0.314453125,0.500013323145378,0.5000666156396236,0.49997581855048007,-0.75,26.7,20.7,0.5458984400000001,0.578125,1.0375976550000001,0.500040102604756,0.50002617993878,0.5000278453319522,60.0,6.6,94.2,0.04785156499999999,0.458496095,0.84472656,0.4996923024671307,0.5001454884647847,0.5000450987842727,57.9,17.55,31.8
0.019775390000000014,0.50390625,0.30517578,0.5000015321372838,0.500098191438319,0.49997854972896005,0.3,27.3,20.25,0.5302734400000001,0.5583496099999999,1.064697265,0.5000223162161483,0.5000460979852696,0.5000644838944752,60.45,6.15,95.55,0.02807616999999999,0.412841795,0.8840332049999999,0.49971108805673514,0.5000886654312616,0.5000294441408134,58.2,15.6,31.8
0.021484375,0.52001953,0.298095705,0.5000301769172999,0.500069413489681,0.5000145221865742,0.3,27.3,20.25,0.50488281,0.55859375,1.07739258,0.5000265796191786,0.5000698131700798,0.5000672817445327,58.35,7.8,94.05,0.007324220000000025,0.365722655,0.876464845,0.4998172066932503,0.5000165206758341,0.5000057289560033,58.2,15.6,31.05
0.010742189999999993,0.525390625,0.30004883,0.4999961362773684,0.5000959265245487,0.4999623621492137,-0.75,28.2,19.95,0.50488281,0.50708008,1.0395507800000001,0.49996749158461884,0.4999840788447639,0.5000780734643636,58.05,7.05,94.65,0.02661133000000001,0.349853515,0.8498535150000001,0.49989794483904937,0.499931119446606,0.5000007993607974,56.7,16.35,31.05
0.00390625,0.5270996099999999,0.298828125,0.4999944042998852,0.5000879992390862,0.49994424275178473,-2.1,29.55,19.8,0.541503905,0.50732422,1.0336914050000001,0.4998948138929042,0.49997062253076396,0.5000904639930558,58.05,7.05,94.65,0.03808593999999999,0.330810545,0.838378905,0.4999393131565789,0.49983386062497276,0.5000166539317226,57.15,15.6,31.35
0.010742189999999993,0.5227050799999999,0.314208985,0.5000077274452632,0.5000586883541611,0.4999854111418484,-0.75,26.1,19.35,0.5466308599999999,0.44897461,1.03100586,0.49998454519674007,0.4998478499625263,0.5000636845336779,59.85,7.05,94.35,0.08447265499999998,0.330322265,0.85205078,0.4999958031812807,0.4998127434500206,0.5000009326166858,57.15,15.6,31.35
0.0009765649999999937,0.5078125,0.325683595,0.5,0.500062152396394,0.49996715848853107,-2.4,28.8,21.3,0.583496095,0.46411133,1.005126955,0.4999225926405454,0.4999308530220957,0.5000661492876476,59.25,7.35,94.8,0.12255859500000002,0.33154297,0.8342285150000001,0.5000357726174147,0.49982993031803025,0.5000280451721515,58.05,15.45,31.5
0.01098633000000001,0.5056152349999999,0.34741211,0.5000147220267734,0.5000139226659761,0.5000077274452632,-2.4,28.8,21.3,0.5969238299999999,0.43847656,0.9792480450000001,0.49995323582255496,0.4999614962041053,0.5000369050742999,58.35,7.05,94.05,0.13720702999999998,0.365722655,0.8381347650000001,0.5000816707624849,0.49985224653417853,0.5000205176543542,58.05,15.45,31.5
0.0234375,0.508789065,0.35986328,0.50001072513552,0.4999680911052169,0.500017519876831,-1.65,28.5,20.55,0.61376953,0.454589845,0.9660644549999999,0.500003464042233,0.4999781500485614,0.5000002664245103,58.35,7.05,94.05,0.16284179499999998,0.376464845,0.8425292950000001,0.5000673484161101,0.4999475068665518,0.49999114009785167,58.05,17.4,31.95
0.03466797000000003,0.505126955,0.379882815,0.5000055291158039,0.499977950208362,0.5000028644343684,-2.55,28.95,21.0,0.6320800799999999,0.467041015,0.9689941400000001,0.5000157213150367,0.49999853444702713,0.4999608300119298,57.9,6.6,93.45,0.17651366999999998,0.411621095,0.8376464849999999,0.500102921106059,0.4999292542132344,0.49998641043011166,58.05,16.65,32.25
0.03125,0.513183595,0.37939453,0.499986676854622,0.49995669986478786,0.5000163208356349,-1.8,27.9,19.65,0.64013672,0.494140625,0.96044922,0.5000462978254688,0.4999880758232839,0.4999488391636363,58.8,7.5,93.6,0.189208985,0.436523435,0.829589845,0.5001000566716907,0.4999449755282711,0.5000157878993476,58.05,15.45,31.95
0.02221679499999999,0.5202636700000001,0.37548828,0.4999976018303413,0.49991966153459966,0.5000221829602599,-1.8,27.9,19.65,0.6350097650000001,0.5256347650000001,0.9685058599999999,0.5000358392017257,0.5000050627638277,0.4999513705891834,58.05,6.0,94.65,0.197265625,0.478271485,0.82421875,0.5001097159346364,0.4999630283413891,0.5000173867082089,57.9,17.1,31.8
0.008300779999999975,0.520996095,0.37817383,0.49997868298484843,0.4999499050362105,0.500020051302378,-1.5,28.2,18.9,0.63623047,0.53466797,0.9724121099999999,0.5000341072242425,0.5000192519415806,0.49995663319321043,58.05,6.0,94.65,0.18994140499999998,0.49560547000000005,0.822753905,0.5000833361556571,0.5000053958599154,0.5000137228257767,57.9,17.1,31.8
0.0048828149999999935,0.5183105450000001,0.38647461,0.49998794256739554,0.4999370482428086,0.5000048629236283,-2.1,28.05,20.25,0.6403808599999999,0.5458984400000001,0.9743652349999999,0.5000701462661675,0.5000222496318373,0.49996695864833174,58.65,5.7,95.25,0.18310547000000002,0.50073242,0.82763672,0.5000665489680463,0.5000559570884147,0.5000033307863445,57.3,15.9,30.9
0.01684570500000001,0.5244140650000001,0.39501953,0.5000072610932871,0.4999191952698899,0.5000315757986954,-1.65,28.5,20.85,0.6394042950000001,0.564453125,0.9797363299999999,0.5000946608117751,0.5000338407124657,0.4999748192622168,59.1,6.3,94.65,0.166259765,0.49560547000000005,0.83251953,0.5000213170151515,0.5000964594608358,0.5000271125554657,57.15,16.05,33.15
0.022460939999999995,0.5263671900000001,0.40209961,0.49998081472999684,0.49995017154798727,0.5000041301471418,-0.45,27.9,20.7,0.6286621099999999,0.560546875,0.9855957049999999,0.500064150885654,0.5000450321999618,0.49998780931150716,59.1,6.3,94.65,0.14746093999999998,0.48046875,0.8347167950000001,0.5000253805779825,0.500120907334866,0.5000241148652089,57.15,16.05,33.15
0.03588866999999999,0.5354003900000001,0.40209961,0.4999762182308788,0.4999462411537783,0.4999982680225168,-0.45,27.9,20.7,0.6145019549999999,0.5524902349999999,0.9987792950000001,0.5000411018057528,0.5000015988088613,0.500024714385807,57.75,7.8,94.65,0.12353515499999998,0.466308595,0.850585935,0.4999936049390878,0.5000800719536236,0.5000439663273876,56.1,16.05,31.35
0.03491210999999998,0.5295410150000001,0.39746094,0.5000014655529729,0.4999995336480239,0.5000211837592632,-0.75,28.65,19.65,0.6032714849999999,0.5368652349999999,0.9987792950000001,0.500051493845185,0.5000215834396619,0.5000008660323748,58.8,8.25,95.7,0.12622070500000002,0.439697265,0.8547363299999999,0.5000070612530877,0.5000705459465662,0.5000469640176444,55.8,15.15,31.5
0.02612304499999999,0.52001953,0.384765625,0.5000079272854626,0.5000059287962025,0.5000323085751819,-2.1,28.8,19.8,0.596679685,0.5256347650000001,1.00463867,0.5000520267814721,0.5000193185258915,0.5000029976902568,57.75,7.8,94.65,0.109375,0.412597655,0.856933595,0.5000345734889522,0.5000221829602599,0.5000826699634817,57.0,15.15,32.25
0.022949220000000024,0.51611328,0.38232422,0.5000063950609122,0.500038703636094,0.5000167871003445,-1.05,28.8,21.3,0.5891113299999999,0.5178222650000001,1.0043945300000001,0.5000508943245869,0.499995336916571,0.499995336916571,57.75,7.8,94.65,0.11352539000000002,0.392822265,0.853515625,0.5000476302098198,0.5000070612530877,0.500062285565016,57.0,18.0,30.9
0.01440429499999999,0.5244140650000001,0.369873045,0.5000172534523206,0.5000341072242425,0.5000111248159187,-1.05,28.8,21.3,0.59765625,0.50390625,1.0112304699999999,0.5000383706272727,0.5000135229855773,0.49997841656033815,58.35,7.05,95.1,0.118164065,0.387695315,0.8547363299999999,0.5000660161190256,0.4999904739929426,0.5000597542267353,57.15,17.55,30.75
0.01245116999999999,0.51904297,0.35961914,0.5000191186856922,0.5000235819289219,0.5000004663519761,0.6,27.3,20.55,0.6015625,0.491210935,1.002929685,0.5000249142260064,0.5000178529729187,0.4999932051714226,60.15,7.8,96.15,0.13134765499999998,0.377197265,0.8605957049999999,0.500092129386228,0.4999848782928278,0.5000442994234754,57.9,16.35,30.75
0.008789064999999993,0.5202636700000001,0.359375,0.5000077940295742,0.5000574226413875,0.5000222496318373,-0.75,28.65,20.4,0.59765625,0.48901367,0.99560547,0.5000327082555805,0.500020051302378,0.4999856776536252,59.55,7.8,95.1,0.12817383000000002,0.38330078,0.8537597650000001,0.5001033207864577,0.499981947186882,0.5000337075438438,57.9,16.35,30.75
0.0017089849999999843,0.514160155,0.35888672,0.5000030643618342,0.5000255804181818,0.5000273123956651,-0.75,27.45,19.95,0.59863281,0.48828125,0.995117185,0.5000572894727656,0.5000022649137703,0.4999327182554673,58.35,7.5,94.65,0.12939452999999998,0.380615235,0.856933595,0.5001112480719203,0.4999542351108182,0.500047363698043,57.9,17.85,31.35
-0.004150390000000016,0.5192871099999999,0.359375,0.5000030643618342,0.500015321634638,0.5000379042752966,-1.05,27.75,19.5,0.599609375,0.49902344,0.999023435,0.5000784065604513,0.5000117243365167,0.49995010487640984,58.2,8.85,94.8,0.12109375,0.392089845,0.8571777349999999,0.500126969386957,0.4999547013755279,0.5000123905286922,57.9,17.85,31.35
0.008056640000000016,0.5236816400000001,0.361816405,0.4999844785251626,0.5000152549630607,0.500034840000729,-1.05,27.75,19.5,0.6071777349999999,0.509765625,1.010498045,0.5000740765731101,0.5000148552826619,0.49992798850046083,58.8,6.0,96.15,0.134765625,0.392578125,0.864746095,0.5001618093004194,0.4999328514240892,0.5000213170151515,57.15,16.8,32.1
0.01831054499999999,0.528808595,0.37060547,0.5000136562414658,0.49996489357476076,0.5000469640176444,-1.8,28.65,19.65,0.60546875,0.51098633,1.0014648449999999,0.5000870000380894,0.5000280451721515,0.4999405122850415,58.8,6.0,96.15,0.135009765,0.400878905,0.8630371099999999,0.5001795291047162,0.4999583652579601,0.500006728157,57.3,17.4,31.95
0.027832029999999976,0.5319824200000001,0.376953125,0.5000029311059457,0.49997974885742263,0.5000698131700798,0.15,28.2,18.9,0.612304685,0.510253905,1.00024414,0.5000652166709617,0.5000386370517831,0.49991000227165383,58.2,7.65,94.5,0.138427735,0.41430664,0.85644531,0.5001961830364386,0.4999347833290383,0.5000098591031451,57.3,16.95,32.25
0.02807616999999999,0.5402832049999999,0.376708985,0.49997095562685173,0.4999904073213652,0.5000597542267353,-0.45,28.65,19.65,0.607421875,0.5202636700000001,0.9816894549999999,0.5000818706026843,0.500030776437898,0.4999144655148835,58.95,8.1,94.8,0.142333985,0.408935545,0.8547363299999999,0.5001910536010336,0.49992545716218023,0.49999726873425354,56.7,17.55,31.35
0.029785154999999976,0.5419921900000001,0.38208008,0.5000079938697736,0.4999836791643652,0.5000308430222089,-0.45,28.65,19.65,0.6076660150000001,0.5246582049999999,0.9924316400000001,0.5000688805533939,0.5000257135868038,0.49990194181756936,59.85,8.55,94.65,0.14135741999999998,0.431152345,0.849609375,0.5002131033926716,0.4999143323462616,0.4999728208602233,56.4,18.3,32.1
0.029541015000000014,0.5402832049999999,0.383789065,0.5000037970510541,0.49999746857445293,0.5000396362527799,-0.45,28.65,19.65,0.6174316400000001,0.532714845,0.98925781,0.500080271793823,0.5000083269658613,0.4998752955268133,59.85,8.55,94.65,0.14941406499999998,0.44140625,0.8430175799999999,0.5002314226302998,0.49994544179298084,0.500003464042233,56.55,16.95,32.25
0.026855470000000024,0.5339355450000001,0.37426758,0.49998341273985486,0.5000197848778677,0.5000398361802457,-2.1,28.5,20.25,0.609375,0.528808595,0.9777832049999999,0.5000758752221708,0.4999970023097432,0.4998809578985055,59.85,8.55,95.4,0.150634765,0.450927735,0.84082031,0.5002325551744515,0.4999594311305343,0.5000100589433445,56.55,16.95,32.25
0.024414064999999995,0.52783203,0.373535155,0.5000139226659761,0.49998727637522006,0.5000363055537018,-1.8,26.7,21.45,0.6193847650000001,0.5319824200000001,0.9831542950000001,0.5000552909835057,0.49999886754311484,0.4998840888446507,59.55,7.05,94.35,0.15649414,0.447509765,0.845703125,0.500247876721823,0.4999843453565407,0.5000010658725742,57.0,18.0,31.2
0.013671875,0.5295410150000001,0.37060547,0.5000277120760638,0.49996882388170333,0.500013856081665,-1.2,29.4,20.7,0.61425781,0.5607910150000001,0.99609375,0.5000289112045264,0.49996922356210205,0.4998973453184513,59.55,7.05,94.35,0.15185547000000002,0.45678711,0.838378905,0.50027658808615,0.4999739533171085,0.5000205176543542,55.8,18.0,31.95
0.018554689999999995,0.525878905,0.376953125,0.5000345069046412,0.5000017986490606,0.5000028644343684,-1.5,27.9,19.35,0.6164550799999999,0.5017089849999999,0.9660644549999999,0.49998694336639876,0.5000500282922121,0.4999141990903732,58.95,8.85,94.8,0.15307616999999998,0.46923827999999995,0.8337402349999999,0.5002727909478294,0.49997668449558846,0.5000288445329489,57.9,17.85,32.1
0.017822265000000014,0.5305175799999999,0.377197265,0.5000863338459139,0.49997548545439235,0.5000215834396619,-1.5,27.9,19.35,0.6184082049999999,0.5300292950000001,0.987304685,0.5000465643372457,0.5000148552826619,0.4998958797654784,60.6,7.8,94.05,0.150390625,0.46923827999999995,0.8371582049999999,0.5002755887978868,0.5000054624442265,0.5000419012538166,57.3,15.9,31.5
0.014648439999999993,0.5285644549999999,0.373535155,0.5001003897677784,0.4999518369411595,0.5000223828877257,-0.3,27.75,19.8,0.604492185,0.506591795,1.006591795,0.5000399693488676,0.5000249808975838,0.49988209035539066,59.7,8.4,94.5,0.14916991999999998,0.45629883,0.8405761700000001,0.500261266451512,0.5000212503435741,0.5000436332312999,57.3,15.9,31.5
0.01684570500000001,0.53515625,0.364990235,0.500044765688185,0.4999962695332568,0.49999693563816583,-3.15,27.0,20.55,0.6169433599999999,0.5134277349999999,0.9958496099999999,0.5000546914629076,0.5000181860690064,0.49988595407802233,59.7,8.4,94.5,0.13989258000000002,0.44555664,0.8420410150000001,0.5002699930977721,0.5000393698282696,0.5000513606765631,56.4,17.85,32.1
0.01489258000000001,0.53466797,0.357177735,0.5000759418064817,0.4999783498887607,0.4999954701724594,0.0,28.05,18.75,0.6015625,0.521484375,0.9860839849999999,0.5000497618677018,0.5000191852700031,0.4998645038069824,59.7,8.4,94.5,0.14306640499999998,0.45239258,0.834960935,0.5002629318446843,0.5000215168553509,0.5000345069046412,57.0,18.0,30.9
0.01293945500000001,0.5363769549999999,0.349365235,0.5000877328145759,0.4999576324814737,0.49997934917702397,0.0,28.05,18.75,0.5915527349999999,0.5319824200000001,0.97216797,0.5000126569532025,0.500044832272496,0.499897678414539,59.85,7.05,94.65,0.13403320500000002,0.459472655,0.8518066400000001,0.5002496753708837,0.5000224494720368,0.5000233820887224,57.0,18.0,30.9
0.012695314999999993,0.5402832049999999,0.35058594,0.500051493845185,0.4999856776536252,0.49997828330444977,-2.7,27.0,19.8,0.5905761700000001,0.5126953150000001,0.99609375,0.5000673484161101,0.5001140459219776,0.49985937445884365,59.25,8.1,93.75,0.11840820500000002,0.46166992,0.86669922,0.5002093729259284,0.5000337075438438,0.5000638843738772,57.6,18.75,31.95
0.013916015000000016,0.5314941400000001,0.353027345,0.5000702128504785,0.4999606967560414,0.49998927486448,-1.2,27.45,20.7,0.6091308599999999,0.502929685,1.0625,0.4999856776536252,0.500271458650745,0.4998691668904114,59.25,8.1,93.75,0.09350585999999998,0.44970703,0.8747558599999999,0.5002103055426141,0.5000452320401612,0.5000304433418102,57.6,18.75,31.95
0.015625,0.5256347650000001,0.35961914,0.5000939946195997,0.49996962324250077,0.5000149885385503,-0.6,27.75,19.8,0.5166015650000001,0.5400390650000001,1.0043945300000001,0.5001666723113143,0.500095660012772,0.49978309955627426,60.6,7.8,93.6,0.10473633000000002,0.48828125,0.8576660150000001,0.5002167006035264,0.5000098591031451,0.5000398361802457,57.15,19.05,30.75
-0.0009765600000000063,0.524902345,0.353515625,0.5000562236001914,0.49998707653502067,0.4999824801231691,-1.2,28.2,19.95,0.6091308599999999,0.556640625,1.07421875,0.50010698466889,0.5000398361802457,0.49982806508465866,59.7,8.85,93.75,0.110351565,0.5212402349999999,0.865722655,0.500175865222284,0.4999919395459155,0.500040102604756,55.35,19.8,31.35
-0.012939454999999952,0.5256347650000001,0.344970705,0.5000743429976204,0.4999410451340621,0.5000213835994626,-1.2,28.2,19.95,0.58300781,0.5803222650000001,1.00854492,0.5001053859472951,0.5000278453319522,0.4998365253064083,60.0,8.1,93.15,0.09448241999999998,0.5402832049999999,0.87597656,0.500145088784386,0.5000283782682392,0.5000512274206746,55.35,18.3,32.85
-0.006591794999999991,0.53076172,0.357177735,0.5000775406153429,0.49993558268983573,0.5000291776290366,-1.35,26.25,20.55,0.595214845,0.58984375,1.012939455,0.5000580888335631,0.4999994004794019,0.4998894180329887,60.0,8.1,93.15,0.094726565,0.5397949200000001,0.877929685,0.5001025214256604,0.5000281784280399,0.5000233820887224,56.1,19.8,31.05
0.004150390000000016,0.533203125,0.360351565,0.5000631515973908,0.49995563399221365,0.4999924058106252,-1.8,26.7,19.95,0.5832519549999999,0.60253906,1.01586914,0.5000836692517449,0.499995336916571,0.49988575423782294,59.25,8.85,94.8,0.10083008000000002,0.549316405,0.875,0.500127035971268,0.5000411018057528,0.5000076607736857,56.1,19.8,31.05
0.018066404999999976,0.5334472650000001,0.369873045,0.5000570895452998,0.4999247243856938,0.4999982680225168,-1.05,26.55,20.85,0.5798339849999999,0.595703125,1.00415039,0.5001227059839267,0.4999679578493285,0.49988009186613075,59.85,8.25,93.6,0.11499023499999998,0.5568847650000001,0.8532714849999999,0.5001486860825073,0.5000297771496347,0.5000401691890669,56.55,19.5,31.2
0.01684570500000001,0.5456542950000001,0.37402344,0.5000525597177592,0.49993904673206857,0.5000255137466044,-1.05,26.55,20.85,0.57910156,0.6047363299999999,0.989746095,0.5001127802092041,0.4999802151221323,0.4998957465968565,60.9,8.25,92.25,0.12426758000000002,0.553222655,0.833496095,0.5001552143993079,0.5000269792995773,0.5000389701478708,56.55,19.5,31.2
0.01489258000000001,0.55029297,0.37817383,0.5000139892502871,0.4999327182554673,0.4999902741527433,-1.2,27.9,20.7,0.600097655,0.6169433599999999,0.9895019549999999,0.5001011225442649,0.49997262102002393,0.499921793279748,60.45,7.65,94.2,0.14453125,0.5354003900000001,0.8244628900000001,0.5001509509962776,0.5000177197170302,0.5000591547061373,55.8,19.2,31.2
0.027587890000000014,0.5471191400000001,0.376464845,0.5000166539317226,0.49994857273912596,0.5000162542513238,-1.5,27.45,20.7,0.5817871099999999,0.60253906,0.9763183599999999,0.5000582220894514,0.4999815475064833,0.49991739662082935,60.15,9.3,94.05,0.14379883000000002,0.5148925799999999,0.8203125,0.5001574127287672,0.5000489625069043,0.5000418345822393,55.5,18.75,30.9
0.0234375,0.53955078,0.37817383,0.50000199848926,0.4999554341520143,0.500019984718067,-1.5,25.65,19.35,0.59375,0.59765625,0.9743652349999999,0.5000422342626379,0.4999808813143078,0.49995250304606853,59.25,7.65,94.5,0.15136718999999998,0.49169922000000005,0.813964845,0.5001686041289969,0.500018052813118,0.5000229157367464,56.25,18.0,32.25
0.026367189999999995,0.5390625,0.379882815,0.49999713556563163,0.4999918062900271,0.5000444992636747,0.3,27.3,20.25,0.5920410150000001,0.5783691400000001,0.967285155,0.5000403024449553,0.5000063284766012,0.49994650766555504,59.25,7.65,94.5,0.15893554499999998,0.47802734500000005,0.8205566400000001,0.5001735337242027,0.5000305765976986,0.5000211171749521,56.4,18.6,31.35
0.016113279999999976,0.5300292950000001,0.377685545,0.49996902372190266,0.49998674352619943,0.5000341072242425,0.3,27.3,20.25,0.58984375,0.5703125,0.96435547,0.5000446991038741,0.5000291110447257,0.4999199280463764,59.55,7.5,92.55,0.16308593999999998,0.45751953,0.838378905,0.5001771309350576,0.499993405011622,0.5000137228257767,55.65,19.05,30.3
0.015625,0.5363769549999999,0.37890625,0.49999593643716905,0.49996595944733496,0.5000498284520127,-1.35,27.0,20.55,0.6027832049999999,0.5603027349999999,0.9670410150000001,0.5000508943245869,0.5000445658479856,0.49993451681726153,60.75,8.1,94.5,0.15722656499999998,0.462158205,0.822265625,0.5001963828766381,0.49999853444702713,0.4999856776536252,56.25,20.25,29.4
0.021240234999999986,0.5432128900000001,0.37915039,0.5000022649137703,0.4999943377155742,0.5000403024449553,-1.5,26.1,19.65,0.600097655,0.5524902349999999,0.958496095,0.5000616860444178,0.5000472304421547,0.4999267227876873,60.6,8.25,91.8,0.14990234500000002,0.443603515,0.8332519549999999,0.5001828598910607,0.4999613629482169,0.4999925390665136,56.25,20.25,29.4
0.03881835999999998,0.5439453150000001,0.384521485,0.499977950208362,0.5000114579120064,0.5000645505660527,-0.45,27.15,19.95,0.5847167950000001,0.5373535150000001,0.971191405,0.5000342403928644,0.5000716784034513,0.4999223262160351,60.6,8.25,91.8,0.14965820500000002,0.451660155,0.8278808599999999,0.5002196317094721,0.4999571661294976,0.49996642571204464,56.25,20.25,30.15
0.03369140499999997,0.541503905,0.38745117,0.5000074609334864,0.4999982680225168,0.5000438996558102,-0.45,27.15,19.95,0.5915527349999999,0.5241699200000001,0.9738769549999999,0.5000303767574993,0.5000758752221708,0.4999175964610287,61.8,8.85,92.7,0.14599609500000002,0.443603515,0.8317871099999999,0.5002183659966987,0.49994610798515626,0.49994550846455826,57.0,18.75,31.95
0.03759765499999997,0.5354003900000001,0.375976565,0.4999676248405072,0.5000446324322966,0.5000166539317226,-1.5,27.9,20.4,0.5744628900000001,0.53076172,0.9655761700000001,0.5000018652333716,0.5000379042752966,0.49992319216114345,58.95,9.15,93.15,0.150634765,0.45629883,0.82910156,0.5001857243254291,0.49998601074971294,0.49996023049133176,57.3,19.5,31.5
0.04052734500000003,0.53515625,0.37475586,0.49997348696513233,0.5000446991038741,0.500017986228807,-1.5,28.2,19.65,0.5856933599999999,0.5432128900000001,0.9592285150000001,0.499993271843,0.5000853346449172,0.4999433101350989,58.95,9.15,93.15,0.13256836,0.459472655,0.8405761700000001,0.5002040436503239,0.500016054323858,0.4999405122850415,56.4,20.1,30.0
0.025146484999999986,0.536621095,0.372314455,0.5000117910080942,0.500034840000729,0.5000401691890669,-1.05,27.3,20.55,0.5617675799999999,0.5456542950000001,0.9860839849999999,0.5000434999754114,0.500109582678748,0.4998697664982759,61.05,8.4,93.45,0.11499023499999998,0.483398435,0.841308595,0.5002131033926716,0.5000362388821243,0.4999469073459537,56.4,20.1,30.0
0.017333984999999986,0.540527345,0.354003905,0.49998707653502067,0.5000673484161101,0.5000163208356349,-2.25,27.45,21.45,0.5390625,0.49633789,1.0385742199999999,0.4999617626286156,0.5000945275558868,0.4999181959816267,61.35,8.25,92.85,0.109375,0.517578125,0.8347167950000001,0.5002484096581101,0.5000241148652089,0.4999647603188724,56.1,19.35,31.05
0.02075195500000001,0.5373535150000001,0.34057617,0.4999838790045646,0.5000496952833908,0.5000067948285775,-2.25,27.45,21.45,0.6027832049999999,0.6008300799999999,1.041259765,0.5000815375065966,0.5003597243143414,0.4998429869516315,60.15,7.5,92.25,0.09204101500000002,0.5390625,0.83691406,0.5002478101375121,0.5000752090299952,0.4999678912650175,57.6,20.25,30.9
0.002197265000000016,0.5305175799999999,0.33203125,0.5000093928384355,0.5000234486730334,0.5000321753192934,-2.25,27.9,19.95,0.6096191400000001,0.5515136700000001,1.001708985,0.5000177197170302,0.5002109050632122,0.499911134728539,60.15,7.5,92.25,0.10278320500000002,0.54248047,0.8239746099999999,0.5002317557263877,0.5000679479367082,0.4999704226905646,57.6,20.25,30.9
-0.005371095000000025,0.5283203150000001,0.326904295,0.49996575960713563,0.5000327082555805,0.5000091929982361,-0.75,28.2,19.35,0.62109375,0.626953125,1.0546875,0.5000299769898341,0.50000872664626,0.4999022749136571,60.9,8.55,92.55,0.09448241999999998,0.5515136700000001,0.827148435,0.5002198981339825,0.5001286347801293,0.49995443495101755,56.55,19.2,31.5
-0.0017089849999999843,0.5222167950000001,0.321289065,0.49998427868496326,0.5000292443006141,0.4999811477388181,-1.65,28.05,20.25,0.5754394549999999,0.596679685,1.0258789050000001,0.5000644173101643,0.49999713556563163,0.499866369040354,61.65,9.3,92.55,0.090820315,0.5495605450000001,0.8435058599999999,0.500165673023051,0.5001597442268485,0.49998188051530457,56.55,19.2,31.5
-0.016845704999999954,0.5244140650000001,0.325683595,0.5000123238571148,0.4999963361175678,0.4999965359577671,-1.65,28.05,20.25,0.5515136700000001,0.56640625,1.01147461,0.500048229730418,0.5000493621873031,0.4998812243230159,61.65,7.8,93.3,0.09814452999999998,0.544433595,0.837402345,0.500137761106788,0.5001797289449156,0.499993405011622,57.3,20.7,30.45
-0.007568359999999984,0.5187988299999999,0.3359375,0.500008660061949,0.5000063284766012,0.4999995336480239,-1.65,28.05,20.25,0.5520019549999999,0.578125,1.01171875,0.49999853444702713,0.5000525597177592,0.49991939511008926,60.15,8.25,93.3,0.09692383000000002,0.55517578,0.8161621099999999,0.5001020551609506,0.5001567465365917,0.5000087932305709,57.15,21.6,32.1
-0.00048827999999997475,0.5173339849999999,0.341552735,0.5000225827279251,0.4999946707243955,0.4999861439183349,-1.35,27.3,19.5,0.5573730450000001,0.5773925799999999,0.9982910150000001,0.4999887419281929,0.5000431002950128,0.4999567664490988,61.05,8.1,93.45,0.10986327999999998,0.560546875,0.8395996099999999,0.5000805383055997,0.5001209740064435,0.4999784831446491,56.25,19.2,30.15
0.0034179700000000254,0.5280761700000001,0.34765625,0.5000450987842727,0.49995743264127435,0.5000043299873413,-1.35,27.3,21.3,0.5598144549999999,0.5739746099999999,0.98486328,0.5000285781084386,0.500044166167587,0.4999221263758357,59.85,8.25,92.55,0.11279297000000002,0.5478515650000001,0.8249511700000001,0.5000614196199076,0.5000894647920591,0.500056156928614,57.45,20.1,29.25
0.0029296899999999935,0.5283203150000001,0.361083985,0.5000229824083238,0.4999762182308788,0.49998041504959817,-1.8,29.4,21.45,0.5651855450000001,0.5837402349999999,0.99609375,0.5000263797789792,0.5000952603323733,0.4999360490418118,59.85,8.25,92.55,0.115234375,0.5437011700000001,0.826660155,0.5000077940295742,0.5001150452102409,0.5000168537719218,56.55,19.95,29.1
0.017333984999999986,0.5393066400000001,0.36669922,0.5000212503435741,0.4999976018303413,0.49994137823014984,-1.5,26.7,19.95,0.5725097650000001,0.5866699200000001,0.9973144549999999,0.5000149218669728,0.5000624188209043,0.4999647603188724,61.8,7.35,93.45,0.11938476500000002,0.53564453,0.8112792950000001,0.5000010658725742,0.500116244251437,0.5000171201964322,57.6,18.75,29.1
0.02465820500000001,0.54345703,0.379882815,0.5000299769898341,0.499977284103453,0.4999756852945917,-1.5,26.7,19.95,0.5725097650000001,0.5859375,0.986816405,0.4999836791643652,0.5000452320401612,0.4999737534769091,61.5,7.35,92.4,0.13769531499999998,0.5322265650000001,0.8420410150000001,0.49995563399221365,0.5000981248540081,0.500009326166858,57.6,18.75,29.1
0.03051758000000001,0.545410155,0.38183594,0.5000031975304562,0.4999854111418484,0.49993618221043373,-2.7,28.8,19.8,0.5773925799999999,0.5832519549999999,0.9812011700000001,0.4999606967560414,0.5000770076790559,0.49999127335374005,62.7,7.5,92.55,0.12377929499999998,0.52001953,0.8371582049999999,0.4999481064744163,0.5000642840542759,0.49999034073705423,57.3,18.75,29.85
0.02807616999999999,0.5341796900000001,0.38305664,0.4999904739929426,0.5000093928384355,0.4999399793487544,-0.6,26.55,21.3,0.5778808599999999,0.564941405,0.978515625,0.4999326515838899,0.5000647504062521,0.49999067383314194,62.7,7.5,92.55,0.13525390499999998,0.5178222650000001,0.838867185,0.4999646937345614,0.500057489312965,0.5000211837592632,57.3,19.2,28.8
0.03125,0.5231933599999999,0.380126955,0.5000203843984657,0.5000225827279251,0.49993258499957893,-1.35,26.55,19.5,0.58154297,0.55419922,0.989746095,0.4999541684392408,0.5000647504062521,0.5000147886983509,60.9,8.55,91.8,0.13574218999999998,0.5041503900000001,0.8532714849999999,0.49994604131357884,0.5000516271010734,0.4999970023097432,57.9,20.1,30.0
0.01293945500000001,0.51098633,0.37451172,0.5000022649137703,0.5000697465857689,0.49993171896720406,-1.35,26.55,19.5,0.58642578,0.5510253900000001,0.993652345,0.49996322818158856,0.5000587549384721,0.5000183859092058,61.65,7.5,93.6,0.13037109500000002,0.50854492,0.8630371099999999,0.49996296175707816,0.5000469640176444,0.49997308728473366,57.45,20.1,27.9
0.013671875,0.51098633,0.376708985,0.5000106584639425,0.500068813969083,0.4999249242258932,-1.2,27.45,19.65,0.5861816400000001,0.5427246099999999,1.00805664,0.49996742500030783,0.5000764747427687,0.5000022649137703,63.3,8.4,93.45,0.13354491999999998,0.49365234500000005,0.86279297,0.4999689571375917,0.5000466309215567,0.4999993338078245,58.35,19.95,30.15
0.02075195500000001,0.5153808599999999,0.376953125,0.5000210505033748,0.5000472971137321,0.499963894373764,-2.25,26.4,20.7,0.5837402349999999,0.5439453150000001,1.0053710949999999,0.49997215466804784,0.5000630850130798,0.49999140660962843,63.3,8.4,93.45,0.12280273499999998,0.487060545,0.8708496099999999,0.49995250304606853,0.5000527595579586,0.4999822136113923,57.15,21.15,29.7
0.009521484999999984,0.513183595,0.38598633,0.5000057289560033,0.5000758085505933,0.4999537687588421,-0.3,26.25,19.8,0.58251953,0.5422363299999999,1.00756836,0.4999459747292679,0.5000652833425392,0.4999780168799394,62.55,6.15,90.9,0.11645508000000002,0.48413086,0.8786621099999999,0.49994444259198406,0.5000814042507081,0.499975352198504,57.15,21.15,29.7
0.023193359999999986,0.5119628900000001,0.387695315,0.49999067383314194,0.5000690803935933,0.4999576324814737,0.3,27.0,20.55,0.580566405,0.5446777349999999,1.013916015,0.4999642273825852,0.5000312427026077,0.5000065949883781,63.15,7.5,91.8,0.11230469,0.47705077999999995,0.881347655,0.49997008959447686,0.500062152396394,0.49996662555224397,56.7,19.8,28.95
0.029296875,0.5139160150000001,0.39501953,0.5000333077761786,0.5000625520767927,0.4999840788447639,0.3,27.0,20.55,0.58935547,0.5407714849999999,1.009521485,0.4999500382920989,0.5000386370517831,0.5000005329362871,62.25,7.35,93.45,0.122070315,0.47119140499999995,0.888183595,0.49997382006122004,0.5000593545463365,0.49997874965642586,56.7,19.8,28.95
0.04052734500000003,0.5197753900000001,0.39453125,0.5000416347420399,0.500075542126083,0.499975219029882,-1.35,27.75,19.2,0.5871582049999999,0.536621095,1.001708985,0.4999702894346762,0.4999774839436523,0.49999333842731103,62.25,7.35,93.45,0.1171875,0.501220705,0.8703613299999999,0.5000102587835439,0.5000321087349825,0.49999820135093936,58.05,18.75,29.85
0.044921875,0.5139160150000001,0.38232422,0.5000173867082089,0.5000515605167625,0.4999858109095136,-1.65,26.55,20.25,0.5842285150000001,0.548828125,1.00073242,0.4999770175916762,0.4999950704047942,0.4999807480584194,61.8,7.65,93.45,0.115234375,0.477783205,0.87939453,0.5000226493122361,0.5000397029243573,0.49997242109255813,56.7,20.55,27.9
0.04296875,0.5202636700000001,0.38623047,0.5000181860690064,0.5000303100859218,0.5000203177268884,-1.5,27.45,20.4,0.583984375,0.525878905,0.9987792950000001,0.49998174734668266,0.49997428641319624,0.4999830130594562,62.7,7.5,92.85,0.12158202999999998,0.49267577999999995,0.8703613299999999,0.5000257135868038,0.5000123905286922,0.49997288744453433,57.15,20.55,29.25
0.04199218999999999,0.5192871099999999,0.369873045,0.5000029311059457,0.5000673484161101,0.49997961560153426,-1.5,27.45,20.4,0.58203125,0.52685547,1.00073242,0.4999584318422711,0.4999769510073652,0.49997082237096335,62.7,7.5,92.85,0.13208008000000002,0.50732422,0.889160155,0.5000598208110463,0.5000111248159187,0.49999527033226004,58.35,19.95,29.4
0.04223633000000001,0.5207519549999999,0.375976565,0.5000337075438438,0.5000460979852696,0.5000023981696587,-0.6,28.5,20.55,0.5866699200000001,0.5334472650000001,1.0,0.49998081472999684,0.4999640942139633,0.49997628481518974,63.45,7.5,92.55,0.12182616999999998,0.49560547000000005,0.8649902349999999,0.5000634846934785,0.4999988009588039,0.5000050627638277,55.8,19.2,29.4
0.044921875,0.521484375,0.373779295,0.5000045964991181,0.5000302435016108,0.49998641043011166,-2.7,26.55,21.3,0.576171875,0.5490722650000001,0.99560547,0.49998887518408136,0.49994364314392015,0.49997508577399363,61.95,8.25,92.25,0.142822265,0.50097656,0.86425781,0.5000790061683159,0.4999495053558118,0.5000139226659761,56.1,19.2,28.8
0.01440429499999999,0.489990235,0.353271485,0.5000702795220558,0.49996416079827427,0.49999127335374005,-2.1,26.25,18.15,0.60644531,0.455322265,1.00878906,0.49993065318189633,0.4998560436724992,0.4999153981315693,61.65,7.5,92.85,0.12841797000000002,0.37817383,0.8581542950000001,0.500146421168737,0.4997601837322614,0.4999701561787878,58.35,18.75,28.35
0.011230470000000025,0.48095702999999995,0.36010742,0.5000438996558102,0.49995443495101755,0.49992785524457245,-2.1,26.25,18.15,0.6179199200000001,0.44458008,0.9943847650000001,0.49994517536847055,0.49988162400341457,0.4998818239308804,60.45,7.65,94.2,0.1484375,0.389404295,0.833984375,0.5002013123845774,0.4997970888065613,0.49997928250544654,59.85,18.75,29.4
0.023193359999999986,0.47509765499999995,0.365478515,0.5000684142014179,0.49994877257932535,0.49997495251810525,-3.15,24.75,19.2,0.6086425799999999,0.47338867,0.96972656,0.49997688442305427,0.4998629050853875,0.4998378576034928,61.35,7.5,94.65,0.15991211,0.424072265,0.8127441400000001,0.5002516071885662,0.49981793955700315,0.4999914731939394,57.0,19.95,28.35
0.024414064999999995,0.466796875,0.375976565,0.5000789394967384,0.4999440429115854,0.49996729174441945,-1.8,25.35,18.6,0.6164550799999999,0.47753906,0.94580078,0.49999726873425354,0.499897078893941,0.4998501148762966,61.35,7.5,94.65,0.165771485,0.45263672,0.795898435,0.5002658629506301,0.4998612396922153,0.5000024647539697,57.45,20.1,30.75
0.031005859999999986,0.47680664,0.380371095,0.5000893982077481,0.4999235252572312,0.49999766841465226,-2.25,26.4,17.85,0.616210935,0.49267577999999995,0.9401855450000001,0.5000213170151515,0.49993365087215313,0.499828264924858,61.95,8.25,94.65,0.17431640499999998,0.478271485,0.796875,0.5002724578517417,0.49989221597031264,0.49999160644982776,57.6,20.7,29.4
0.03051758000000001,0.47241211,0.37133789,0.500100789448177,0.49994384307138595,0.49998201377119295,-2.25,26.4,17.85,0.610839845,0.5168457049999999,0.9250488299999999,0.5000223828877257,0.49997248776413555,0.4998271990522838,60.15,7.8,95.4,0.20068359500000002,0.502441405,0.782714845,0.5002799854568055,0.49988695327901905,0.5000161209954355,56.55,19.5,30.45
0.03784179499999999,0.46923827999999995,0.37133789,0.5000967258853461,0.4999275222357512,0.4999910735135407,-2.55,25.35,18.3,0.599121095,0.53466797,0.9343261700000001,0.5000436998156108,0.4999704226905646,0.49980987901565227,60.15,6.3,92.55,0.19970702999999998,0.5393066400000001,0.78076172,0.500240615628536,0.4999564333530111,0.5000125903688916,55.65,18.3,28.95
0.04272460999999998,0.479248045,0.375,0.5001201745583796,0.49993578253003507,0.49999960031960133,-2.55,24.6,18.3,0.61425781,0.57080078,0.951171875,0.5000431668793237,0.4999966692136555,0.499852313205756,58.95,8.4,93.75,0.19018554499999998,0.5576171900000001,0.7858886700000001,0.5001664057995375,0.500013389729689,0.49998827566348325,55.65,18.3,28.95
0.04248047000000003,0.47583008,0.37841797,0.5001193086132713,0.4999426439429234,0.5000075941893748,-0.45,24.9,19.35,0.588378905,0.59423828,0.98925781,0.5000552909835057,0.5000685474573062,0.4998546447038373,59.55,6.75,93.3,0.173828125,0.56689453,0.799804685,0.5000551577276172,0.500024714385807,0.4999862105899123,56.1,20.1,28.2
0.03857422000000003,0.45703125,0.36352539,0.5001097159346364,0.49999766841465226,0.4999808813143078,-1.35,24.0,18.15,0.583984375,0.6066894549999999,0.9763183599999999,0.5000583552580733,0.5000185191650941,0.4999191285983125,60.0,6.6,94.5,0.15356445500000002,0.5622558599999999,0.8125,0.5000059287962025,0.500060153907134,0.4999952036606826,56.1,20.1,28.2
0.027832029999999976,0.475585935,0.345458985,0.500104919595319,0.5000170536121212,0.49997202141215946,-1.35,24.0,18.15,0.5944824200000001,0.6037597650000001,1.00756836,0.5000606201718436,0.4999870099507097,0.4999360490418118,60.0,6.6,94.5,0.11572265499999998,0.54736328,0.833984375,0.4999592312030685,0.5001101156150352,0.49996695864833174,56.55,20.25,30.9
0.020507814999999995,0.479248045,0.333007815,0.5001245712172983,0.4999970023097432,0.499984611781051,-1.35,24.0,18.15,0.5798339849999999,0.58935547,1.03833008,0.4999914731939394,0.49997035601898715,0.4999751523583046,60.75,7.35,94.2,0.08374023499999998,0.5256347650000001,0.8435058599999999,0.49998014853782136,0.5000959265245487,0.49996555976693624,57.9,20.1,30.3
-0.0024414049999999746,0.47583008,0.325683595,0.5000877993988868,0.5000213170151515,0.4999679578493285,-0.45,24.6,18.9,0.5703125,0.573242185,1.028320315,0.4999642273825852,0.4999805482182201,0.4999927389067129,60.0,5.7,93.45,0.056640625,0.5078125,0.8361816400000001,0.5000815375065966,0.5000580221619856,0.4999885420879936,57.9,19.8,29.25
-0.01098633000000001,0.48193359500000005,0.33105469,0.5000949272362856,0.4999775505279633,0.49999393794790903,0.6,24.0,19.5,0.5625,0.541015625,1.02758789,0.49995776573736206,0.4999880758232839,0.49999593643716905,60.45,8.85,93.75,0.06127929499999999,0.486083985,0.7854003900000001,0.5000866669420017,0.4999649601590717,0.5000213170151515,57.45,20.1,29.25
-0.001953125,0.46850586,0.317382815,0.5000871998782888,0.49999160644982776,0.500006728157,-1.8,25.65,19.65,0.5817871099999999,0.52392578,1.041015625,0.4999854111418484,0.4999847450369394,0.49998707653502067,60.45,6.6,93.75,0.06420898499999998,0.46923827999999995,0.834472655,0.5000677480965088,0.499986610270311,0.5000667488082455,57.45,20.1,29.25
0.0017089849999999843,0.463867185,0.302001955,0.5000564900247018,0.49999247239493616,0.49998794256739554,-1.8,25.65,19.65,0.5739746099999999,0.51123047,1.03515625,0.49998760947130777,0.4999766179112775,0.4999699563385885,60.15,7.8,94.35,0.07275390499999998,0.438964845,0.859375,0.5000252473220941,0.4999924058106252,0.5000916631215184,56.7,20.85,31.05
-0.020019530000000032,0.462646485,0.29370117,0.5000428338705024,0.49996089659624077,0.49995603367261243,-1.05,24.3,18.15,0.5979003900000001,0.509277345,1.0390625,0.5000007993607974,0.5000669487357113,0.4999831462280781,59.7,7.35,94.2,0.09765625,0.440429685,0.8645019549999999,0.5000358392017257,0.5000055291158039,0.5000840022605662,56.7,20.85,31.05
-0.041748045000000046,0.46801758,0.29736328,0.500073610221134,0.49994817305872724,0.500020051302378,-0.15,24.6,18.3,0.57373047,0.505859375,1.00097656,0.5000309096065199,0.5000512274206746,0.49994803980283886,59.7,7.35,94.2,0.11279297000000002,0.451416015,0.838867185,0.5000632181817017,0.49997788362405104,0.5000785398163398,56.7,20.85,31.05
-0.041748045000000046,0.47216797000000005,0.31542969,0.5000464976656682,0.4999522366215582,0.5000237151848103,-2.1,24.3,18.75,0.5886230450000001,0.52001953,0.9870605450000001,0.5000466309215567,0.5000283782682392,0.49994057886935245,60.75,6.15,94.5,0.11865234500000002,0.46948242,0.841308595,0.5000350398409282,0.49994044561346407,0.5000470306019553,57.3,19.5,29.4
-0.027832030000000032,0.471435545,0.345458985,0.5000141225061755,0.4999232588327209,0.5000125903688916,-1.2,23.85,19.35,0.5827636700000001,0.5227050799999999,0.9870605450000001,0.500087466302799,0.5000522266216714,0.49993778101929504,60.15,7.05,94.35,0.13256836,0.47607422000000005,0.8449707049999999,0.500005196019716,0.49996729174441945,0.5000010658725742,56.4,19.8,30.75
-0.0078125,0.48095702999999995,0.37011719,0.5000304433418102,0.4998966125419648,0.500076141646681,-1.2,23.85,19.35,0.5900878900000001,0.5537109400000001,1.00097656,0.5000907970891436,0.5000863338459139,0.4999355161055248,61.8,7.35,94.2,0.130859375,0.482421875,0.8488769549999999,0.499988608759571,0.49996382770218656,0.5000292443006141,58.8,19.5,30.15
0.004638669999999991,0.494140625,0.387695315,0.49997681775147684,0.4999109348883396,0.5000434999754114,-2.25,24.9,19.65,0.5969238299999999,0.5739746099999999,1.021728515,0.5000852679733397,0.500038037531185,0.4999435765596092,61.8,7.35,94.2,0.13305664,0.5129394549999999,0.8498535150000001,0.4999743529975072,0.4999894081203684,0.4999847450369394,58.2,20.1,29.7
0.03125,0.505371095,0.39868164,0.49994577488906855,0.4999387802202918,0.5000337741281548,-2.25,24.15,17.85,0.6057128900000001,0.588378905,1.0083007800000001,0.5000694800739921,0.5000335742879554,0.4999914731939394,61.05,7.35,93.75,0.14428711,0.5231933599999999,0.850097655,0.4999816140907943,0.5000295107251244,0.49995969755504466,57.0,19.5,30.9
0.03222656499999999,0.5078125,0.39819336,0.4999425773586124,0.49994977178032207,0.5000528928138469,-1.5,23.4,19.65,0.604003905,0.603027345,1.0014648449999999,0.5000259135142696,0.5000468307617559,0.49998687669482134,60.9,7.5,91.5,0.1328125,0.5334472650000001,0.8586425799999999,0.4999642273825852,0.5000319088947831,0.49998674352619943,56.1,19.35,30.0
0.019287109999999986,0.5095214849999999,0.384033205,0.4999216600238596,0.49999713556563163,0.5000392365723811,-1.5,23.4,19.65,0.6179199200000001,0.6003417950000001,1.0190429699999999,0.5000163874199458,0.5000173200366316,0.5000015321372838,60.9,7.5,91.5,0.12182616999999998,0.5202636700000001,0.86035156,0.49999453755577355,0.5000031975304562,0.49995583383241304,56.1,19.35,30.0
0.013916015000000016,0.5078125,0.377685545,0.49990380705094095,0.5000067948285775,0.500053425750134,-1.35,24.3,18.45,0.61279297,0.59033203,1.01586914,0.500036105626236,0.4999942710439968,0.5000156546434593,61.05,6.6,93.45,0.119140625,0.5197753900000001,0.84814453,0.5000151217071722,0.4999792159211356,0.4999434433037208,56.1,19.35,29.7
0.01171875,0.50732422,0.36694336,0.4999165305884545,0.49997035601898715,0.500048895835327,-1.35,24.75,19.2,0.5954589849999999,0.5778808599999999,1.0024414050000001,0.5000007327764865,0.5000049961795168,0.5000227825681245,60.0,7.65,93.75,0.123046875,0.50073242,0.8479003900000001,0.5000460314009586,0.4999962695332568,0.4999561669285008,56.1,19.35,29.7
0.020996095000000024,0.49926758,0.35888672,0.4999169303561196,0.5000159211552361,0.4999844785251626,-1.8,25.35,19.95,0.5935058599999999,0.556640625,0.9792480450000001,0.4999877427271962,0.5000392365723811,0.5000065283168006,60.0,6.15,93.15,0.11621094,0.498779295,0.849121095,0.5000793391771372,0.4999804816339091,0.4999830130594562,57.45,20.55,29.7
0.021484375,0.5036621099999999,0.35449219,0.49990480625193773,0.500002664594169,0.49999114009785167,-1.2,25.35,19.35,0.5803222650000001,0.52685547,0.970703125,0.499983945676142,0.5000227825681245,0.49998361258005425,60.0,6.15,93.15,0.12597656499999998,0.48974609500000005,0.83984375,0.5000847350370526,0.4999613629482169,0.5000069279971994,56.25,18.75,29.4
