IMU1_AccX,IMU1_AccY,IMU1_AccZ,IMU1_GyrX,IMU1_GyrY,IMU1_GyrZ,IMU1_MagX,IMU1_MagY,IMU1_MagZ,IMU2_AccX,IMU2_AccY,IMU2_AccZ,IMU2_GyrX,IMU2_GyrY,IMU2_GyrZ,IMU2_MagX,IMU2_MagY,IMU2_MagZ,IMU3_AccX,IMU3_AccY,IMU3_AccZ,IMU3_GyrX,IMU3_GyrY,IMU3_GyrZ,IMU3_MagX,IMU3_MagY,IMU3_MagZ
0.008789064999999993,0.5915527349999999,0.40551758,0.49978309955627426,0.5000844686125423,0.5000461646568469,1.05,30.6,20.85,0.532714845,0.6081542950000001,1.0073242199999999,0.4999710222111627,0.5000164540915232,0.5001516171884531,63.15,10.8,92.85,0.07104491999999998,0.47680664,0.81201172,0.4998405887819728,0.5000863338459139,0.49995983081093304,57.6,22.2,26.25
0.0017089849999999843,0.60253906,0.39526367,0.49982986373371924,0.5001123805288055,0.5000586883541611,1.05,30.6,20.85,0.5305175799999999,0.60986328,1.01098633,0.4999864770144226,0.4999968690538548,0.5001587450258517,61.65,12.45,92.55,0.072265625,0.462158205,0.813964845,0.49984864932332373,0.5000752090299952,0.4999217266081706,58.2,19.8,28.65
0.012695314999999993,0.618652345,0.393066405,0.49980075268899354,0.5001569463767911,0.500038104115496,-0.15,29.7,21.75,0.5378417950000001,0.5910644549999999,1.00366211,0.49995636676870014,0.5000351064252392,0.5001581455052537,62.85,11.4,92.4,0.07788085999999998,0.463378905,0.8117675799999999,0.49983752450740504,0.5000277120760638,0.4999508376528963,57.9,19.35,27.9
0.003662109999999984,0.6198730450000001,0.385253905,0.4997838323327607,0.5001592112905614,0.5000136562414658,0.3,30.3,23.25,0.5383300799999999,0.5788574200000001,1.0063476550000001,0.4999608300119298,0.5000165872601451,0.5001447557755647,61.95,10.5,92.55,0.08178710999999998,0.45336914,0.810058595,0.49986190579712436,0.5000013989686619,0.49993904673206857,55.65,20.55,27.15
0.020507814999999995,0.596191405,0.381591795,0.49985284614204306,0.5001925857383175,0.5000605535875327,1.05,29.85,24.0,0.5419921900000001,0.5622558599999999,0.9921875,0.49993451681726153,0.5000089930707703,0.5001424908617944,61.95,10.5,92.55,0.09521484500000002,0.450683595,0.8015136700000001,0.4998724310924449,0.4999540351833524,0.4999595642991563,58.8,19.95,27.3
0.02026366999999999,0.588378905,0.373046875,0.49982939738174315,0.5002093062543509,0.49999007431254394,0.15,30.9,21.75,0.54736328,0.54296875,0.9904785150000001,0.49994390965569696,0.4999922725547368,0.500100789448177,61.65,10.5,92.55,0.09643554499999998,0.44238281,0.8015136700000001,0.4999038736352519,0.4999421110066363,0.4999694900738788,58.8,19.95,27.3
0.027099609999999986,0.5886230450000001,0.37817383,0.49986010723533014,0.5002016454806651,0.499975219029882,0.15,30.9,21.75,0.5578613299999999,0.549316405,0.982421875,0.4999175298767177,0.5000785398163398,0.5000878659831978,62.25,11.4,93.15,0.10034179499999998,0.44458008,0.8029785150000001,0.4999162641639442,0.4999215934395486,0.49997488593379424,56.55,19.5,27.0
0.02734375,0.591308595,0.37084961,0.4998986776155358,0.5001849249646316,0.5000234486730334,-0.6,30.3,22.35,0.5632324200000001,0.5388183599999999,0.98876953,0.49996262866099045,0.499967225072842,0.5000676148406205,60.9,9.3,93.3,0.09716797000000002,0.43676758,0.8117675799999999,0.49989161636244805,0.4999417113262376,0.49998534455753746,57.3,21.0,27.75
0.03417968999999999,0.5837402349999999,0.37573242,0.49991333305799834,0.5001950504922871,0.499977284103453,0.15,30.45,22.8,0.564941405,0.55810547,1.002685545,0.4999203277267751,0.5000378376909856,0.5000810045703094,63.15,11.25,91.8,0.10766601500000002,0.434570315,0.810058595,0.4998775605278501,0.49992638977886605,0.4999427771988118,57.3,21.0,27.75
0.03930664000000002,0.5915527349999999,0.373535155,0.49992185986405896,0.5001753989575742,0.4999744862533956,2.1,29.85,22.65,0.5471191400000001,0.5578613299999999,1.0004882800000001,0.4999308530220957,0.4999729540288453,0.5000835359958565,59.85,11.25,91.8,0.09814452999999998,0.43725586,0.811035155,0.4998592412029553,0.49993278483977827,0.49993051992600795,57.15,20.1,27.9
0.04394531499999999,0.580566405,0.37548828,0.4999631615972775,0.5001432235510144,0.49997082237096335,2.1,29.85,22.65,0.5595703150000001,0.5710449200000001,1.015625,0.49991772971691706,0.4999541684392408,0.5000565566962792,62.4,12.0,92.85,0.10400390499999998,0.415039065,0.833496095,0.4998653698393572,0.4999551010559266,0.49993378404077504,57.15,20.1,27.9
0.03808593999999999,0.58544922,0.3671875,0.49995743264127435,0.5001390934038724,0.49993591578592345,1.2,30.45,20.4,0.5544433599999999,0.5615234400000001,1.0190429699999999,0.4999229923209441,0.49996156278841625,0.5000537588462217,62.4,12.0,92.85,0.08813476500000002,0.396240235,0.841308595,0.49989807809493775,0.49994044561346407,0.49993917990069053,57.6,19.95,28.35
0.03417968999999999,0.584472655,0.35986328,0.49996915697779104,0.5001221730476396,0.49994470901649435,0.45,31.2,20.7,0.55126953,0.557128905,1.02807617,0.4998850214613365,0.4999216600238596,0.5000083269658613,62.25,11.4,93.75,0.08105469,0.39111328,0.8474121099999999,0.49993205206329183,0.49992339200134284,0.49988488820544813,58.35,20.25,27.3
0.022949220000000024,0.5739746099999999,0.36303711,0.49998041504959817,0.5000546247913301,0.4999748192622168,0.45,31.95,22.5,0.561035155,0.53076172,1.040283205,0.4998611064363269,0.49990134229697125,0.5000307097663205,61.35,11.25,92.25,0.07885741999999998,0.368408205,0.84326172,0.49996289508550074,0.499897678414539,0.49988981780065395,57.6,19.95,28.35
0.013183595000000025,0.5803222650000001,0.36010742,0.5000161875797464,0.5000406355410432,0.49995410185492983,0.45,29.7,21.45,0.56591797,0.5163574200000001,1.04223633,0.4998206041511722,0.4998832228122759,0.49999920063920256,63.15,10.5,92.55,0.06982422000000002,0.369140625,0.8356933599999999,0.5000095260070574,0.4998631715098979,0.4998897511290765,58.2,19.8,28.65
0.01953125,0.5837402349999999,0.376708985,0.500042634030303,0.500010791719831,0.49993698165849765,0.45,29.7,21.45,0.569335935,0.5080566400000001,1.0278320300000001,0.4997992205517097,0.499875695207212,0.4999910735135407,63.15,10.5,92.55,0.08618164000000002,0.360839845,0.82373047,0.5000115244963174,0.49985471128814823,0.49986843411392495,58.05,19.5,28.05
0.015380859999999984,0.5725097650000001,0.383789065,0.500092995418603,0.4999730207004227,0.4999283881808596,0.45,30.9,22.5,0.5847167950000001,0.491210935,1.005859375,0.49980148546548003,0.4998779602082488,0.4999570995451866,62.25,11.1,91.95,0.10375976500000002,0.372070315,0.8142089849999999,0.5000386370517831,0.4998544448636379,0.4998914165222487,58.95,19.35,27.45
0.00854491999999999,0.557128905,0.39526367,0.5000826033791707,0.4999696899140782,0.49991966153459966,0.15,31.95,19.95,0.59423828,0.482666015,0.9807128900000001,0.49978409875727103,0.49989814467924876,0.49993711482711956,62.25,10.35,93.45,0.12622070500000002,0.38964844,0.811523435,0.5000671485759107,0.4998742297415056,0.4998775605278501,58.95,19.35,27.45
0.01879883000000001,0.55908203,0.40576172,0.5001326316713828,0.4999318522230925,0.4999243246180286,-1.8,30.15,21.45,0.5944824200000001,0.47509765499999995,0.95703125,0.49981727336482773,0.4999129333775996,0.49989801151062674,62.25,10.35,93.45,0.16479491999999998,0.399902345,0.8078613299999999,0.5000969257255454,0.4998752955268133,0.49993818069969376,57.15,19.8,27.9
0.023681640000000014,0.55126953,0.415283205,0.5001578124091659,0.49989328175562037,0.49993711482711956,-1.8,30.15,21.45,0.6135253900000001,0.487060545,0.9453125,0.49984864932332373,0.499944509176295,0.4998706324433843,63.15,10.8,93.6,0.16772461,0.42602539,0.815429685,0.500109049742461,0.49991073504814026,0.499970689115075,57.45,19.8,28.95
0.03417968999999999,0.5529785150000001,0.41430664,0.500177797127233,0.49989115009773843,0.49989967690379905,-0.45,28.95,22.5,0.6120605450000001,0.4921875,0.9616699200000001,0.4998648369030701,0.5000366385625231,0.4998290642856554,62.85,9.6,92.4,0.17163086,0.446533205,0.8225097650000001,0.5001169770279235,0.4999165305884545,0.4999788828250478,56.4,18.6,28.65
0.03222656499999999,0.54296875,0.42114258,0.5001854579009187,0.49990880323045767,0.4999141990903732,-0.6,30.3,22.35,0.623046875,0.506591795,0.9567871099999999,0.49990787061377195,0.49998547781342584,0.49984918225961084,61.5,9.9,93.75,0.170166015,0.455810545,0.82128906,0.5001318323105853,0.49995110416467303,0.4999838790045646,58.2,18.6,29.7
0.04663085999999998,0.5344238299999999,0.42504883,0.5002378843627896,0.4998726975169553,0.4999344502329506,0.15,29.7,22.5,0.5935058599999999,0.5144042950000001,0.97265625,0.4999313192868054,0.5000145888581515,0.49982320216103027,61.5,9.9,93.75,0.15551758000000002,0.467773435,0.830078125,0.5001263031947816,0.49998641043011166,0.4999795490172233,57.0,19.2,28.05
0.030273439999999995,0.529296875,0.41381836,0.5002278254194451,0.4999096025912551,0.4998882855761036,0.75,28.65,21.0,0.6018066400000001,0.5322265650000001,0.994140625,0.4999568331206763,0.4999910069292297,0.49982087057568253,60.0,9.6,93.45,0.15673827999999998,0.49145508,0.837402345,0.5001240382810113,0.4999832128996555,0.5000137228257767,58.5,19.05,30.0
0.025146484999999986,0.5231933599999999,0.424316405,0.5002412151491341,0.49990294101856614,0.4999167305159203,-1.2,29.4,22.5,0.6037597650000001,0.545410155,1.006835935,0.5000019318176826,0.4999822802829697,0.49981400916279417,62.55,8.4,91.95,0.12963866999999998,0.4921875,0.8493652349999999,0.5000673484161101,0.5000170536121212,0.5000280451721515,58.5,19.05,30.0
0.016113279999999976,0.52294922,0.412353515,0.500283382827461,0.499901808561681,0.49994564163318017,0.45,29.7,22.5,0.5891113299999999,0.557128905,1.017822265,0.5000147220267734,0.4999513040048724,0.49983446014557087,62.55,8.4,91.95,0.11743164000000002,0.47753906,0.8620605450000001,0.5000775406153429,0.5000245811299187,0.5000219165357496,57.45,17.85,29.7
0.013916015000000016,0.533203125,0.42211914,0.5002836493392377,0.4999389800604912,0.4999350497535486,1.35,27.75,21.9,0.5812988299999999,0.56298828,1.02416992,0.4999950704047942,0.4999503047166092,0.49983359420046247,61.95,7.8,92.25,0.08374023499999998,0.46020508,0.8562011700000001,0.5001055857874944,0.5000129900492903,0.4999714884758723,57.45,17.85,29.7
0.01171875,0.5341796900000001,0.430664065,0.500284848380434,0.49995743264127435,0.49992592342688996,0.15,28.95,22.8,0.58154297,0.556640625,1.018310545,0.49998840891937163,0.4999257235866905,0.4998440528242057,62.85,8.1,93.15,0.08642577999999998,0.45703125,0.8444824200000001,0.5001001232560016,0.4999994004794019,0.49998294638787877,58.05,20.25,29.4
0.014160154999999975,0.5324707049999999,0.42895508,0.5003200214772506,0.4999317856387815,0.49998601074971294,0.15,28.95,22.8,0.5859375,0.5634765650000001,1.013671875,0.49997022285036524,0.4999245911298054,0.4998499816204082,61.05,9.15,93.15,0.08129883000000002,0.439208985,0.84423828,0.5000846684527417,0.4999533024068659,0.49998547781342584,57.9,18.6,29.25
-0.0034179700000000254,0.53076172,0.41381836,0.5002917097933223,0.4999382472840047,0.4999489724195247,0.45,29.4,22.8,0.5935058599999999,0.56298828,1.002929685,0.49998307964376715,0.4999455750488692,0.49987249767675584,61.05,9.15,93.15,0.09619140499999998,0.450439455,0.8435058599999999,0.5000697465857689,0.49991000227165383,0.5000183859092058,57.9,18.6,29.25
-0.008789060000000007,0.525878905,0.40527344,0.5002685942163765,0.49991639741983257,0.49999453755577355,1.5,27.9,22.05,0.587890625,0.5681152349999999,1.00073242,0.49996649238362206,0.49993051992600795,0.4998772940160733,61.05,9.15,93.15,0.118164065,0.46069336,0.8488769549999999,0.5000383706272727,0.4999155313874577,0.4999870099507097,57.3,19.5,28.35
-0.014404295000000048,0.525878905,0.40698242,0.5002724578517417,0.49988628717411004,0.4999980681823174,0.45,28.2,22.05,0.599121095,0.577148435,1.00878906,0.4999481064744163,0.49990727109317384,0.4998984111910255,61.5,9.6,93.45,0.12255859500000002,0.46801758,0.8552246099999999,0.500035439521327,0.4999426439429234,0.49996715848853107,57.9,19.35,28.95
-0.012451170000000048,0.5217285150000001,0.41308594,0.500216500763327,0.4998994770635997,0.49996436063847366,0.45,28.2,22.05,0.59765625,0.580566405,1.00488281,0.4999389134761802,0.4999174632051403,0.4998607067559282,62.55,8.4,93.45,0.1171875,0.48461914,0.85888672,0.5000407687969315,0.49995829858638274,0.4999682909454162,56.7,19.35,28.2
0.003662109999999984,0.5241699200000001,0.42163086,0.5001887220156858,0.4998888185123907,0.49997628481518974,1.2,28.2,22.5,0.5974121099999999,0.5744628900000001,0.99951172,0.4999489724195247,0.4999317856387815,0.49988069138672875,61.65,10.05,92.85,0.11938476500000002,0.48852539,0.850097655,0.5000756753819714,0.49995603367261243,0.4999570995451866,57.15,17.85,28.2
0.008789064999999993,0.5217285150000001,0.41723633,0.5001795291047162,0.49988388900445135,0.5000029976902568,0.3,27.3,21.6,0.59375,0.5773925799999999,0.9895019549999999,0.4999215267679712,0.49992632310728863,0.49987609497487717,60.9,8.55,92.55,0.12133789000000002,0.49853515499999995,0.8464355450000001,0.500044099583276,0.49990433998722805,0.49995276955784534,57.15,17.85,28.2
0.008300779999999975,0.521484375,0.415283205,0.5001620758121962,0.499868367529614,0.49999054057725356,0.75,28.2,21.6,0.58251953,0.5812988299999999,0.9909667950000001,0.499931119446606,0.4999269892994641,0.49992965389363314,61.95,7.5,94.05,0.12524414,0.505126955,0.842773435,0.5000576891531644,0.4999134663138867,0.49995456811963945,57.15,19.35,28.65
-0.001953125,0.5227050799999999,0.427734375,0.5001305000135009,0.4999185290777145,0.4999751523583046,0.75,28.2,21.75,0.5852050799999999,0.5615234400000001,1.0053710949999999,0.4999389134761802,0.49991546480314675,0.49991906201400155,62.25,9.15,94.5,0.12158202999999998,0.5002441400000001,0.8449707049999999,0.5000362388821243,0.4999360490418118,0.4999588315226698,57.15,19.35,28.65
-0.007568359999999984,0.52294922,0.427490235,0.5001451554559634,0.4999251906504035,0.499979882113311,1.35,26.55,21.3,0.5959472650000001,0.55908203,1.00708008,0.49997308728473366,0.49994530853709246,0.49993558268983573,62.25,9.15,94.5,0.12890625,0.49633789,0.84375,0.5000111914002296,0.4999431768792105,0.49995776573736206,58.2,17.85,29.25
-0.016113280000000032,0.52294922,0.435058595,0.5001335642880687,0.49993764776340666,0.5000053292756045,1.35,26.55,21.3,0.59423828,0.5671386700000001,1.00805664,0.4999439762400079,0.499893148499732,0.4999389134761802,60.6,7.05,93.6,0.12182616999999998,0.486572265,0.84082031,0.5000109249757193,0.49995663319321043,0.49998887518408136,57.45,17.55,30.0
-0.011962890000000016,0.51220703,0.4375,0.5001067182443797,0.49996635912773363,0.4999594311305343,1.65,27.0,21.6,0.607910155,0.5498046900000001,1.01098633,0.49996562635124725,0.49992265922485635,0.4999678912650175,62.4,8.25,92.85,0.12402344,0.47216797000000005,0.8361816400000001,0.500011258071807,0.499970689115075,0.4999962029489458,57.6,19.5,29.4
-0.007080080000000009,0.5095214849999999,0.43823242,0.500096192949059,0.49992805508477184,0.4999583652579601,1.5,26.7,22.5,0.6032714849999999,0.5466308599999999,0.9826660150000001,0.4999934716831994,0.4999321186476028,0.4999613629482169,61.5,7.65,93.75,0.12768554499999998,0.47216797000000005,0.82910156,0.5000370382429218,0.49994410949589635,0.49997335370924395,57.3,18.0,29.4
0.0026855449999999906,0.517578125,0.43286133,0.5000804716340224,0.4999435765596092,0.4999927389067129,0.6,26.25,22.35,0.603027345,0.5559082049999999,0.9704589849999999,0.49999980015980067,0.4999221263758357,0.49997082237096335,62.55,9.6,93.45,0.140625,0.466796875,0.82470703,0.5000336408722663,0.4999407121252408,0.49999393794790903,57.0,18.75,30.15
0.004394529999999975,0.52294922,0.420654295,0.5000356393615264,0.4999919395459155,0.4999707556993859,0.6,26.25,22.35,0.606933595,0.5524902349999999,0.9763183599999999,0.49999353826751036,0.49997475267790586,0.4999608300119298,60.9,7.5,94.05,0.14599609500000002,0.45727539,0.8327636700000001,0.5000612863640191,0.4999742197416188,0.5000069946687767,57.15,19.05,30.3
0.004394529999999975,0.5241699200000001,0.423583985,0.5000252473220941,0.49999247239493616,0.4999670252326427,0.75,27.9,21.45,0.60253906,0.546875,0.99267578,0.5000013322970845,0.49995796557756145,0.49996649238362206,61.35,7.8,95.1,0.13378906499999998,0.45629883,0.84082031,0.500057489312965,0.4999902741527433,0.49998427868496326,57.15,19.05,30.3
0.012207029999999975,0.533691405,0.428222655,0.5000055291158039,0.4999805482182201,0.4999687572973924,0.75,25.65,21.45,0.5949707049999999,0.5390625,0.9978027349999999,0.49999473739597294,0.4999585650981595,0.49995689970498725,61.35,7.8,95.1,0.122070315,0.447265625,0.8474121099999999,0.5000474969539315,0.5000077274452632,0.49996622587184525,56.7,19.8,30.3
0.022949220000000024,0.5344238299999999,0.430664065,0.49996109643644016,0.5000161209954355,0.4999381141153828,1.8,25.65,22.5,0.595214845,0.54736328,1.01245117,0.5000071278373986,0.49995250304606853,0.49997928250544654,60.75,6.6,94.2,0.10864258000000002,0.43432617,0.8630371099999999,0.5000644838944752,0.4999590313628692,0.49995610034418986,57.0,19.5,31.2
0.022949220000000024,0.521972655,0.423828125,0.4999762182308788,0.5000407687969315,0.4999689571375917,2.1,27.0,22.35,0.59423828,0.5349121099999999,1.0209960949999999,0.49998401226045297,0.4999215934395486,0.49997868298484843,62.25,8.85,92.7,0.10595702999999998,0.42480469,0.8469238299999999,0.5000913966097417,0.4999262565229777,0.49999127335374005,57.3,20.25,29.4
0.00390625,0.515625,0.41821289,0.49996262866099045,0.5000364387223237,0.5000015988088613,2.1,27.0,22.35,0.5876464849999999,0.5134277349999999,1.0112304699999999,0.4999852779732265,0.49996595944733496,0.499947173770464,61.35,7.5,94.05,0.106445315,0.42651367,0.8356933599999999,0.500127635491866,0.49989548008507967,0.49996089659624077,57.0,19.5,30.15
-0.013427734999999984,0.49267577999999995,0.40283203,0.4999334510319538,0.5000480964745295,0.499977284103453,1.2,26.4,21.75,0.588378905,0.5163574200000001,0.997558595,0.4999919395459155,0.49997768378385166,0.4999554341520143,61.35,7.5,94.05,0.119140625,0.420654295,0.823242185,0.5001539486865344,0.49991979479048804,0.49999187287433805,56.1,18.3,28.65
-0.009277345000000025,0.494384765,0.39819336,0.4999788828250478,0.5000122572728039,0.499975885134791,0.6,28.5,20.85,0.5949707049999999,0.51074219,0.9929199200000001,0.500002598009858,0.5000102587835439,0.4999509043244737,60.75,7.65,93.45,0.12573241999999998,0.43798828,0.802734375,0.5001802618812026,0.4999174632051403,0.4999966692136555,57.3,18.75,30.45
-0.006347654999999975,0.49584961,0.391845705,0.499975951719102,0.4999954701724594,0.5000099923590335,1.2,26.4,23.55,0.60253906,0.486572265,0.9514160150000001,0.5000546914629076,0.4999946707243955,0.4999219265356364,60.6,8.25,92.85,0.13745116999999998,0.44970703,0.799804685,0.5001949173236652,0.4999276554043731,0.5000050627638277,57.3,18.75,30.45
-0.001953125,0.49658202999999995,0.390625,0.49996436063847366,0.5000061286364019,0.5000013989686619,1.2,26.4,23.55,0.5803222650000001,0.5227050799999999,0.971679685,0.5000226493122361,0.49999780167054064,0.4999622289805918,60.6,8.25,92.85,0.13574218999999998,0.466552735,0.798828125,0.500209173085729,0.4999798154417336,0.5000304433418102,56.55,19.2,30.15
0.0009765649999999937,0.49609375,0.388183595,0.4999750191024162,0.49999453755577355,0.500003464042233,1.5,26.1,22.05,0.583984375,0.5224609400000001,0.9765625,0.5000508943245869,0.5000356393615264,0.4999401125173763,62.25,8.1,93.45,0.13720702999999998,0.458984375,0.8078613299999999,0.5001989142149187,0.5000293108849251,0.49999680246954387,56.55,19.2,30.15
-0.0017089849999999843,0.5095214849999999,0.38745117,0.49997788362405104,0.49998720979090905,0.500020117886689,2.4,25.8,21.9,0.5930175799999999,0.5341796900000001,0.970703125,0.5000887985998836,0.5000702795220558,0.49993618221043373,62.4,7.5,94.35,0.14184570500000002,0.471679685,0.814941405,0.5001638077896795,0.5000383706272727,0.4999876761428852,56.4,18.6,30.15
0.007568359999999984,0.517578125,0.38745117,0.4999488391636363,0.5000209173347528,0.5000140559218645,2.1,26.25,21.3,0.5646972650000001,0.5485839849999999,1.0151367199999999,0.5000909969293429,0.5001418246696189,0.49993065318189633,61.05,8.4,94.8,0.1328125,0.46948242,0.8161621099999999,0.5001573460571898,0.5000337741281548,0.5000141890904864,56.7,18.6,30.3
0.00903320500000001,0.5236816400000001,0.392089845,0.4999469073459537,0.4999989341274258,0.5000387703076715,1.65,26.25,22.65,0.564941405,0.548828125,1.01586914,0.5000670819043334,0.5000774073594546,0.499904406571539,61.05,8.4,94.8,0.12524414,0.46801758,0.80908203,0.5001446891039872,0.5000704793622552,0.4999631615972775,56.7,19.35,29.7
0.005126955000000009,0.5234375,0.37451172,0.4999393131565789,0.5000237817691212,0.5000634846934785,1.65,26.25,22.65,0.5615234400000001,0.5383300799999999,1.010498045,0.500046697593134,0.5000217166955503,0.49993558268983573,61.05,7.35,93.15,0.10400390499999998,0.45385742,0.81738281,0.5001465543373589,0.5000704793622552,0.4999856776536252,58.2,19.05,30.0
-0.0048828100000000065,0.536621095,0.37109375,0.4999383805398931,0.5000413016459521,0.5000407021253541,2.1,25.8,21.6,0.5739746099999999,0.5476074200000001,1.002685545,0.5000431002950128,0.5000532259099346,0.4999281883406603,61.5,7.35,93.45,0.09716797000000002,0.459228515,0.82080078,0.5001544150385104,0.500086866782201,0.4999818139309936,57.45,20.85,30.3
-0.014160155000000032,0.5339355450000001,0.369628905,0.49994124506152793,0.500011324656118,0.5000512940049857,3.0,27.15,22.8,0.56982422,0.544433595,1.00805664,0.5000431002950128,0.5000486959951276,0.499928521436748,61.5,7.35,93.45,0.08740234500000002,0.45727539,0.825683595,0.5001281684281531,0.5000491623471037,0.49995829858638274,56.7,19.05,30.75
0.006347654999999975,0.53466797,0.37036133,0.4999473070263524,0.5000170536121212,0.500064150885654,1.8,26.7,21.0,0.53564453,0.5334472650000001,1.005615235,0.5000364387223237,0.5000331079359792,0.49993831395558214,60.9,7.8,92.85,0.08105469,0.452148435,0.821777345,0.5001668721515137,0.5000215834396619,0.4999792159211356,58.35,19.2,29.4
0.00048827999999997475,0.5187988299999999,0.372070315,0.49993138587111635,0.5000418345822393,0.49999960031960133,1.8,26.7,21.0,0.5476074200000001,0.5234375,0.99609375,0.5000385704674721,0.5000644838944752,0.4999439762400079,60.75,6.9,94.2,0.08496094,0.450683595,0.818847655,0.5001853912293414,0.5000244479612966,0.5000101256149219,58.35,19.2,29.4
0.002197265000000016,0.501220705,0.36328125,0.49997668449558846,0.5000121906884929,0.5000235819289219,1.2,27.45,22.5,0.5437011700000001,0.5036621099999999,1.002929685,0.5000406355410432,0.5000582886737623,0.49992652294748796,61.8,6.9,92.4,0.07666015499999998,0.443115235,0.8234863299999999,0.5002110383191006,0.49998241345159167,0.5000283782682392,58.05,19.2,29.1
-0.006591794999999991,0.494384765,0.36645508,0.49997082237096335,0.5000197848778677,0.5000531592383572,2.1,26.55,21.6,0.546875,0.50488281,1.018310545,0.5000647504062521,0.5000544915354418,0.4998878193113939,61.8,6.9,92.4,0.09350585999999998,0.44189453,0.83935547,0.5001732006281149,0.49996542651104786,0.5000262465230909,58.05,19.2,29.1
-0.016357420000000046,0.510498045,0.36669922,0.4999694234023014,0.5000768744231675,0.5000399693488676,0.45,26.1,20.7,0.5446777349999999,0.5280761700000001,1.0200195300000001,0.5000670153200223,0.500036105626236,0.4998916830340255,61.8,6.9,92.4,0.08447265499999998,0.44628906,0.85498047,0.5001560804316827,0.4999766179112775,0.500017919644496,57.0,19.95,29.1
-0.01098633000000001,0.524902345,0.369873045,0.5000091929982361,0.5000489625069043,0.5000629517571914,1.05,27.3,21.6,0.5544433599999999,0.5458984400000001,1.03442383,0.5000994571510926,0.5000055957001148,0.4999008093606842,61.65,7.5,92.85,0.109375,0.463623045,0.8493652349999999,0.5001440895833892,0.4999704226905646,0.5000509609088979,57.0,19.5,27.3
-0.009277345000000025,0.5593261700000001,0.384033205,0.5000544915354418,0.5000391034037592,0.5000923958980048,1.05,27.3,21.6,0.573242185,0.5539550799999999,1.013671875,0.5000610865238199,0.49999114009785167,0.4998936148517081,61.5,8.1,94.5,0.107421875,0.46875,0.8381347650000001,0.5001115145836971,0.49995363550295374,0.5000156546434593,57.15,20.1,29.25
0.01171875,0.5681152349999999,0.396972655,0.5000244479612966,0.5000603537473334,0.5000733437966236,1.05,27.3,22.65,0.580078125,0.5517578150000001,0.99169922,0.5000279785878405,0.4999794823456459,0.49987536219839074,61.8,8.4,93.45,0.11499023499999998,0.49633789,0.8410644549999999,0.5001384272989634,0.49993957966835567,0.5000079272854626,57.0,19.95,30.15
0.023681640000000014,0.5625,0.41870117,0.5000241148652089,0.5000792725928263,0.5000235153446109,1.5,25.65,23.1,0.5925292950000001,0.56689453,0.9943847650000001,0.5000483628990399,0.4999776171122743,0.4998877526398165,60.6,8.55,93.6,0.126708985,0.50097656,0.838867185,0.5001536155904466,0.4999723545082472,0.5000115910806283,57.0,19.95,30.15
0.03125,0.5329589849999999,0.42578125,0.5000349731693509,0.5000792060085153,0.5000267128750671,2.4,26.55,20.85,0.5881347650000001,0.56298828,0.9807128900000001,0.5000327749271579,0.5000146554424625,0.49990207507345774,62.25,8.85,91.95,0.12622070500000002,0.5192871099999999,0.8474121099999999,0.5001744663408885,0.49999333842731103,0.5000203177268884,56.7,20.55,28.95
0.03759765499999997,0.53076172,0.418945315,0.5000081937099728,0.5001212404309537,0.5000215834396619,2.4,26.55,20.85,0.5847167950000001,0.5734863299999999,0.9851074200000001,0.5000483628990399,0.5000275789074419,0.4998928154909107,63.6,8.4,93.15,0.130615235,0.50732422,0.83544922,0.5001836592518581,0.4999910735135407,0.500024048280898,56.7,20.55,28.95
0.03857422000000003,0.5263671900000001,0.408447265,0.5000128567934019,0.5001265030349809,0.5000147886983509,0.6,27.75,21.3,0.5832519549999999,0.568359375,0.9899902349999999,0.5000800053693126,0.5000275789074419,0.4998928154909107,63.6,8.4,93.15,0.131103515,0.51074219,0.8264160150000001,0.5002201646457592,0.4999725543484465,0.5000090597423477,57.9,18.6,29.25
0.02465820500000001,0.53466797,0.40185547,0.5000553575678166,0.5000907305048327,0.500084335356654,0.0,27.0,21.3,0.58935547,0.568847655,0.9934082049999999,0.5000676148406205,0.5000001998401994,0.4998914165222487,61.8,8.1,92.7,0.14160156499999998,0.50463867,0.8259277349999999,0.5002136363289587,0.49997062253076396,0.5000242481210974,56.55,20.25,30.15
0.020996095000000024,0.5546875,0.38574219,0.500058155417874,0.500095593428461,0.5000845351968533,1.35,27.0,21.9,0.59375,0.57421875,0.9831542950000001,0.5000544249511308,0.5000130566336013,0.49989827793513714,61.05,6.9,90.6,0.14599609500000002,0.489501955,0.8234863299999999,0.5001907205049458,0.50001945178178,0.500028711364327,57.3,19.95,29.4
0.025390625,0.5744628900000001,0.377197265,0.5000343070644419,0.500074143157421,0.5000713453073636,1.35,27.0,21.3,0.5837402349999999,0.5637207049999999,0.967773435,0.5000435666469889,0.5000255804181818,0.4998959464370558,60.75,7.35,91.95,0.14355468999999998,0.48803711,0.8210449200000001,0.5002152350505534,0.5000225827279251,0.5000333744477561,56.7,20.1,30.0
0.024902345000000024,0.5788574200000001,0.37182617,0.5000792725928263,0.5000123905286922,0.5000943942999984,-0.3,25.8,22.35,0.59326172,0.5634765650000001,0.971679685,0.5000371714988102,0.5000407021253541,0.49988382233287393,61.05,8.1,91.95,0.13769531499999998,0.48071289,0.8312988299999999,0.5002202978143813,0.5000486959951276,0.5000537588462217,56.4,20.55,28.95
0.019287109999999986,0.5671386700000001,0.37084961,0.5000758752221708,0.5000301102457225,0.5000970589814339,-0.3,25.8,22.35,0.5827636700000001,0.5546875,0.9765625,0.5000524931334482,0.5000516936853844,0.49986983308258687,63.3,8.4,92.4,0.13623047000000002,0.470458985,0.8371582049999999,0.5002395497559617,0.5000504946441883,0.5000168537719218,55.65,20.55,30.0
0.025878904999999976,0.5529785150000001,0.37158203,0.5000743429976204,0.4999676914248182,0.5000617527159953,0.3,27.0,20.85,0.59326172,0.5517578150000001,0.9973144549999999,0.5000413683175295,0.500056156928614,0.4998694334021882,62.55,8.4,92.4,0.13525390499999998,0.4765625,0.834960935,0.5002468108492488,0.5000457648891817,0.5000702795220558,55.65,20.55,30.0
0.025390625,0.5476074200000001,0.37158203,0.5000911301852313,0.4999253904906028,0.5001071845090893,-0.75,27.45,20.7,0.5886230450000001,0.5515136700000001,0.979492185,0.5000486294108166,0.5000644173101643,0.49986177262850234,62.55,8.4,92.4,0.12548827999999998,0.485595705,0.84033203,0.5002412151491341,0.4999924058106252,0.5000151883787497,57.3,20.7,29.1
0.04321289000000002,0.5729980450000001,0.376708985,0.5000879992390862,0.49993151912700473,0.5000818706026843,0.15,26.1,21.0,0.5793457049999999,0.5458984400000001,0.982910155,0.5000363721380128,0.5000552909835057,0.49984938209981017,61.35,8.25,91.2,0.13159179499999998,0.47338867,0.8371582049999999,0.5002548713905998,0.5000343736487528,0.5000397029243573,57.3,20.7,29.1
0.05688476500000002,0.576171875,0.38745117,0.500140425700957,0.4998764946552759,0.5000794724330255,0.15,26.1,21.0,0.563964845,0.54248047,0.9855957049999999,0.5000478966343301,0.5000894647920591,0.49983519292205736,60.75,8.1,92.4,0.11962890499999998,0.49755859500000005,0.8190917950000001,0.5002851148922107,0.5000224494720368,0.5000478966343301,55.8,20.25,27.75
0.06811523499999998,0.5935058599999999,0.38745117,0.5001551478149969,0.4998912166820494,0.500054091855043,0.0,27.0,20.85,0.5625,0.544921875,1.0063476550000001,0.5000359057860366,0.5000677480965088,0.4997975551585374,62.85,8.1,92.7,0.11621094,0.5114746099999999,0.818847655,0.5002751225331772,0.5000121240169154,0.5000665489680463,57.0,19.95,29.4
0.07397460999999998,0.583496095,0.39453125,0.5001759984781724,0.49990780394219453,0.5000223162161483,0.75,27.45,21.0,0.55908203,0.541503905,1.02270508,0.5000203177268884,0.5000402358606444,0.4997972220624497,62.85,8.1,92.7,0.11743164000000002,0.49853515499999995,0.8195800799999999,0.5002641309731469,0.5000397695086682,0.5000604203316443,57.0,19.95,29.4
0.06323241999999998,0.5437011700000001,0.39379883,0.5002278254194451,0.4998934815958197,0.5000071278373986,-0.15,26.4,20.7,0.5671386700000001,0.5478515650000001,1.0278320300000001,0.5000171868680097,0.5000073943491754,0.4998397228368644,63.15,7.05,91.8,0.11083984500000002,0.5002441400000001,0.8215332049999999,0.5002865137736061,0.5000524264618708,0.5000578223217863,56.25,19.95,29.4
0.03369140499999997,0.5397949200000001,0.39355469,0.5002439464148805,0.49988615391822167,0.499979882113311,1.05,25.05,20.55,0.5632324200000001,0.567871095,1.0141601550000001,0.5000318422232056,0.4999830130594562,0.4997997534007303,63.75,7.5,92.25,0.11328125,0.52783203,0.8430175799999999,0.5002423476060193,0.5000596875551578,0.5000506279000766,56.1,20.85,28.95
0.03173827999999997,0.47680664,0.40942383,0.4999716884033381,0.49994910567541306,0.4999961362773684,1.2,24.9,20.7,0.6037597650000001,0.498291015,0.9426269549999999,0.5000378376909856,0.5000799387850017,0.49993831395558214,60.15,6.75,93.6,0.18310547000000002,0.44873047,0.8347167950000001,0.500176464742882,0.49986550309524563,0.5000021983294594,57.15,19.35,32.1
0.04003906499999999,0.47705077999999995,0.40625,0.4999660260316459,0.4999851447173381,0.49999573659696966,0.6,24.0,21.6,0.6037597650000001,0.49511719,0.9421386700000001,0.5000826699634817,0.5000823368673939,0.49991180092071447,59.25,7.35,93.45,0.18090820500000002,0.46972656,0.822753905,0.5001787963282297,0.49990946933536673,0.5000033973706555,57.15,19.35,32.1
0.04125976500000002,0.478759765,0.412353515,0.5000083935501722,0.4999698230827001,0.5000161875797464,1.2,24.15,21.75,0.61279297,0.50341797,0.95263672,0.5000976585020319,0.500078739656539,0.4998969456380526,60.9,6.0,93.6,0.185546875,0.484375,0.8347167950000001,0.5001863905176045,0.4999652266708485,0.500018052813118,57.6,20.25,31.2
0.04321289000000002,0.48583984500000005,0.41430664,0.500000599520598,0.49997841656033815,0.5000191186856922,2.1,24.75,22.35,0.60644531,0.513671875,0.9504394549999999,0.5001039869786332,0.5000827366350591,0.4998625719892998,60.9,6.0,93.6,0.18896484500000002,0.48144531,0.84082031,0.5001951171638646,0.4999891416958581,0.5000059287962025,56.4,19.05,32.1
0.04370116999999999,0.494384765,0.42626953,0.500002664594169,0.5000309096065199,0.4999996669039123,2.1,24.75,22.35,0.6081542950000001,0.5158691400000001,0.96484375,0.5001047197551197,0.5000803384654003,0.4998609065961276,60.45,7.65,94.2,0.18359375,0.47900390499999995,0.8483886700000001,0.5002196982937831,0.5000118575924052,0.5000018652333716,56.4,16.8,31.35
0.04760741999999999,0.5017089849999999,0.43383789,0.5000149885385503,0.5000407687969315,0.499984678365362,1.65,24.75,22.35,0.6086425799999999,0.5314941400000001,0.9846191400000001,0.5000742764133095,0.5000254471622935,0.4998808246426171,61.5,5.4,93.75,0.17602539,0.48779297000000005,0.8508300799999999,0.5002187656770973,0.5000420344224386,0.49997142189156135,57.3,18.45,33.3
0.03857422000000003,0.50830078,0.4296875,0.5000439663273876,0.5000672817445327,0.4999944042998852,1.8,23.4,21.45,0.612304685,0.5422363299999999,0.9846191400000001,0.5000664157994243,0.50001072513552,0.4998595076274656,61.5,5.4,93.75,0.16455077999999998,0.487060545,0.853515625,0.5002509410836573,0.5000506944843875,0.5000041301471418,57.45,18.6,32.1
0.03735351500000002,0.49609375,0.422851565,0.500073543636823,0.500069413489681,0.4999980681823174,0.45,23.4,21.45,0.611816405,0.5461425799999999,0.9924316400000001,0.500046764177445,0.5000064617324896,0.4998619724687018,60.15,7.05,93.3,0.16137695500000002,0.49291992,0.8532714849999999,0.5002393499157625,0.5000455650489825,0.4999609632678182,56.7,19.05,31.05
0.01831054499999999,0.494873045,0.408935545,0.5000399693488676,0.5000734103809346,0.49996562635124725,0.45,23.4,21.45,0.6228027349999999,0.5661621099999999,0.9992675799999999,0.5000502282196779,0.4999852779732265,0.49987995869750873,59.25,6.9,94.2,0.15332031499999998,0.49584961,0.8557128900000001,0.5002200979741819,0.5000323085751819,0.4999843453565407,56.7,19.05,31.05
0.010742189999999993,0.490966795,0.38989258,0.5000443660077863,0.5000884655037958,0.49995610034418986,1.65,23.25,20.85,0.620117185,0.5703125,1.0190429699999999,0.5000424341901037,0.5000036638824322,0.49986337135009723,61.5,6.9,93.75,0.13134765499999998,0.501464845,0.8654785150000001,0.5002230957517051,0.5000526929736476,0.4999968690538548,56.55,21.0,31.95
-0.004638669999999991,0.482177735,0.37060547,0.5000680145210191,0.500046764177445,0.49997681775147684,0.45,24.6,21.75,0.6174316400000001,0.569335935,1.0229492199999999,0.5000257802583812,0.5000436998156108,0.49987036601887397,61.5,6.9,93.75,0.125,0.5217285150000001,0.870117185,0.5001861240930943,0.500057555897276,0.49996216230901436,55.8,19.2,29.4
-0.017578125,0.471435545,0.35180664,0.5000519601971611,0.5000304433418102,0.4999199280463764,1.05,23.25,22.35,0.5988769549999999,0.569335935,1.0327148449999999,0.5000083935501722,0.5000379709468741,0.49986963324238753,61.05,8.1,93.15,0.11352539000000002,0.510253905,0.8562011700000001,0.5001793958488279,0.5000652166709617,0.4999880758232839,56.4,20.85,30.3
-0.024902344999999968,0.454833985,0.34741211,0.5000733437966236,0.4999934716831994,0.4999328514240892,0.75,24.6,22.05,0.5949707049999999,0.572753905,1.032958985,0.5000139226659761,0.5000425673587257,0.4999014754655932,61.8,6.15,93.15,0.10009765499999998,0.5192871099999999,0.8571777349999999,0.5001692036495949,0.5000907970891436,0.49997841656033815,57.0,19.2,29.4
-0.026611329999999954,0.45800781,0.34741211,0.5001054525316061,0.4999334510319538,0.49995929787464594,0.75,24.6,22.05,0.5832519549999999,0.5773925799999999,1.03198242,0.5000211171749521,0.5000604870032217,0.4999026745940558,61.35,7.05,93.6,0.09204101500000002,0.5224609400000001,0.85546875,0.5001530160698485,0.5000870000380894,0.49998734304679743,56.7,19.8,30.3
-0.015380859999999984,0.45410156,0.34741211,0.5000916631215184,0.4999173300365183,0.4999188621738022,2.25,23.85,19.95,0.5759277349999999,0.5793457049999999,1.020751955,0.5000085268060606,0.500066882064134,0.4998915497781371,60.45,7.35,93.75,0.10205077999999998,0.524902345,0.8444824200000001,0.5001458215608724,0.5000722113397384,0.4999958698528581,56.25,18.45,30.9
-0.0068359350000000065,0.463867185,0.345458985,0.5000952603323733,0.4999000765841977,0.4999570995451866,1.35,23.25,21.3,0.5661621099999999,0.5749511700000001,1.0063476550000001,0.5000289777888374,0.5000756087103939,0.4999097358471435,60.45,6.9,92.7,0.09838866999999998,0.5266113299999999,0.8293457049999999,0.5001357626175279,0.5000675482563095,0.5000252473220941,56.25,18.45,30.9
-0.013183594999999968,0.458251955,0.35180664,0.5001037205541229,0.4998619724687018,0.4999636278619872,1.5,24.15,20.4,0.56201172,0.556152345,1.00708008,0.5000451653685837,0.5001057189561164,0.49991053520794093,60.45,7.65,92.4,0.09936523499999998,0.5241699200000001,0.83935547,0.5001128468807815,0.5000652833425392,0.4999997335754897,56.25,18.45,30.9
-0.01049804499999999,0.45751953,0.360839845,0.5000954601725726,0.4998518468537798,0.49997035601898715,1.5,24.15,20.4,0.56298828,0.561035155,1.013427735,0.5000539586864211,0.5001221064633287,0.4999040734754513,60.45,7.65,92.4,0.09594726500000002,0.5173339849999999,0.838867185,0.5000767411672791,0.5000495620275024,0.5000241148652089,55.35,17.55,29.25
-0.016113280000000032,0.44946289,0.357421875,0.5000860007498261,0.4998634379344082,0.4999604303315311,1.65,22.95,21.3,0.5615234400000001,0.552734375,1.009521485,0.500031442542807,0.5001081171257752,0.499939846092866,61.5,8.85,93.45,0.10180664000000002,0.50463867,0.8347167950000001,0.5000742764133095,0.5000285781084386,0.49999307200280063,55.35,17.55,29.25
-0.028564454999999954,0.443115235,0.36352539,0.5000505612284992,0.49984691734584047,0.4999626952453014,1.35,23.25,22.95,0.5646972650000001,0.548339845,1.0083007800000001,0.5000024647539697,0.5001219732074402,0.4999580321618724,61.05,7.65,93.75,0.12524414,0.486083985,0.842285155,0.5000751424456843,0.5000145888581515,0.49999946706371295,56.1,19.35,30.0
-0.024658204999999954,0.44189453,0.359375,0.5000480964745295,0.49980927949505416,0.4999970023097432,2.1,22.2,20.55,0.5729980450000001,0.541503905,1.01098633,0.4999836791643652,0.5000938613637114,0.4999459747292679,62.25,5.7,93.75,0.10888672000000002,0.505371095,0.833984375,0.5000704126906779,0.5000399693488676,0.49997648465538913,56.1,19.8,30.0
-0.024658204999999954,0.459960935,0.358154295,0.500037438010587,0.4998271990522838,0.49997655132696656,1.65,22.5,20.55,0.5798339849999999,0.561035155,0.9729003900000001,0.5000178529729187,0.5000909303450319,0.49992952063774476,60.75,8.1,93.45,0.12768554499999998,0.52392578,0.827148435,0.5000912634411198,0.49999293874691225,0.5000111248159187,56.7,19.8,30.3
-0.020996094999999968,0.459716795,0.37548828,0.5000075941893748,0.49983952299666506,0.4999555007363253,1.65,22.5,20.55,0.556152345,0.5490722650000001,0.962402345,0.5000263797789792,0.5001199747181803,0.4999467075057544,61.5,7.35,94.2,0.11572265499999998,0.5222167950000001,0.837402345,0.5000849348772519,0.5000773407751437,0.49998041504959817,57.0,20.7,30.45
-0.008056640000000016,0.46069336,0.39916992,0.5000171201964322,0.49987622814349914,0.4999815475064833,1.65,21.45,20.55,0.5651855450000001,0.53955078,0.998535155,0.5000564234403908,0.5001191087730719,0.49994577488906855,61.95,6.75,92.55,0.11889648499999998,0.51171875,0.82910156,0.5001187756769842,0.5000977250863429,0.49995363550295374,57.6,20.7,30.15
0.011474609999999984,0.45751953,0.42089844,0.4999904739929426,0.4999257901710015,0.4999481064744163,4.2,22.5,21.6,0.5583496099999999,0.52734375,0.9904785150000001,0.5000841355164546,0.5001236386006125,0.4999171967806299,61.95,6.75,92.55,0.127197265,0.502685545,0.8317871099999999,0.5001082503816635,0.5001295007252377,0.500002131657882,57.3,20.25,30.45
0.016113279999999976,0.459960935,0.435302735,0.4999856776536252,0.49999993341568905,0.499950571228386,1.8,23.4,21.45,0.56201172,0.521972655,0.9973144549999999,0.500028777948638,0.5000998568314913,0.49992605668277834,62.4,6.3,93.6,0.11938476500000002,0.5021972650000001,0.8400878900000001,0.5001343637361324,0.5001552143993079,0.5000183193248948,57.3,20.25,30.45
0.023681640000000014,0.45019531,0.42919922,0.49997581855048007,0.5000416347420399,0.4999687572973924,1.8,23.4,21.45,0.5705566400000001,0.521484375,0.99707031,0.5000566232805902,0.5001031209462583,0.49995876493835884,61.8,6.6,93.45,0.11840820500000002,0.5036621099999999,0.842285155,0.5001519501972743,0.5001852580607193,0.5000006661921754,55.35,18.6,29.7
0.007568359999999984,0.44580078,0.424560545,0.4999349164976602,0.5001002565118899,0.4999862771742233,2.7,22.2,21.9,0.57763672,0.52783203,1.0112304699999999,0.5000297105653237,0.5000804716340224,0.4999499050362105,63.45,5.55,93.3,0.111328125,0.48535156,0.8498535150000001,0.5001567465365917,0.5001570796326795,0.4999998667441116,55.35,18.6,29.7
0.0007324199999999905,0.43408203,0.407226565,0.49996382770218656,0.5000985911187178,0.5000213170151515,2.4,21.75,20.85,0.5754394549999999,0.5205078150000001,1.0063476550000001,0.5000369716586108,0.5000572228011881,0.49991786297280544,63.45,5.55,93.3,0.11499023499999998,0.48779297000000005,0.849121095,0.5001618759719969,0.500095660012772,0.5000028644343684,59.7,20.55,30.3
-0.008056640000000016,0.44189453,0.39404297,0.49999646937345615,0.500118309325008,0.5000119908482935,2.4,22.2,20.25,0.5783691400000001,0.5407714849999999,0.9948730450000001,0.500062218980705,0.5000739433172217,0.49991473202666026,62.25,6.15,94.5,0.12280273499999998,0.49145508,0.8454589849999999,0.5001497519550815,0.5000674150004211,0.5000303767574993,57.45,19.35,27.45
-0.0029296850000000065,0.454833985,0.39477539,0.49996729174441945,0.5001314326301867,0.4999922725547368,2.4,22.2,20.25,0.59326172,0.5534667950000001,1.0151367199999999,0.5000786064006507,0.5000893982077481,0.499924457873917,63.15,5.25,93.6,0.12036133000000002,0.509765625,0.84423828,0.5001412917333318,0.5000654165111611,0.49999353826751036,57.6,20.7,29.1
0.0012207050000000094,0.45727539,0.39526367,0.49999114009785167,0.5001328981831595,0.500024647801496,2.4,22.2,20.25,0.580078125,0.5642089849999999,1.00317383,0.5000578223217863,0.5001036538825455,0.49991959495028865,63.15,5.25,93.6,0.11962890499999998,0.52392578,0.8347167950000001,0.5001215735270416,0.5000407021253541,0.5000009326166858,57.3,19.5,29.1
0.011962890000000016,0.450439455,0.388183595,0.5000091263266587,0.5001191087730719,0.5000468974333334,1.5,21.9,22.05,0.5715332049999999,0.56591797,0.9938964849999999,0.5000585550982727,0.5001151783788628,0.4999565000245885,62.55,5.4,92.7,0.12255859500000002,0.532714845,0.830566405,0.5000965260451468,0.5000507610686985,0.5000269792995773,57.3,19.5,29.1
0.022949220000000024,0.45410156,0.38232422,0.49999980015980067,0.5000880658233972,0.5000035306265439,2.55,24.15,22.05,0.5615234400000001,0.5686035150000001,0.993652345,0.5000706792024546,0.5001105152954338,0.4999380474438054,62.25,6.6,92.4,0.12402344,0.5476074200000001,0.8342285150000001,0.5000754088701945,0.5000651500866508,0.5000254471622935,57.15,20.1,30.0
0.017089845000000024,0.456054685,0.37524414,0.49998454519674007,0.5000856010694275,0.4999970023097432,3.15,22.2,20.55,0.5637207049999999,0.5729980450000001,0.9938964849999999,0.5000752756143062,0.5000895980479474,0.4999875428869968,64.2,7.8,92.25,0.11328125,0.54638672,0.841796875,0.5000520934530495,0.5000826033791707,0.49999920063920256,57.15,20.1,30.0
0.012207029999999975,0.451171875,0.37817383,0.49998587749382456,0.5000548246315295,0.5000548246315295,2.1,23.7,21.3,0.565429685,0.583496095,1.005859375,0.5000722113397384,0.5000890651116604,0.49997735068776394,64.2,7.8,92.25,0.11694335999999998,0.5402832049999999,0.841308595,0.5000251140662058,0.5000920628019171,0.5000167205160335,57.6,20.7,29.1
0.01831054499999999,0.46557617,0.37841797,0.4999956033410813,0.5000526263020701,0.5000556906639043,2.1,23.7,21.3,0.561035155,0.5822753900000001,0.9953613299999999,0.500073543636823,0.5000826033791707,0.49997182157196013,64.2,7.8,92.25,0.11596679499999998,0.5324707049999999,0.8444824200000001,0.5000104586237432,0.5000676148406205,0.5000146554424625,57.3,21.0,28.8
0.025390625,0.479248045,0.37548828,0.4999503047166092,0.5000469640176444,0.5000295773094354,1.65,21.75,21.3,0.5671386700000001,0.5861816400000001,0.9924316400000001,0.5000528928138469,0.500118242740697,0.4999642273825852,63.15,6.3,92.55,0.11645508000000002,0.5241699200000001,0.853515625,0.5000125236973141,0.5000586883541611,0.4999956700126587,55.5,20.25,28.35
0.03125,0.489501955,0.380859375,0.49996349460609885,0.5000078606138851,0.5000412350616411,0.75,23.1,20.7,0.5595703150000001,0.58203125,1.002685545,0.5000510941647862,0.5001011891285758,0.5000077940295742,64.2,6.3,93.3,0.118164065,0.50854492,0.8508300799999999,0.5000165872601451,0.5000190521013812,0.5000053292756045,57.0,20.7,27.75
0.03540039000000002,0.487060545,0.39355469,0.49996502683064914,0.5000212503435741,0.500066882064134,2.55,22.65,21.0,0.5598144549999999,0.56738281,0.9992675799999999,0.5000215168553509,0.500064150885654,0.49998634375853424,64.2,6.3,93.3,0.12280273499999998,0.49633789,0.845703125,0.5000187190052935,0.5000337741281548,0.49998674352619943,57.3,20.7,27.75
0.0390625,0.486328125,0.396484375,0.49991373273839707,0.5000625520767927,0.5000363721380128,2.55,22.65,21.0,0.5661621099999999,0.5627441400000001,1.006591795,0.5000195849504019,0.5000415015734179,0.4999995336480239,63.45,8.25,92.25,0.12744140499999998,0.493896485,0.8498535150000001,0.5000176531327193,0.5000131898894896,0.4999646937345614,57.3,21.45,28.8
0.03442383000000001,0.487060545,0.39404297,0.49992652294748796,0.49999473739597294,0.5000512274206746,1.05,23.25,21.6,0.564941405,0.568847655,0.993652345,0.5000003330960877,0.5000568231207895,0.49999820135093936,64.2,8.25,93.3,0.12182616999999998,0.497802735,0.8537597650000001,0.5000399693488676,0.4999848782928278,0.4999426439429234,56.1,20.1,28.2
0.03491210999999998,0.48876952999999995,0.3984375,0.49992832159654865,0.5000029311059457,0.5000363721380128,1.8,23.85,20.7,0.572265625,0.5549316400000001,0.985839845,0.49998747630268586,0.5000468974333334,0.49999333842731103,64.05,6.9,91.35,0.12548827999999998,0.498291015,0.85107422,0.5000356393615264,0.5000103920394322,0.49996036374722014,56.1,20.1,28.2
0.03637695500000001,0.48583984500000005,0.391601565,0.49992239280034606,0.5000157878993476,0.500013456314,2.1,24.3,20.25,0.5661621099999999,0.5529785150000001,0.9812011700000001,0.500007327677598,0.5000333744477561,0.49998867534388197,64.05,6.9,91.35,0.13647461,0.49682617,0.8469238299999999,0.5000825367948597,0.5000087932305709,0.49996609261595687,59.1,19.5,28.8
0.029541015000000014,0.489990235,0.3984375,0.4999135328981977,0.500015987739547,0.5000321753192934,1.65,22.95,21.6,0.56982422,0.5419921900000001,0.9802246099999999,0.5000238483534322,0.500017919644496,0.49996849078561556,63.75,6.0,92.85,0.13354491999999998,0.49584961,0.84326172,0.5000844686125423,0.500034840000729,0.49998234686728066,59.1,19.5,28.8
0.025878904999999976,0.494873045,0.404296875,0.4999164640041435,0.5000082602942838,0.5000538254305328,1.65,22.95,21.6,0.5671386700000001,0.5397949200000001,0.9978027349999999,0.5000122572728039,0.5000193185258915,0.499959897395244,63.15,7.05,92.55,0.13232422000000002,0.49267577999999995,0.8420410150000001,0.5001248376418086,0.5000494287716141,0.49995097090878465,58.05,21.75,28.05
0.029052734999999986,0.49658202999999995,0.404296875,0.4999073376774848,0.5000304433418102,0.5000230489926347,1.35,22.95,20.55,0.575683595,0.5495605450000001,1.001220705,0.5000207174945535,0.5000055957001148,0.4999415780703492,62.7,6.0,92.55,0.126953125,0.49658202999999995,0.85546875,0.5001394264999601,0.5000470972735328,0.4999446424321834,57.6,19.5,28.05
0.03002929499999999,0.5061035150000001,0.395507815,0.4999357159457241,0.5000283115966618,0.500031375958496,2.1,24.0,19.8,0.5700683599999999,0.556152345,0.9978027349999999,0.5000216501112393,0.5000018652333716,0.49993098619071763,63.45,6.75,91.5,0.12402344,0.49658202999999995,0.8522949200000001,0.5001580788336762,0.5000350398409282,0.49995663319321043,57.6,19.5,27.3
0.016113279999999976,0.5017089849999999,0.38964844,0.4999295873093222,0.5000233820887224,0.5000773407751437,0.75,23.4,20.7,0.5661621099999999,0.557128905,1.0034179699999999,0.500020051302378,0.4999822136113923,0.4999593644589569,62.55,6.9,92.7,0.12133789000000002,0.49267577999999995,0.8469238299999999,0.5002029777777497,0.5000351730095501,0.4999493720999234,57.45,18.6,28.95
0.015380859999999984,0.49169922000000005,0.38989258,0.4999410451340621,0.5000458315607592,0.5000319754790941,0.75,23.4,20.7,0.56738281,0.5612792950000001,0.993652345,0.5000072610932871,0.5000154548032599,0.4999370482428086,63.45,5.25,93.6,0.126953125,0.502929685,0.8410644549999999,0.5001931186746046,0.5000204509827767,0.49995669986478786,57.45,18.6,28.95
0.010009765000000016,0.48120117,0.380126955,0.499988608759571,0.5000050627638277,0.5000435666469889,0.45,24.15,20.4,0.568847655,0.55517578,0.9948730450000001,0.5000235153446109,0.500000066584311,0.49994504211258206,63.45,5.25,93.6,0.12744140499999998,0.509277345,0.83251953,0.500178463232142,0.5000276454917528,0.4999597641393556,57.9,19.8,27.9
0.013916015000000016,0.474365235,0.385498045,0.5000111914002296,0.49999786834211807,0.5000296439810128,1.2,24.15,21.0,0.56640625,0.5646972650000001,1.005859375,0.5000218499514386,0.5000145888581515,0.499917796301228,64.5,6.3,91.8,0.122070315,0.506591795,0.8361816400000001,0.5001688039691963,0.5000083269658613,0.4999902741527433,57.9,19.8,27.9
0.020507814999999995,0.47290039,0.38623047,0.5000132564738006,0.5000172534523206,0.5000241814495199,1.35,24.3,21.6,0.5612792950000001,0.5583496099999999,1.00317383,0.5000277787476413,0.5000222496318373,0.4999008093606842,63.75,6.0,92.85,0.11669922000000002,0.506347655,0.8332519549999999,0.5001393599156492,0.5000098591031451,0.49996056358741947,57.15,20.1,27.15
0.016113279999999976,0.47631836,0.37939453,0.5000764747427687,0.4999938713635981,0.5000249808975838,0.0,24.0,20.25,0.564941405,0.5549316400000001,1.020751955,0.5000135229855773,0.5000055291158039,0.49993058651031896,63.15,6.0,91.8,0.11791991999999998,0.50341797,0.8361816400000001,0.5001625420769059,0.4999965359577671,0.49997368680533166,59.1,19.5,27.75
0.01098633000000001,0.48583984500000005,0.368408205,0.5000732105407353,0.4999776171122743,0.5000015988088613,0.0,24.0,20.25,0.5625,0.5607910150000001,1.01147461,0.5000168537719218,0.5000189188454929,0.4999026745940558,64.95,6.0,91.2,0.10815429499999998,0.5166015650000001,0.83691406,0.5001567465365917,0.4999786164005375,0.49995996397955494,57.6,21.0,27.0
0.0017089849999999843,0.48852539,0.36254883,0.5000952603323733,0.49998307964376715,0.4999887419281929,2.1,23.25,20.85,0.5563964849999999,0.5632324200000001,1.00390625,0.4999938047792871,0.499997401990142,0.4998922825546236,63.6,5.7,93.45,0.10400390499999998,0.510498045,0.842285155,0.5001645405661659,0.4999916730341387,0.4999466409214434,58.05,20.25,28.35
0.00048827999999997475,0.48876952999999995,0.36254883,0.5001076508610655,0.4999628285011898,0.4999914731939394,0.6,23.7,21.3,0.5556640650000001,0.5598144549999999,1.006835935,0.4999656929355582,0.5000103254551213,0.4998940812036842,64.5,6.3,91.2,0.10522460999999998,0.5222167950000001,0.842285155,0.5001508177403892,0.5000009992009967,0.49993278483977827,57.9,20.1,27.9
0.0007324199999999905,0.47680664,0.36376953,0.5000984578628294,0.4999694234023014,0.49997735068776394,1.35,22.95,20.55,0.5458984400000001,0.5603027349999999,1.006103515,0.5000072610932871,0.5000468974333334,0.49989687905374164,64.5,6.3,91.2,0.10717773499999998,0.53125,0.842285155,0.5001424241902169,0.4999946707243955,0.49994151148603827,57.3,19.5,27.75
0.00903320500000001,0.470703125,0.37548828,0.5000837358360558,0.4999781500485614,0.49994697393026466,1.35,22.95,20.55,0.548339845,0.556640625,1.00390625,0.500005196019716,0.5000346401605296,0.49990274117836675,63.75,6.3,91.8,0.11010741999999998,0.5380859400000001,0.8439941400000001,0.5001634746935917,0.4999842121006523,0.4999543682794401,57.3,19.5,27.75
0.021972654999999976,0.463867185,0.37451172,0.5001188422612951,0.4999570995451866,0.49996489357476076,1.05,25.05,21.3,0.5478515650000001,0.5632324200000001,1.010498045,0.5000217832798612,0.49999753524603036,0.49988249003578944,65.4,6.15,93.45,0.11059570500000002,0.54248047,0.8371582049999999,0.5001560137601053,0.5000068614128884,0.4999640275423859,56.55,21.0,28.35
0.027099609999999986,0.46166992,0.379882815,0.5001073177649777,0.49996016381975433,0.49996555976693624,0.45,22.65,21.45,0.54296875,0.5595703150000001,1.01489258,0.5000089264864593,0.500009259582547,0.49989927722340033,63.6,5.7,92.4,0.10791015499999998,0.5380859400000001,0.837402345,0.5001631416847704,0.49999114009785167,0.499975951719102,56.55,21.0,28.35
0.030273439999999995,0.462646485,0.39013672,0.5000859341655152,0.5000090597423477,0.4999297204779441,1.5,23.4,21.0,0.552246095,0.5632324200000001,0.9987792950000001,0.5000095260070574,0.4999802817937098,0.49992392493762994,63.6,5.7,92.4,0.11230469,0.5485839849999999,0.834960935,0.5001158445710383,0.49995590041672405,0.49997994869762197,58.2,20.55,28.2
0.019775390000000014,0.47290039,0.38598633,0.5000890651116604,0.4999962695332568,0.49994137823014984,1.65,21.75,21.9,0.54248047,0.56738281,1.0,0.500013856081665,0.49998188051530457,0.49993065318189633,65.1,6.15,93.45,0.11669922000000002,0.5478515650000001,0.845703125,0.5001005229364003,0.4999812809947065,0.4999970688940542,57.3,19.2,28.05
0.01489258000000001,0.47119140499999995,0.390625,0.5000969257255454,0.4999814808349059,0.4999295873093222,1.65,21.75,21.9,0.5461425799999999,0.5783691400000001,0.99609375,0.5000117243365167,0.499975219029882,0.49992858802105894,64.5,7.05,93.3,0.11572265499999998,0.56689453,0.84472656,0.5000458981450702,0.5000077940295742,0.4999884755036826,57.6,19.95,28.05
0.015869140000000014,0.47216797000000005,0.388916015,0.5000566898649011,0.499986676854622,0.4999794157613349,0.45,21.9,19.35,0.5544433599999999,0.5793457049999999,1.001708985,0.5000063284766012,0.4999794823456459,0.49994943877150083,64.5,7.05,93.3,0.12890625,0.578125,0.849121095,0.5000263797789792,0.4999882089919058,0.4999970688940542,57.3,19.5,28.35
0.025390625,0.466796875,0.39794922,0.5000649502464514,0.49997548545439235,0.49993058651031896,2.1,22.2,21.6,0.5578613299999999,0.5866699200000001,1.0078125,0.5000015988088613,0.4999475068665518,0.4999419778380144,63.6,5.7,91.95,0.114257815,0.5856933599999999,0.8747558599999999,0.49997335370924395,0.49999713556563163,0.5000017986490606,57.3,19.5,28.35
