IMU1_AccX,IMU1_AccY,IMU1_AccZ,IMU1_GyrX,IMU1_GyrY,IMU1_GyrZ,IMU1_MagX,IMU1_MagY,IMU1_MagZ,IMU2_AccX,IMU2_AccY,IMU2_AccZ,IMU2_GyrX,IMU2_GyrY,IMU2_GyrZ,IMU2_MagX,IMU2_MagY,IMU2_MagZ,IMU3_AccX,IMU3_AccY,IMU3_AccZ,IMU3_GyrX,IMU3_GyrY,IMU3_GyrZ,IMU3_MagX,IMU3_MagY,IMU3_MagZ
-918.94531,15.625,-379.39453,-0.0544916227082157,0.0658161915597809,0.1279019163763492,-5.55,29.55,23.7,-353.51562,-33.69141,939.94141,-0.1100489434576992,-0.0651499993842947,-0.0029311059457992,81.9,3.75,77.55,-953.61328,82.51953,267.08984,0.0086599746825454,-0.0438330714992115,-0.1416247421530798,55.5,21.45,1.65
-904.29687,36.13281,-383.30078,-0.013456313999951,0.039569755735365,0.1265697065583019,-5.55,29.55,23.7,-350.58594,-32.71484,961.91406,-0.0197182062902563,-0.0285115241276541,-0.0315757986953806,83.25,5.55,77.55,-965.33203,81.05469,282.22656,0.0075941021083525,-0.0450321126953316,-0.203577298347721,57.6,19.95,3.45
-895.50781,36.13281,-389.64844,-0.0644839817417337,0.1328315988486072,0.1863905176045572,-7.2,30.15,24.9,-366.69922,-35.64453,981.93359,-0.0542251109314362,-0.0949939078629213,-0.0153215473715574,81.75,4.65,77.7,-949.21875,83.00781,262.20703,0.0426340303030914,-0.0482297304179105,-0.1421577657066389,57.6,19.95,3.45
-894.53125,10.25391,-393.55469,-0.0107917198309313,0.0576890658978693,0.2354196088198811,-5.4,29.7,24.15,-362.30469,-29.29688,998.04687,-0.0848683802074762,-0.0787396565390981,-0.061419532641082,81.75,3.45,78.15,-948.73047,86.42578,256.83594,-0.0082602942838387,0.0009327039522657,-0.1781302233207184,56.7,19.8,2.85
-902.34375,2.44141,-394.04297,0.0401026047559989,0.0802052095119978,0.2447457756779128,-7.65,30.3,22.65,-346.67969,-37.59766,1003.90625,-0.0691469779042869,-0.0965926294577481,-0.0182526533173567,82.05,3.45,78.15,-951.66016,86.91406,248.53516,-0.0221164632154217,0.0286446927495813,-0.1931852589154963,56.55,19.95,2.1
-911.13281,4.88281,-415.52734,0.0198513749121835,0.13776110678794,0.1672051603349347,-7.95,29.7,23.85,-355.95703,-58.59375,980.95703,-0.0863337586474507,-0.0992572236267679,0.0154548905264097,81.75,4.2,78.45,-949.70703,76.66016,235.35156,-0.0242480338308824,0.0327748398915007,-0.1360290420382608,56.7,19.8,2.55
-939.94141,-1.46484,-415.52734,0.0582220894514284,0.1192419416938038,0.1974487492122681,-7.95,29.7,23.85,-351.5625,-76.17188,946.77734,-0.0759418937481512,-0.0956601000384076,-0.0174532925199432,82.05,3.15,76.65,-943.84766,72.75391,238.76953,-0.0632847660126884,0.0373046674321268,-0.1296339811260284,55.65,18.6,2.25
-942.38281,19.04297,-437.98828,0.1338974714228001,0.0166539317225298,0.2278255067115286,-7.05,29.85,24.75,-373.04687,-72.75391,927.24609,-0.1380276185647195,-0.0439662401211387,-0.0153215473715574,82.05,3.15,76.65,-946.77734,83.00781,247.07031,-0.0640843013430269,0.0642174699649541,-0.0756753819713717,58.5,20.55,1.8
-945.3125,28.80859,-442.38281,0.1285681085518354,0.0648836621404404,0.1874563901787501,-7.35,30.6,23.7,-373.53516,-94.72656,938.47656,-0.0848683802074762,0.0101255276554451,-0.0231821612566894,82.35,4.95,78.45,-945.3125,65.91797,239.74609,-0.0310429496747467,0.1131133925583509,-0.0759418937481512,57.15,19.05,3.6
-971.67969,24.90234,-443.84766,0.1362955538150403,0.0353062654385932,0.1420244225517865,-6.6,29.85,21.6,-372.55859,-73.24219,937.5,-0.1229724084370164,0.0727442760255724,-0.0556906639043358,81.15,4.05,78.0,-946.28906,77.14844,255.85937,-0.0455651362488907,0.1730673722265333,-0.0414349891069713,57.15,19.05,3.6
-972.65625,12.20703,-455.56641,0.201845408130967,-0.0283781809728018,0.1225727280383097,-6.9,28.65,23.55,-408.69141,-76.17188,918.45703,0.0027979373238721,0.4607136899843171,0.0074609334864253,81.0,3.9,77.7,-974.12109,66.40625,254.88281,-0.0321086477160144,0.1771975193684527,-0.0727442760255724,57.3,19.95,2.1
-954.58984,8.78906,-452.63672,0.1771975193684527,-0.0552909835056291,0.113246561180278,-6.9,28.65,23.55,-405.27344,-45.89844,884.27734,-0.0030642745677264,0.1987809590303153,0.0047963393174056,81.0,3.9,77.7,-999.51172,77.14844,256.34766,0.0266462907560478,0.1670719917130076,-0.0214502710399355,57.3,19.95,2.1
-950.68359,30.27344,-469.72656,0.1802617939361791,-0.0191853572696224,0.0287778613715085,-6.9,28.65,23.55,-388.18359,-42.96875,928.71094,0.0576890658978693,0.1601439072472161,-0.0155880591483369,82.8,2.7,77.4,-1008.30078,62.98828,235.35156,0.077007591789419,0.1938514510909826,-0.0531592383572432,57.6,19.95,2.1
-937.01172,34.17969,-454.10156,0.2320888224753751,-0.0779402957416847,0.0456983048708179,-6.3,29.55,22.65,-401.85547,-5.37109,952.14844,0.1048529237415869,0.1200413024912172,0.063684446411395,80.85,1.8,76.95,-1028.80859,83.00781,226.5625,0.0843353566539172,0.1761316467942597,-0.0819372742616769,56.7,20.55,2.55
-936.03516,47.36328,-431.64062,0.2531394131166039,-0.0370383301882724,0.0582220894514284,-5.55,29.55,22.95,-383.30078,-17.57813,954.10156,0.1200413024912172,0.1596110582265822,0.0030642745677264,80.85,1.8,76.95,-1023.92578,98.14453,237.79297,0.0788728251610253,0.0869999508229369,-0.0033307863445059,57.0,19.2,1.65
-944.33594,62.01172,-429.6875,0.2141026809347979,-0.0158545709251164,0.0311761182966739,-7.5,29.7,23.85,-394.53125,15.13672,947.75391,0.0414349891069713,0.1100489434576992,0.0483628990398376,81.75,3.45,77.4,-1001.46484,72.75391,238.28125,0.0650168307623675,0.0920628019171221,-0.0782068075184643,56.7,19.05,1.2
-932.61719,95.70313,-407.71484,0.1697365858820273,-0.0089264864593249,0.0467641774450108,-7.5,29.7,24.15,-371.58203,21.48438,966.30859,0.0688804661275074,0.0720780838500862,0.0442327518979182,81.15,2.55,77.25,-1003.90625,86.91406,226.5625,0.0391699008037331,0.148952507017578,-0.0409019655534123,56.7,19.05,1.2
-908.69141,86.42578,-410.64453,0.2013123845774079,-0.0746095093971788,0.0862005900255235,-7.5,29.7,24.15,-406.73828,13.18359,950.68359,-0.0314426300734534,0.1073843492886795,0.0615528757959344,81.75,4.95,77.1,-998.53516,70.80078,206.05469,0.0038636353651398,0.0746095093971788,-0.0920628019171221,56.25,19.5,1.05
-901.36719,82.51953,-412.59766,0.1168438593015635,-0.0779402957416847,0.0419678381276052,-6.3,29.55,24.0,-402.34375,19.04297,955.07812,0.0181194846954295,0.1033873707686873,0.1586783542743164,81.75,4.95,77.1,-996.09375,67.38281,188.96484,-0.1003230962009608,0.0811377389313384,-0.1099157748357721,56.7,19.8,2.25
-877.44141,95.70313,-406.73828,0.0174532925199432,-0.0074609334864253,0.0247810573844414,-6.9,30.15,22.5,-406.73828,0.48828,941.40625,-0.0298437339457014,0.1044532433428802,0.1172435397002702,82.05,4.65,78.15,-977.53906,72.26563,201.17187,-0.1272358987337882,0.0222496318373489,-0.1196416220925105,56.7,19.8,2.25
-875.97656,70.80078,-409.17969,0.0480965617959833,-0.0269126279999021,0.0732771250462063,-6.0,29.85,23.25,-410.15625,-10.25391,937.5,-0.0054625314928918,0.080871401687484,0.1064518198693389,82.2,4.05,76.2,-975.09766,63.47656,218.26172,-0.1799954566923248,-0.0118575924051242,-0.1429571265040523,55.8,19.2,2.1
-872.07031,69.33594,-407.22656,0.0043966589186989,-0.0495619402359577,0.0783399761403914,-6.0,29.85,23.25,-403.32031,4.88281,921.38672,-0.0383705400063197,0.0712787230526728,0.1496186991930643,80.55,3.15,77.7,-958.98437,69.82422,210.44922,-0.1414915735311527,-0.0381042027624654,-0.0758085505932989,55.8,19.2,2.1
-877.92969,62.01172,-410.15625,-0.0688804661275074,0.074209828998472,0.0247810573844414,-5.4,29.4,23.55,-390.13672,5.85937,902.83203,-0.0520933657830503,0.0755420388165193,0.1445558480988791,83.7,3.3,78.3,-953.125,75.68359,213.37891,-0.1838590920574646,-0.022382800459276,-0.1217733672408963,55.8,19.2,1.35
-886.23047,70.3125,-406.73828,-0.0349065850398865,-0.0069280844657914,0.0426340303030914,-6.9,29.7,23.1,-369.62891,-1.95312,913.57422,-0.0357059458372999,0.1301670046795875,0.141091893132446,81.9,3.75,77.55,-961.91406,62.5,243.16406,-0.1987809590303153,-0.063018428768834,-0.1223062162615302,57.3,19.5,2.1
-896.97266,78.125,-407.71484,-0.0862005900255235,0.0523598775598298,-0.0075941021083525,-5.7,29.7,22.8,-363.76953,-16.60156,894.53125,-0.0683476171068735,0.070346019100407,0.1834594116587579,81.75,2.7,76.35,-958.49609,73.24219,218.26172,-0.246477840427592,-0.0566231933236764,-0.0838025076332833,56.25,18.75,1.65
-909.17969,61.03516,-405.27344,-0.0746095093971788,0.0426340303030914,-0.0211837592631559,-5.7,29.7,22.8,-347.65625,-35.64453,883.78906,-0.0896645449919567,0.1169770279234907,0.1753322859968463,81.75,2.7,76.35,-942.38281,78.125,230.46875,-0.29337518649453,-0.0286446927495813,-0.0639509581881746,57.15,20.1,2.25
-914.0625,76.17188,-397.46094,-0.0783399761403914,0.0118575924051242,0.0287778613715085,-5.7,29.7,22.8,-356.44531,-42.48047,907.71484,-0.0389035635598788,0.0684807857288007,0.1698697545039545,83.55,4.95,77.7,-940.42969,54.19922,228.51562,-0.2791195116971655,0.0094593354799588,-0.1271025555789358,57.0,19.5,1.35
-897.46094,60.54688,-389.16016,-0.1229724084370164,0.0085268060606182,-0.0367718184114929,-6.45,30.15,22.8,-352.53906,-30.76172,902.83203,-0.0440995832759911,0.1356293616395541,0.2102388710367329,82.65,4.8,77.25,-952.63672,65.42969,230.95703,-0.3101622868389871,-0.0103920394322246,-0.0289112045263608,57.9,19.05,2.85
-900.87891,52.24609,-400.39062,-0.132165406673121,-0.0121241041819038,-0.0639509581881746,-5.55,29.85,22.65,-339.84375,-50.78125,924.31641,-0.070346019100407,0.0984578628293545,0.1954501726858094,82.05,4.2,77.4,-964.35547,32.71484,241.21094,-0.3121608633654458,-0.0933951862680945,-0.0488959225933967,57.9,19.05,2.85
-900.39062,47.85156,-403.80859,-0.0956601000384076,-0.0520933657830503,-0.0560903443030425,-7.05,29.25,23.7,-372.07031,-42.48047,944.82422,-0.0688804661275074,0.1425574461053456,0.1766646703478188,82.8,3.45,76.65,-987.30469,30.27344,231.44531,-0.3221532223989637,-0.0499617951675896,0.0245145456076619,56.55,18.75,2.4
-916.99219,28.32031,-410.64453,-0.0868667822010097,-0.0235820161883213,-0.0612863640191548,-6.9,29.7,22.8,-368.16406,-45.41016,958.00781,-0.0893982077481023,0.0979250138087206,0.1690703937065411,82.35,4.2,76.35,-994.14062,42.48047,234.86328,-0.3385406423447141,0.0054625314928918,-0.0013323843509724,56.7,19.05,2.85
-914.0625,37.10938,-401.85547,-0.1175098769441246,0.034640073263107,-0.0871332939777893,-6.9,29.7,22.8,-380.37109,-49.80469,946.28906,-0.0899310567687362,0.1135130729570576,0.1861240058277777,82.35,4.65,77.1,-984.375,37.59766,256.83594,-0.3778438863032995,0.0410353087082646,-0.0141225061754373,57.45,19.05,3.3
-910.64453,17.08984,-407.22656,-0.0889985273493956,-0.020117886688963,-0.0727442760255724,-6.45,29.4,23.85,-410.64453,-47.85156,961.42578,-0.0678147680862396,0.1104486238564059,0.2003798551580673,82.35,4.65,77.1,-989.74609,61.03516,244.14062,-0.3634548683510827,-0.0086599746825454,-0.0530260697353161,55.35,19.05,2.85
-925.29297,18.06641,-424.31641,-0.0427671989250186,-0.0042633157638465,-0.0338407124656936,-7.65,30.6,23.7,-418.94531,-42.48047,980.95703,-0.0235820161883213,0.06634921511334,0.221430271266371,82.35,4.65,77.1,-1007.32422,60.54688,250.97656,-0.3972955808167764,0.0369049870334201,-0.0355727772153728,57.9,20.1,1.2
-941.40625,20.01953,-427.24609,-0.0816707624848974,0.0460979852695246,-0.1275022359776425,-6.0,29.55,24.0,-408.20312,-40.52734,979.00391,-0.0824701232823108,0.0991240550048407,0.2388835637863142,81.15,4.05,76.5,-1002.44141,55.66406,244.14062,-0.4639111331739707,-0.0353062654385932,-0.0892648645932499,57.15,19.35,2.25
-955.07812,22.46094,-431.15234,-0.037970859607613,-0.0130566336012443,-0.0430337107017981,-6.15,29.7,23.1,-419.92187,-49.31641,947.26562,-0.0191853572696224,0.1332312792473139,0.2051760199425478,81.9,3.75,76.5,-1002.92969,52.24609,230.46875,-0.4949540828487175,-0.0570230482553083,-0.1069846688899728,57.15,19.35,2.25
-965.33203,14.64844,-423.82812,-0.0174532925199432,-0.0695466583029936,-0.014522186574144,-6.15,29.7,23.1,-409.66797,-45.89844,952.63672,-0.0366386497895657,0.114312433754471,0.2407487971579206,81.9,5.55,76.95,-1016.11328,20.99609,256.34766,-0.5202679892537928,-0.0331745202902074,-0.1059187963157798,56.7,20.55,1.8
-962.40234,-3.41797,-426.75781,-0.0590214502488418,0.015055210127703,-0.0478300500192038,-7.65,30.3,22.65,-392.08984,-48.82813,961.42578,0.0071944217096458,0.1271025555789358,0.2476768816237121,81.9,5.55,76.95,-1006.34766,-7.8125,252.92969,-0.5209341814292792,-0.1191087730718766,-0.1200413024912172,56.7,20.55,1.8
-944.82422,10.25391,-422.36328,-0.0117244237831971,-0.0287778613715085,-0.0225161436141284,-7.05,30.6,23.25,-378.90625,-29.29688,957.03125,-0.0131899767560967,0.1191087730718766,0.2407487971579206,82.65,4.5,77.25,-1009.76562,-29.29688,246.09375,-0.5184027558821865,-0.0960597804371143,-0.1534823345582041,58.05,19.5,2.7
-931.64062,25.39063,-426.26953,0.0206509102425221,-0.0361056262360067,-0.0229158240128351,-5.25,28.5,23.7,-385.25391,-66.89453,959.96094,0.0106585512090041,0.1637412053685016,0.2376845225901941,81.9,5.25,78.0,-993.65234,-59.08203,274.90234,-0.4861607650113196,-0.1069846688899728,-0.1458882324498516,57.3,20.25,2.7
-927.73437,18.55469,-428.71094,-0.0397029243572922,-0.0511608363637097,-0.0089264864593249,-6.45,28.95,24.15,-381.83594,-54.6875,969.23828,0.0333078634450597,0.2150352103541385,0.2640643015694625,82.35,4.2,75.6,-991.69922,-52.73438,264.16016,-0.4785666629029672,-0.1027213531261262,-0.1075176924435318,57.3,20.25,2.7
-914.55078,0.48828,-417.96875,0.0119907610270514,-0.0281118437289474,0.0146553551960711,-6.45,28.95,24.15,-417.48047,-57.12891,949.70703,0.0538254305327295,0.1822603704626378,0.2143690181786523,83.85,5.4,76.35,-987.79297,-51.26953,285.64453,-0.4484564171804862,-0.0631515973907612,-0.1127137121596442,57.3,20.7,2.7
-919.92187,14.16016,-425.29297,0.0226493122360556,-0.0409019655534123,-0.007860613885132,-6.45,29.4,23.85,-395.01953,-46.875,968.26172,0.027312482931534,0.1847917960097304,0.2447457756779128,81.45,6.3,78.0,-962.89062,-30.76172,291.99219,-0.3462679130749938,-0.0433002224785777,-0.1136462415789847,58.35,20.25,3.75
-948.24219,-6.83594,-415.03906,0.0210505906412288,-0.004529827540626,-0.0427671989250186,-6.6,29.85,23.25,-389.16016,-41.99219,969.23828,0.0467641774450108,0.2017120649761146,0.2496752836172456,82.05,5.7,76.35,-965.33203,-19.53125,275.39062,-0.3032343769061208,0.0261132672024887,-0.0508943245869302,56.4,20.1,2.55
-920.89844,-27.34375,-415.52734,0.1027213531261262,-0.0139893375535101,-0.058088746296576,-7.05,31.05,21.9,-372.55859,-27.83203,965.82031,0.0519601971611231,0.1722680114291199,0.2526063895630449,82.05,5.7,76.35,-943.84766,-34.17969,262.20703,-0.2400826049824344,0.0503614755662963,-0.0334410320669869,57.3,18.75,2.1
-934.08203,-28.80859,-407.71484,0.0664823837352672,-0.0656830229378538,-0.1019218177957876,-7.05,28.8,24.0,-386.23047,-34.66797,923.82812,0.0675482563094601,0.1680045211323481,0.2612665387785156,81.9,5.55,76.95,-929.6875,-23.92578,250.48828,-0.2242282085902431,0.0640843013430269,-0.0351730968166661,57.3,18.75,2.1
-949.21875,-18.55469,-397.94922,0.0238483534321757,-0.0730107878023519,-0.1574793130781963,-7.05,28.8,24.0,-360.83984,-44.92188,917.96875,0.0787396565390981,0.1881225823542364,0.3068315004944811,82.65,6.0,75.75,-928.22266,-35.15625,250.48828,-0.1855911568071438,0.118842261295097,-0.0495619402359577,57.9,19.05,3.3
-943.84766,-20.99609,-403.32031,0.0515605167624164,-0.0599539796681824,-0.1464210814704855,-6.15,30.15,23.1,-364.25781,-52.73438,916.50391,0.0655498543159266,0.2324885028740818,0.308963245642867,83.55,5.4,76.05,-919.92187,-3.90625,242.67578,-0.2019785767528942,0.1175098769441246,-0.0638177895662474,57.9,19.05,3.3
-949.21875,0.0,-412.10937,0.0836691644784309,-0.1608100994227023,-0.0687472975055802,-6.45,28.65,23.1,-389.64844,-41.99219,879.88281,0.0595542992694757,0.266595727116555,0.2984380375887152,82.2,6.0,77.25,-927.73437,24.90234,240.72266,-0.2458116482521058,0.176797838969746,0.0042633157638465,58.2,20.55,3.9
-940.91797,-0.97656,-393.06641,0.0411684773301918,-0.194650811888396,-0.1044532433428802,-5.4,28.65,23.85,-407.22656,-41.50391,909.66797,0.1091164140383586,0.1874563901787501,0.3016354807783688,82.35,4.95,75.6,-954.58984,33.20313,257.32422,-0.2536722621372378,0.1169770279234907,-0.0891316959713228,57.9,19.05,2.25
-928.22266,6.34766,-396.97266,0.0510274932088574,-0.2054425317193273,-0.094860564708069,-7.65,29.25,22.95,-392.57812,-31.25,926.26953,0.0542251109314362,0.2639311329475353,0.3374747697705211,83.1,6.15,75.3,-962.40234,23.92578,253.90625,-0.285514572609398,0.1029876903699806,0.0093261668580317,57.0,19.5,4.5
-909.17969,10.74219,-382.32422,-0.0378376909856858,-0.1596110582265822,-0.0747426780191059,-7.65,29.25,22.95,-399.90234,-16.11328,910.15625,0.0099923590335179,0.2499417953940251,0.2719249154545945,83.1,6.15,75.3,-984.86328,-2.44141,268.06641,-0.3138927535821997,0.0884655037958365,-0.0027979373238721,57.0,19.2,3.15
-898.92578,39.0625,-376.46484,-0.0190520141147701,-0.1910535137671104,0.0070612530877186,-7.65,29.25,22.95,-390.13672,-35.15625,904.78516,0.0279785005740951,0.2776539587242659,0.3432036385072674,82.35,6.15,76.05,-986.81641,3.41797,287.59766,-0.2801852097384332,0.0355727772153728,-0.0007993607974134,57.15,19.35,4.95
-906.73828,46.38672,-361.32812,-0.0827366350590903,-0.1200413024912172,0.0387702204050264,-6.3,29.85,23.7,-415.52734,-33.69141,920.41016,0.0091929982361045,0.2628652603733424,0.2849817235887641,83.25,6.3,75.15,-991.69922,-18.06641,278.32031,-0.2964394610622565,0.058088746296576,0.0190520141147701,57.0,19.95,3.75
-903.80859,67.38281,-362.30469,-0.1641408857672083,-0.1244379614099161,0.0155880591483369,-5.4,31.95,22.8,-411.13281,-64.94141,949.70703,0.0422343499043847,0.2143690181786523,0.3016354807783688,82.35,6.6,76.35,-1005.85937,-41.99219,287.59766,-0.3197549654737983,0.068081105330094,0.0656830229378538,57.0,19.95,3.75
-908.20312,58.59375,-359.375,-0.1267028751802291,-0.1164441789028568,0.1273690673557154,-5.7,30.45,22.8,-412.59766,-55.17578,951.17187,0.0702128504784798,0.1672051603349347,0.282183786264892,82.35,6.6,76.35,-995.11719,-37.10938,297.85156,-0.3142924339809064,0.0834028272345766,0.0275788201753884,57.0,20.25,2.7
-925.78125,62.01172,-353.51562,-0.1309663654770009,-0.1283017713079811,0.0652833425391471,-6.3,30.3,23.7,-412.10937,-20.01953,958.49609,0.0666155523571943,0.1033873707686873,0.2335543754482748,83.25,6.3,75.75,-1018.55469,-46.875,276.85547,-0.3278820911357099,0.0730107878023519,0.0635512777894679,57.0,20.25,2.7
-892.57812,69.33594,-354.98047,-0.1488193383956508,-0.0619525561946411,0.0698131700797731,-6.3,30.3,23.7,-413.08594,19.53125,947.75391,0.0282450123508746,0.1576124817001235,0.2639311329475353,81.75,6.9,75.3,-997.55859,-55.66406,311.52344,-0.2976385022583765,0.0426340303030914,0.0279785005740951,57.9,20.85,2.85
-888.18359,94.23828,-345.21484,-0.171202138854927,-0.0740764858436197,0.1693369054833206,-5.1,30.45,23.85,-434.08203,40.03906,930.17578,-0.0001331686219271,0.1192419416938038,0.2984380375887152,81.75,6.9,75.3,-997.07031,-71.77734,300.78125,-0.2356861205966606,0.0255804181818548,0.0195850376683291,56.25,21.45,3.15
-892.57812,100.58594,-354.00391,-0.1728008604497538,-0.0251807377831481,0.1562802718820762,-5.7,30.15,23.55,-445.3125,24.41406,928.22266,-0.0254472495599277,0.1613431229762614,0.2781868077448998,83.85,6.9,74.85,-971.67969,-49.31641,307.12891,-0.1982481100096814,0.0369049870334201,0.0217166082837898,58.2,20.55,4.35
-872.55859,112.30469,-347.65625,-0.2119709357864121,0.0274456515534612,0.0555574952824086,-5.25,29.85,24.0,-427.24609,18.55469,940.42969,-0.0007993607974134,0.1252373222073295,0.2657963663191416,83.1,7.35,76.05,-987.30469,-47.36328,326.17187,-0.2239616968134635,0.0349065850398865,0.0405022851547056,57.6,20.25,4.2
-884.76562,113.76953,-358.88672,-0.1576124817001235,0.0098591904115907,0.0779402957416847,-5.25,29.85,24.0,-410.15625,23.4375,951.66016,-0.055823832526263,0.1211071750654101,0.2338208872250543,83.25,7.5,75.15,-987.79297,-16.11328,334.96094,-0.1814610096652244,0.0542251109314362,0.0447657754514773,57.3,21.0,3.45
-888.18359,117.1875,-350.09766,-0.2419480128869659,0.1029876903699806,-0.0034639549664331,-7.2,29.4,22.8,-413.57422,5.85937,957.51953,-0.0646171503636608,0.0867336135790826,0.2432802227050131,83.25,7.5,75.15,-993.16406,-37.10938,329.58984,-0.3276155793589304,0.0794058487145844,-0.0712787230526728,57.3,20.25,4.8
-899.90234,122.07031,-360.35156,-0.2648636623668758,0.0812710820861907,0.0009327039522657,-6.0,31.05,23.7,-411.13281,-2.44141,952.14844,-0.0506278128101507,0.0676814249313873,0.2378176912121213,82.2,6.75,75.75,-968.75,-6.34766,317.38281,-0.1454885520511449,0.1012558001532266,-0.050228132411444,57.3,20.25,4.8
-903.80859,112.79297,-361.81641,-0.2299570773269893,0.075275701572665,0.0755420388165193,-6.3,29.25,22.65,-428.22266,-11.71875,945.80078,-0.0050628510941851,0.0182526533173567,0.2367519931708536,83.1,6.6,75.3,-959.96094,-21.48438,310.05859,-0.1428239578821251,0.0157212277702641,0.0855343978500373,57.3,20.25,4.8
-896.48437,100.09766,-366.21094,-0.2519401973875587,0.0543582795533633,-0.0363721380127862,-7.2,30.15,25.2,-418.94531,-12.69531,927.73437,0.0102588708102974,0.0602204914449619,0.18625734898263,82.65,7.05,75.45,-960.9375,-22.94922,314.94141,-0.0579555776746489,0.0734104682010586,0.0937948666668012,58.35,20.25,2.4
-918.94531,99.12109,-390.625,-0.2410153089347001,0.0575558972759422,-0.0531592383572432,-7.2,30.15,25.2,-419.43359,-15.13672,940.42969,0.0492956029921034,0.0377045223637587,0.1417580853079322,82.8,7.35,75.6,-956.05469,-25.87891,307.12891,0.0358392889921523,0.015055210127703,0.0710122112758932,57.45,20.1,3.6
-938.96484,131.34766,-402.34375,-0.1825268822394173,0.0289112045263608,-0.0117244237831971,-7.2,30.9,24.6,-428.71094,-0.48828,950.68359,0.0579555776746489,0.0442327518979182,0.1256370026060362,82.35,8.1,74.85,-987.79297,-43.94531,312.01172,-0.0049295079393327,-0.0394364125805126,0.242081181508893,57.0,19.5,3.45
-941.89453,143.06641,-403.32031,-0.198514621786461,0.0211837592631559,-0.0254472495599277,-6.0,29.85,24.3,-418.45703,7.32422,918.94531,0.0539585991546566,0.0194516945134768,0.0960597804371143,83.1,8.1,75.3,-964.35547,-42.96875,297.36328,0.1164441789028568,-0.0242480338308824,0.1015221373970809,57.0,19.5,3.45
-942.87109,142.08984,-402.83203,-0.2212971026444438,0.0069280844657914,-0.0275788201753884,-5.4,30.45,23.85,-414.55078,-0.97656,910.64453,0.0479632186411309,-0.027312482931534,0.0710122112758932,83.1,8.1,75.3,-990.72266,-35.64453,286.13281,0.1334976164911682,-0.0472970264656447,0.1280352595312016,57.0,20.7,3.45
-922.36328,145.99609,-385.74219,-0.2335543754482748,-0.0446324322966249,0.0266462907560478,-6.6,29.85,24.0,-409.66797,5.37109,919.43359,0.0447657754514773,0.0185191650941362,0.0674150876875329,83.1,8.1,75.3,-976.07422,-35.64453,296.875,0.1401591891801802,-0.1077840296873862,0.1115144964305989,57.6,21.0,3.75
-902.34375,137.69531,-381.83594,-0.2131699769825322,-0.0997902471803269,0.0899310567687362,-6.6,29.85,24.0,-386.71875,6.83594,902.34375,0.0763415741468579,-0.0684807857288007,0.0297105653237742,81.45,7.5,75.75,-955.56641,-11.23047,282.71484,0.1681378642872005,-0.1119141768293056,0.1894547921722836,57.6,21.0,3.75
-885.74219,122.55859,-362.30469,-0.2161010829283315,-0.0584886012282079,-0.0107917198309313,-5.25,30.6,25.05,-385.25391,0.48828,921.875,0.0620857248165682,-0.0907304175661496,0.068614128883653,81.9,8.55,75.15,-979.49219,-6.34766,288.57422,0.1597442268485094,-0.118842261295097,0.1133797298022052,56.4,19.8,4.65
-872.07031,109.375,-356.93359,-0.1921193863413034,-0.1028545217480534,0.0500949637895168,-6.15,31.95,24.15,-377.44141,-6.34766,899.41406,0.1091164140383586,-0.1041869060990259,-0.0107917198309313,82.35,8.1,74.25,-960.44922,-9.27734,264.16016,0.2204977418470304,-0.1235054319905755,0.1605435876459228,56.4,19.8,4.65
-843.26172,95.70313,-345.21484,-0.1470872736459717,-0.0571562168772355,-0.0508943245869302,-6.15,30.15,23.1,-394.04297,0.97656,897.46094,0.1057856276938527,-0.1225727280383097,0.0003996803987067,82.35,8.1,74.25,-959.96094,-13.67187,279.29687,0.1861240058277777,-0.1137794102009119,0.1624088210175291,57.45,20.85,4.35
-840.82031,93.75,-349.60937,-0.1837259234355374,-0.0265129476011954,-0.0345069046411798,-7.2,31.2,22.8,-412.59766,26.85547,900.87891,0.1473537854227512,-0.1187090926731699,0.0042633157638465,83.1,9.9,75.6,-942.87109,-0.48828,274.90234,0.1625421641723815,-0.1374945950111605,0.1060521394706322,57.9,21.15,3.9
-846.19141,112.79297,-364.74609,-0.1329647674705344,-0.0083936374386911,-0.0277121633302407,-7.2,31.2,22.8,-398.4375,22.46094,923.82812,0.1554809110846628,-0.1384272989634262,0.0062618922903052,83.85,8.1,75.3,-944.82422,-19.04297,265.13672,0.1794624331387657,-0.0539585991546566,0.1390934911389125,57.3,21.45,3.15
-861.32812,132.8125,-365.72266,-0.1083170532409452,0.0237151848102485,0.0401026047559989,-6.45,30.9,24.15,-413.57422,31.73828,916.99219,0.0941945470655079,-0.1446891912537315,-0.0197182062902563,83.85,8.1,75.3,-954.10156,-11.23047,272.46094,0.1328315988486072,-0.0679479367081668,0.0586217698501351,57.9,21.6,3.3
-891.11328,143.55469,-369.62891,-0.1557472483285172,0.08420218803199,-0.0310429496747467,-7.2,31.2,24.9,-411.62109,26.36719,903.80859,0.0892648645932499,-0.1736002212471671,-0.0462311538914518,81.15,8.55,74.7,-974.12109,-17.08984,254.39453,0.1605435876459228,-0.0683476171068735,0.0850015488294034,56.7,20.55,2.55
-929.6875,140.625,-386.23047,-0.11990813386929,-0.0233155044115418,0.0333078634450597,-7.05,31.8,24.3,-397.94922,28.80859,926.26953,0.0919296332951949,-0.1251041535854023,-0.0850015488294034,83.1,7.65,75.6,-959.96094,-27.34375,259.27734,0.1600107386252889,-0.0691469779042869,0.0707458740320389,56.55,21.45,2.7
-941.40625,139.16016,-398.4375,-0.1177763887209041,-0.0366386497895657,0.0274456515534612,-6.6,31.8,23.7,-410.15625,14.16016,925.29297,0.0325085026476463,-0.1292343007273217,-0.073676805444913,81.45,9.3,76.2,-954.58984,-27.34375,252.44141,0.1997136629825811,-0.0695466583029936,0.0454317930940384,56.55,21.45,2.7
-948.24219,129.39453,-395.01953,-0.1285681085518354,-0.0231821612566894,-0.0535589187559499,-6.6,31.8,23.7,-405.76172,11.71875,915.52734,0.0567565364785288,-0.1697365858820273,-0.1031210335248329,81.45,9.3,76.2,-952.63672,-19.53125,242.1875,0.2022450885296737,-0.0921959705390492,0.0099923590335179,57.9,21.6,3.9
-954.58984,129.39453,-394.53125,-0.1353630243956998,-0.073676805444913,-0.0270459711547545,-6.9,32.4,23.85,-392.57812,26.85547,928.71094,0.0851347174513306,-0.1374945950111605,-0.1448223598756587,82.35,9.15,75.3,-959.47266,-28.80859,247.07031,0.1492190187943576,-0.1127137121596442,0.031309286918601,57.9,21.6,3.9
-953.125,126.95313,-400.39062,-0.1071178375118999,-0.1117810082073784,-0.0110582316077108,-6.0,31.35,24.75,-389.64844,12.20703,947.26562,0.0570230482553083,-0.1035207139235396,-0.152283293362084,81.45,8.25,75.45,-962.40234,-2.92969,243.65234,0.1584120170304621,-0.0410353087082646,-0.0002665117767795,55.35,21.6,3.6
-967.77344,126.95313,-400.87891,-0.1414915735311527,-0.093128674491315,-0.0921959705390492,-6.3,31.8,24.75,-409.17969,12.20703,946.77734,0.0788728251610253,-0.0968591412345277,-0.1196416220925105,83.7,8.25,76.2,-959.47266,-20.01953,262.69531,0.1561469287272238,-0.0466310088230837,0.011191400229638,56.7,20.55,3.3
-967.77344,107.91016,-401.36719,-0.1402925323350325,-0.0968591412345277,-0.1236386006125027,-6.15,32.4,24.9,-405.76172,1.95312,952.63672,-0.0147886983509235,-0.0755420388165193,-0.1430902951259795,82.05,8.1,75.3,-977.53906,-21.48438,252.44141,0.1157779867273706,-0.0460979852695246,0.0330413516682802,55.35,20.55,4.95
-986.81641,119.62891,-395.01953,-0.0702128504784798,-0.1528161423827179,-0.0546247913301429,-6.15,32.4,24.9,-402.83203,8.78906,942.38281,0.0225161436141284,-0.0901975685455157,-0.1084502218628724,82.8,8.4,75.3,-987.79297,-11.23047,229.49219,0.1632081818149425,-0.0394364125805126,-0.0099923590335179,56.25,20.7,1.65
-996.58203,94.72656,-395.99609,-0.0568897051004559,-0.1641408857672083,-0.1374945950111605,-5.7,31.65,24.9,-409.17969,10.74219,956.54297,0.0035972981212855,-0.093128674491315,-0.1582786738756097,82.8,7.65,75.6,-997.07031,-17.08984,261.23047,0.175731966395553,-0.059687642424328,0.0783399761403914,56.25,20.7,1.65
-983.88672,93.75,-387.20703,0.0194516945134768,-0.2151683789760657,-0.1052526041402936,-6.3,31.8,24.75,-411.13281,5.85937,930.66406,-0.0403691165327784,-0.0828698036810175,-0.2033109611038666,82.8,7.65,75.6,-981.44531,5.37109,258.30078,0.1698697545039545,-0.0748760211739583,0.0454317930940384,57.0,20.7,3.75
-960.44922,98.14453,-372.07031,0.014522186574144,-0.2363521382392217,-0.0604870032217414,-6.15,31.65,24.15,-423.33984,0.48828,931.15234,-0.0383705400063197,-0.0824701232823108,-0.1497518678149914,81.3,7.65,74.85,-992.1875,2.92969,256.83594,0.181327666510372,-0.0131899767560967,-0.0002665117767795,57.6,20.25,3.75
-940.91797,75.19531,-370.60547,-0.0067947413109391,-0.1949173236651755,-0.1085833904847996,-6.6,33.3,27.15,-421.38672,34.17969,947.26562,-0.0305099261211876,-0.1460214010717788,-0.1882557509761635,82.35,7.65,77.4,-1003.90625,-5.85937,258.78906,0.2073077650909336,-0.0666155523571943,0.105385947295146,57.6,20.25,3.75
-905.27344,101.5625,-352.53906,0.0318423104721601,-0.2211639340225166,-0.1382939558085739,-6.6,33.3,27.15,-413.57422,24.41406,960.44922,-0.0679479367081668,-0.1444226794769519,-0.1819938586858583,84.0,7.5,74.4,-984.86328,24.90234,265.13672,0.1618759719968953,-0.0102588708102974,-0.0207840788644492,55.2,21.0,3.15
-907.22656,102.53906,-346.19141,0.077540615342978,-0.1521501247401568,-0.1183094122744632,-6.6,33.3,27.15,-393.55469,24.90234,966.30859,-0.03064326927604,-0.3116278398118867,-0.1758653095504054,84.0,7.5,74.4,-996.09375,3.41797,271.97266,0.1609432680446295,0.0097258472567384,-0.0153215473715574,55.2,21.0,3.15
-891.11328,84.96094,-343.26172,0.0698131700797731,-0.079272505559732,-0.1231057515918688,-5.4,31.65,25.65,-424.80469,11.71875,935.54687,-0.1019218177957876,-0.196249708016148,-0.1670719917130076,82.8,7.65,76.35,-995.11719,19.04297,273.92578,0.2073077650909336,-0.0892648645932499,-0.0270459711547545,57.0,19.5,2.7
-913.08594,66.89453,-348.63281,0.068081105330094,-0.0447657754514773,-0.1426906147272728,-5.25,31.05,25.05,-433.10547,4.88281,932.12891,-0.0838025076332833,-0.2290245479076487,-0.1544150385104699,81.3,7.35,76.35,-987.79297,14.16016,265.13672,0.1889219431516497,-0.0241148652089552,0.0202512298438154,56.7,20.1,3.9
-922.85156,73.73047,-355.95703,0.1216401986189692,-0.0612863640191548,-0.1031210335248329,-5.7,32.4,25.65,-396.97266,-40.52734,945.3125,-0.0722112524720134,-0.2418146697321135,-0.1714686506317065,81.3,7.35,76.35,-967.77344,18.06641,274.90234,0.1670719917130076,-0.0131899767560967,-0.0241148652089552,56.55,21.0,4.2
-925.29297,61.52344,-338.86719,0.1019218177957876,0.0001331686219271,-0.1079173728422385,-5.7,32.4,25.65,-399.90234,-33.69141,907.22656,-0.0983246942074273,-0.2424808619075998,-0.211437912232853,80.55,7.65,76.65,-981.93359,37.10938,280.76172,0.1986477904083882,-0.0302434143444081,-0.041834669505678,57.6,19.95,4.8
-933.59375,52.73438,-357.91016,0.0855343978500373,0.0194516945134768,-0.0992572236267679,-5.25,32.1,24.3,-377.44141,-31.73828,920.41016,-0.0675482563094601,-0.1450888716524382,-0.2131699769825322,81.15,7.05,76.2,-975.09766,9.27734,282.71484,0.1682710329091277,0.0139893375535101,0.0546247913301429,55.65,21.9,3.9
-945.3125,64.45313,-358.39844,0.1056524590719255,-0.0279785005740951,-0.0832694840797242,-6.45,31.95,25.65,-380.85937,11.23047,923.33984,-0.004529827540626,-0.0802052095119978,-0.2126371279618983,82.35,7.35,76.05,-1003.90625,36.13281,281.73828,0.177330862523305,-0.0182526533173567,-0.0030642745677264,57.15,20.55,3.6
-950.19531,60.54688,-368.65234,0.0858009096268168,0.0146553551960711,-0.1581455052536826,-5.55,31.8,24.75,-380.85937,5.85937,941.40625,-0.0138559943986577,-0.0904640803222952,-0.1947841550432483,82.35,7.35,76.05,-987.30469,22.94922,261.71875,0.2837825078597188,-0.0067947413109391,0.0933951862680945,57.15,20.55,3.6
-962.89062,74.21875,-366.21094,0.0840688448771376,0.0098591904115907,-0.0538254305327295,-4.95,31.8,24.3,-385.25391,17.08984,974.60937,-0.0265129476011954,-0.0867336135790826,-0.2512741797449976,81.75,6.9,77.1,-987.79297,29.78516,251.46484,0.218632508475424,0.0011990411961201,0.0058622118915985,56.25,20.25,3.15
-960.44922,85.44922,-380.85937,0.1229724084370164,-0.0668820641339739,-0.0365053066347134,-4.95,31.8,24.3,-395.01953,17.08984,944.82422,-0.0544916227082157,-0.1125803690047918,-0.1989143021851677,82.95,7.8,74.7,-980.95703,64.94141,291.99219,0.1889219431516497,-0.0361056262360067,-0.0153215473715574,56.25,20.25,3.15
-948.73047,71.77734,-359.375,0.0358392889921523,-0.040235773377926,-0.0583552580733556,-4.35,30.9,24.6,-381.83594,12.20703,948.24219,-0.0776737839649052,-0.1237717692344298,-0.2444792639011333,82.05,7.35,76.05,-974.12109,40.52734,306.64062,0.172401180051047,-0.0110582316077108,0.0217166082837898,56.7,20.55,2.25
-919.92187,64.94141,-353.51562,0.0170536121212365,-0.0237151848102485,-0.0872664625997164,-5.4,30.45,26.25,-365.23437,21.48438,950.68359,-0.0787396565390981,-0.0939280352887284,-0.2071745964690065,82.05,7.35,76.05,-969.23828,55.66406,306.15234,0.1653399269633284,-0.006128723668378,-0.0439662401211387,56.25,21.0,2.7
-932.61719,49.80469,-341.30859,0.1095160944370653,-0.0543582795533633,-0.0279785005740951,-5.1,30.45,24.9,-342.77344,6.34766,955.07812,-0.0378376909856858,-0.1709356270781474,-0.1883889195980907,82.95,6.0,76.95,-973.63281,45.89844,300.29297,0.1477534658214579,0.0405022851547056,-0.0369049870334201,57.15,20.1,4.35
-933.10547,51.26953,-332.51953,0.0810045703094112,-0.1051194355183664,-0.029044373148288,-4.05,30.15,26.7,-358.88672,-12.69531,950.68359,-0.0900643999235885,-0.0711455544307456,-0.1906538333684037,81.45,6.0,77.25,-972.16797,58.10547,288.57422,0.1818606900639311,0.0115910806283447,-0.067015232755901,57.45,20.55,3.3
-915.03906,39.55078,-354.98047,0.0411684773301918,-0.0860674214035963,-0.0638177895662474,-4.05,30.15,26.7,-356.93359,0.97656,938.96484,-0.045165455850184,-0.1350965126189202,-0.1945176432664688,81.75,6.9,77.1,-962.40234,26.36719,312.01172,0.1633415249697949,0.0062618922903052,-0.0967257980796753,58.8,19.2,2.4
-911.13281,37.10938,-335.44922,0.1185757495183175,-0.0991240550048407,-0.0377045223637587,-4.5,31.05,24.75,-357.42187,-15.625,948.24219,-0.0760750623700784,-0.0947273960861418,-0.1705359466794407,81.75,6.9,77.1,-949.70703,22.94922,298.82812,0.1653399269633284,0.0542251109314362,-0.0847350370526239,56.55,20.7,3.45
-902.34375,43.94531,-345.70312,0.1025880099712739,-0.0516936853843436,-0.0739433172216925,-5.1,31.2,24.6,-371.09375,0.0,941.89453,-0.0390367321818059,-0.1626753327943086,-0.1600107386252889,82.05,5.7,74.85,-962.40234,39.55078,308.59375,0.1863905176045572,-0.0519601971611231,0.0058622118915985,56.55,20.7,3.45
-906.73828,26.85547,-341.79687,0.0568897051004559,0.0107917198309313,-0.0455651362488907,-5.7,31.2,25.2,-367.67578,1.46484,960.9375,-0.0618192130397887,-0.1420244225517865,-0.1502848913685505,82.2,6.0,77.25,-945.3125,47.36328,307.61719,0.1732005408484604,-0.0135896571548034,0.0013323843509724,56.1,20.1,3.3
-935.05859,41.99219,-342.28516,0.1267028751802291,-0.0480965617959833,0.0243813769857347,-5.25,30.3,24.0,-365.23437,-14.64844,949.70703,-0.0811377389313384,-0.0959264372822619,-0.1580123366317554,81.45,5.55,76.5,-959.47266,51.75781,302.24609,0.1386936362072806,-0.0131899767560967,-0.005595700114819,57.3,21.45,3.45
-931.64062,44.43359,-348.63281,0.1484196579969441,-0.0419678381276052,-0.0718115720733066,-5.25,30.3,24.0,-374.02344,-29.29688,940.91797,-0.096459460835821,-0.1606769308007752,-0.1634746935917221,81.45,6.3,76.2,-966.79687,50.29297,320.80078,0.1428239578821251,0.011191400229638,0.0174532925199432,57.3,21.45,3.45
-904.29687,38.57422,-348.63281,0.1119141768293056,-0.0907304175661496,-0.0377045223637587,-4.35,30.45,24.6,-354.98047,-20.01953,945.80078,-0.1314992144976347,-0.2322219910973023,-0.1394931715376192,81.75,7.35,78.45,-959.47266,58.10547,318.84766,0.1412250617543731,-0.0126569532025376,-0.045165455850184,57.15,19.35,3.3
-904.78516,41.99219,-334.47266,0.0883323351739094,-0.0504946441882235,-0.0157212277702641,-4.65,30.15,23.55,-356.93359,-33.20313,938.47656,-0.122173047639603,-0.1324319184499005,-0.1777305429220118,81.75,5.4,77.1,-958.00781,78.125,333.98437,0.1035207139235396,-0.0225161436141284,-0.0911300979648563,57.15,21.6,3.6
-902.83203,30.27344,-344.72656,-0.0033307863445059,-0.0117244237831971,-0.086467101802303,-4.95,30.3,25.8,-346.67969,-37.10938,948.73047,-0.0182526533173567,-0.1496186991930643,-0.1401591891801802,81.75,5.4,77.1,-937.98828,42.48047,313.96484,0.05475795995207,-0.0126569532025376,-0.0267794593779749,56.7,21.15,2.85
-889.16016,18.55469,-338.86719,0.0494287716140306,-0.0074609334864253,-0.1465544246253378,-5.25,30.3,26.4,-348.63281,-15.625,942.87109,-0.0162542513238231,-0.1204409828899239,-0.1863905176045572,80.4,5.55,77.25,-933.59375,61.03516,329.10156,0.0735436368229858,-0.0381042027624654,-0.0163874199457503,57.0,19.5,4.5
-908.20312,25.87891,-355.46875,0.1021883295725672,-0.0074609334864253,-0.0654165111610742,-5.25,30.3,26.4,-352.05078,-34.66797,948.73047,-0.059154618870769,-0.1644073975439878,-0.167871352510421,82.2,5.55,76.95,-956.05469,48.82813,318.35937,0.0917962901403425,-0.005595700114819,-0.0868667822010097,57.0,19.5,4.5
-913.57422,38.57422,-347.65625,0.0676814249313873,0.0221164632154217,-0.0530260697353161,-4.05,30.45,24.9,-344.72656,-12.69531,952.14844,-0.050228132411444,-0.0993905667816202,-0.0780734643636119,80.85,4.05,76.95,-940.91797,45.41016,312.98828,0.0628850856139816,-0.0178529729186499,-0.1496186991930643,58.05,19.5,3.15
-909.66797,61.03516,-340.82031,0.0815375938629702,-0.0616860444178615,-0.0027979373238721,-5.1,30.9,25.65,-328.61328,-21.48438,955.07812,-0.0667488955120467,-0.0867336135790826,-0.1292343007273217,80.85,4.05,76.95,-939.94141,41.50391,292.48047,0.0550244717288496,-0.0034639549664331,-0.1409587245105188,58.05,19.5,3.15
-906.25,47.85156,-350.09766,0.0620857248165682,-0.041301645952119,0.0091929982361045,-4.65,29.4,25.2,-343.26172,-26.36719,945.80078,-0.0688804661275074,-0.1064518198693389,-0.0992572236267679,82.95,5.25,76.2,-945.3125,37.59766,294.43359,0.0722112524720134,0.0199847180670358,-0.1762649899491121,55.8,18.75,3.45
-917.48047,40.03906,-351.07422,-0.0071944217096458,0.0001331686219271,-0.0571562168772355,-4.2,29.55,24.75,-325.68359,-36.13281,944.33594,-0.0527595579585365,-0.0960597804371143,-0.0989908863829135,81.15,4.8,77.25,-960.44922,39.55078,285.64453,0.1175098769441246,0.0334410320669869,-0.1494855305711371,56.1,19.35,3.6
-922.85156,15.625,-363.28125,0.0194516945134768,-0.0662158719584876,0.0113245688515652,-4.2,29.55,24.75,-360.83984,-26.85547,953.125,-0.0660827033365605,-0.0996569040254746,-0.1401591891801802,81.15,4.8,77.25,-954.10156,17.08984,284.66797,0.0800720408900706,0.0242480338308824,-0.1031210335248329,56.55,19.5,3.15
-901.85547,21.48438,-373.53516,0.0678147680862396,-0.0648836621404404,-0.0141225061754373,-6.0,29.85,25.35,-361.32812,-43.45703,959.96094,-0.0353062654385932,-0.0778071271197576,-0.131099534098928,80.4,6.0,78.6,-964.84375,25.87891,278.32031,0.1015221373970809,0.0369049870334201,-0.1426906147272728,56.1,18.6,2.85
-912.59766,32.71484,-366.69922,-0.0015987215948268,0.0209172474863764,-0.0806048899107045,-4.5,29.25,25.8,-373.53516,-54.19922,960.44922,-0.0835359958565038,-0.1211071750654101,-0.1482863148420918,81.0,3.9,78.15,-981.93359,14.64844,270.01953,0.0674150876875329,0.0399694361340717,-0.1087167336396519,57.15,20.55,3.3
-917.96875,36.62109,-373.53516,0.0337075438437664,-0.0367718184114929,-0.0347734164179594,-4.05,31.2,23.55,-368.16406,-59.08203,963.86719,-0.0462311538914518,-0.1204409828899239,-0.1097826062138449,81.3,3.9,77.4,-960.9375,7.8125,266.11328,0.0807380585326316,0.0991240550048407,-0.1169770279234907,57.6,19.95,1.65
-927.73437,19.04297,-386.71875,0.0270459711547545,-0.0333078634450597,-0.0403691165327784,-5.1,29.4,25.65,-374.02344,-61.52344,957.03125,-0.0535589187559499,-0.1203078142679967,-0.1191087730718766,81.3,3.9,77.4,-967.77344,35.64453,254.88281,0.0924624823158288,0.1233720888357231,-0.089797888146809,57.6,19.95,1.65
-945.3125,6.34766,-398.4375,0.0157212277702641,-0.0135896571548034,-0.0631515973907612,-5.1,29.4,25.65,-383.78906,-57.12891,939.94141,-0.0711455544307456,-0.1259035143828157,-0.1115144964305989,79.8,5.4,78.45,-947.26562,51.75781,247.07031,0.1135130729570576,0.0695466583029936,-0.0191853572696224,57.0,18.45,2.7
-977.05078,9.27734,-403.80859,-0.0037304667432126,0.0147886983509235,-0.0337075438437664,-3.75,30.3,26.1,-361.32812,-74.21875,917.96875,-0.0318423104721601,-0.0209172474863764,-0.1004564393558132,81.9,5.55,78.3,-969.23828,74.21875,242.1875,0.1065849884912661,0.0554241521275563,-0.0944608843093623,57.0,18.45,2.7
-971.67969,-6.34766,-404.29687,0.0658161915597809,-0.1032542021467601,-0.0583552580733556,-6.6,29.85,24.3,-385.25391,-50.29297,915.52734,0.0604870032217414,-0.0355727772153728,-0.0740764858436197,81.15,4.05,77.25,-963.37891,72.75391,254.39453,0.054091942309509,0.0782068075184643,-0.0690138092823597,57.45,19.35,2.55
-964.84375,-18.06641,-394.04297,0.0746095093971788,-0.0515605167624164,-0.0844685252758443,-3.75,31.05,24.75,-375.48828,-21.48438,918.94531,0.0989908863829135,-0.0307764378979672,-0.0880658233971298,81.75,3.45,78.45,-963.37891,66.40625,246.58203,0.0015987215948268,0.0904640803222952,-0.074209828998472,57.9,19.35,2.25
-956.05469,-10.25391,-398.92578,0.0855343978500373,0.0173201238980161,-0.1005896079777403,-3.75,31.05,24.75,-384.27734,-25.87891,942.38281,0.0772741035661985,0.0422343499043847,-0.0723445956268657,80.25,5.4,77.4,-979.00391,62.5,251.95312,-0.0086599746825454,0.0984578628293545,-0.0778071271197576,58.35,20.25,3.45
-958.00781,-5.85937,-392.57812,0.1518836129633773,-0.0714118916745999,-0.0531592383572432,-3.75,31.05,24.75,-383.78906,-20.01953,947.75391,0.0723445956268657,0.0315757986953806,-0.0422343499043847,81.15,6.0,77.55,-967.28516,38.08594,251.46484,-0.0283781809728018,0.0393032439585855,-0.0959264372822619,56.55,18.75,2.4
-950.19531,2.92969,-383.30078,0.098724374606134,-0.0299770771005538,-0.0912634411197086,-3.75,31.05,24.75,-386.71875,-5.85937,954.10156,0.0433002224785777,0.041834669505678,0.0002665117767795,81.15,6.0,77.55,-975.58594,60.54688,230.46875,-0.0873996312216436,0.0764747427687851,-0.0391699008037331,57.3,19.2,3.45
-948.73047,24.90234,-377.44141,0.1228392398150893,-0.0217166082837898,-0.0516936853843436,-4.2,29.55,26.4,-369.62891,-33.20313,957.51953,-0.0066615726890119,0.0287778613715085,-0.0229158240128351,81.0,4.2,78.15,-982.42187,42.96875,259.76562,-0.0447657754514773,0.06634921511334,0.0049295079393327,56.7,19.35,2.55
-942.87109,2.92969,-365.23437,0.1360290420382608,-0.0783399761403914,-0.0245145456076619,-4.5,29.55,26.1,-390.625,-30.76172,918.94531,0.0218499514386422,0.0588882816269146,0.0171867807431637,81.15,4.5,78.3,-971.67969,30.76172,239.74609,-0.08420218803199,0.0672817445326806,-0.0671485759107534,56.7,19.35,2.55
-942.38281,6.34766,-368.65234,0.080871401687484,-0.0459648166475974,-0.1538820149569108,-4.35,29.7,24.6,-374.51172,-41.99219,939.94141,0.0387702204050264,0.0810045703094112,0.0057288687367461,79.8,4.65,78.45,-985.83984,13.18359,264.64844,-0.071944915228159,0.063018428768834,-0.0338407124656936,57.3,18.75,3.15
-934.57031,6.83594,-360.35156,0.0699463387017003,-0.0259800985805615,-0.0706125308771865,-4.35,29.7,24.6,-440.42969,-11.23047,871.58203,0.1013889687751538,0.3567932956620708,-0.0053291883380394,79.8,4.65,78.45,-967.77344,30.27344,251.46484,-0.0823369546603836,0.0656830229378538,-0.0218499514386422,57.3,18.75,3.15
-921.875,11.23047,-369.62891,0.1096492630589925,-0.0319754790940873,-0.0003996803987067,-4.95,29.25,25.8,-385.25391,-15.13672,920.41016,0.0783399761403914,0.1700030976588069,-0.0085268060606182,81.3,4.95,78.45,-973.14453,33.69141,242.1875,-0.0740764858436197,0.0611531953972277,-0.063684446411395,57.3,18.75,3.15
-926.75781,12.20703,-370.11719,0.063684446411395,-0.0173201238980161,-0.0385038831611721,-4.35,30.15,25.2,-397.46094,-15.625,946.28906,0.1388269793621329,0.1875895588006773,0.0142556747973644,82.05,4.65,76.65,-962.40234,32.22656,257.32422,-0.0480965617959833,0.0584886012282079,-0.0464976656682313,56.4,19.35,2.25
-941.40625,-2.92969,-361.32812,0.0527595579585365,0.0839356762552105,-0.0800720408900706,-4.2,29.85,23.25,-377.92969,-14.16016,958.00781,0.0317089673173077,0.1608100994227023,0.0079939570399844,82.05,4.65,76.65,-966.30859,46.875,240.23437,-0.1049862668964393,0.0508943245869302,-0.0618192130397887,57.45,17.85,2.55
-915.03906,-25.39063,-351.5625,0.0888651841945432,-0.0334410320669869,-0.0900643999235885,-4.35,28.95,24.9,-358.39844,-22.94922,956.54297,0.0225161436141284,0.1360290420382608,0.0442327518979182,82.05,4.65,76.65,-958.49609,30.76172,236.81641,-0.1220398790176759,0.0925956509377559,-0.0456983048708179,57.15,19.05,2.55
-923.82812,8.30078,-344.72656,0.0279785005740951,0.0664823837352672,-0.1408253813556664,-4.35,28.95,24.9,-363.28125,-42.48047,922.85156,0.0226493122360556,0.0860674214035963,0.0760750623700784,82.95,4.05,78.0,-951.17187,51.75781,240.23437,-0.1096492630589925,0.0928621627145355,-0.0321086477160144,56.7,17.55,2.85
-921.875,-20.50781,-353.02734,0.0255804181818548,0.1167105161467112,-0.0266462907560478,-3.45,29.85,25.05,-368.65234,-53.71094,906.73828,0.0121241041819038,0.1036538825454668,0.093128674491315,81.0,4.65,77.7,-943.35937,52.24609,233.88672,-0.0871332939777893,0.0707458740320389,-0.0587549384720623,58.05,18.0,3.15
-932.12891,-9.27734,-365.72266,0.0648836621404404,0.0107917198309313,0.0165205885676775,-4.2,28.8,26.4,-365.72266,-51.26953,881.34766,0.0572893854991626,0.1346968322202135,0.1124472003828646,81.75,5.4,77.7,-936.03516,39.55078,254.88281,-0.1569464640575625,0.0043966589186989,-0.0289112045263608,56.55,18.75,3.15
-940.91797,-11.23047,-345.70312,0.0732771250462063,-0.0010658725741929,-0.0162542513238231,-4.95,30.3,24.0,-358.39844,-25.87891,893.06641,0.0397029243572922,0.2697933448391338,0.1071178375118999,81.75,5.4,77.7,-938.96484,43.45703,251.95312,-0.1811944978884449,0.0924624823158288,-0.0466310088230837,56.55,18.75,3.15
-936.52344,1.95312,-359.86328,0.0186523337160634,0.0646171503636608,-0.0704793622552594,-6.15,28.95,24.9,-342.28516,-44.43359,934.57031,0.0660827033365605,0.2649970055217283,0.1212403436873373,81.75,4.65,76.05,-970.70312,21.48438,250.97656,-0.1906538333684037,0.0840688448771376,0.0105252080541518,58.35,20.7,2.1
-929.6875,-1.46484,-339.84375,0.0452986244721112,0.0245145456076619,0.0025314255470925,-6.15,28.95,24.9,-362.79297,-34.66797,952.14844,0.0714118916745999,0.2346202480224677,0.098724374606134,81.9,5.25,77.55,-981.93359,17.08984,245.11719,-0.2165007633270382,0.0947273960861418,-0.0021317451483858,57.3,18.45,3.15
-924.31641,-1.46484,-347.65625,0.0082602942838387,0.079272505559732,-0.0210505906412288,-5.1,28.2,23.85,-391.11328,-33.69141,961.91406,0.0756753819713717,0.2332878636714952,0.1328315988486072,81.3,5.4,77.4,-966.79687,20.99609,244.62891,-0.1893216235503565,0.1032542021467601,-0.0494287716140306,57.45,19.35,2.85
-925.29297,-1.46484,-352.05078,-0.0117244237831971,0.1100489434576992,-0.0387702204050264,-2.4,28.5,25.35,-382.8125,-31.25,950.19531,-0.0003996803987067,0.1217733672408963,0.1133797298022052,82.35,4.65,77.1,-998.53516,8.78906,255.37109,-0.1961163648612956,0.0724777642487929,0.0057288687367461,57.3,18.0,3.45
-935.54687,6.83594,-367.67578,0.0014655529728996,0.0305099261211876,0.0576890658978693,-6.15,30.15,25.65,-383.30078,-24.41406,939.94141,-0.0135896571548034,0.0884655037958365,0.1469541050240445,81.3,4.65,76.65,-983.88672,11.23047,257.32422,-0.19132002554389,0.0405022851547056,-0.0038636353651398,56.7,18.3,2.85
