IMU1_AccX,IMU1_AccY,IMU1_AccZ,IMU1_GyrX,IMU1_GyrY,IMU1_GyrZ,IMU1_MagX,IMU1_MagY,IMU1_MagZ,IMU2_AccX,IMU2_AccY,IMU2_AccZ,IMU2_GyrX,IMU2_GyrY,IMU2_GyrZ,IMU2_MagX,IMU2_MagY,IMU2_MagZ,IMU3_AccX,IMU3_AccY,IMU3_AccZ,IMU3_GyrX,IMU3_GyrY,IMU3_GyrZ,IMU3_MagX,IMU3_MagY,IMU3_MagZ
-908.20312,64.94141,-163.08594,0.0583552580733556,0.1815941782871516,-0.1171101965454179,-0.6,31.05,28.95,-371.58203,9.27734,891.11328,0.0464976656682313,-0.2486095855759778,0.0478300500192038,85.05,6.75,74.4,-918.45703,15.625,196.77734,-0.3861041805871384,0.0450321126953316,-0.0522267089379027,56.25,19.2,-1.35
-901.36719,74.21875,-174.80469,0.037970859607613,0.2003798551580673,-0.0358392889921523,-0.6,31.05,28.95,-351.07422,27.34375,879.39453,0.0043966589186989,-0.2673950879139684,0.0631515973907612,84.45,6.3,73.65,-920.89844,7.32422,183.59375,-0.4487227544243405,0.0531592383572432,-0.0389035635598788,55.35,21.15,-1.2
-901.85547,73.73047,-166.50391,0.0804717212887773,0.1801286253142519,-0.0512940049856369,-1.35,30.3,29.55,-373.04687,17.08984,851.07422,-0.0186523337160634,-0.2623322368197833,0.1285681085518354,84.6,3.9,73.2,-905.76172,-4.39453,173.82812,-0.3827733942426324,0.018385996472209,-0.061419532641082,55.65,21.6,-1.8
-894.04297,70.80078,-179.19922,0.0235820161883213,0.2773874469474863,-0.0467641774450108,-1.35,30.3,29.55,-382.32422,46.875,822.75391,-0.0595542992694757,-0.234220567623761,0.1233720888357231,84.45,5.25,75.45,-912.59766,3.90625,187.01172,-0.4047565143032018,-0.0049295079393327,-0.0406354537766327,57.0,21.0,-2.4
-894.04297,56.15234,-171.38672,0.027312482931534,0.2300904204818416,-0.0539585991546566,-1.05,29.85,29.25,-428.22266,20.01953,854.49219,-0.0632847660126884,-0.3718483312568487,0.1239051123892822,83.7,5.55,75.45,-932.61719,2.44141,200.68359,-0.3401393639395409,-0.0584886012282079,0.0189188454928429,54.6,20.55,-2.55
-871.09375,52.24609,-184.08203,0.1004564393558132,0.205842212118034,-0.0135896571548034,-0.45,30.9,28.05,-413.08594,-22.46094,854.98047,-0.0858009096268168,-0.2856477412313251,0.1336309596460206,83.7,5.55,75.45,-936.03516,3.41797,203.125,-0.4050230260799813,0.0181194846954295,0.0034639549664331,55.8,20.7,-2.1
-861.32812,53.22266,-191.40625,0.0827366350590903,0.2843155314132778,-0.0652833425391471,-0.45,30.9,28.05,-431.15234,-31.73828,843.26172,-0.0687472975055802,-0.23981626773858,0.118842261295097,84.75,6.0,75.15,-928.22266,-2.44141,210.44922,-0.3609234428039902,-0.0522267089379027,0.0739433172216925,55.8,20.7,-2.1
-870.11719,27.34375,-206.05469,0.0398360929792193,0.2931086747177505,-0.0783399761403914,-1.5,31.2,28.35,-409.66797,-64.45313,840.82031,0.0025314255470925,-0.1474869540446784,0.1092495826602858,82.95,6.0,75.45,-945.3125,-13.67187,216.79687,-0.313493073183493,-0.034640073263107,0.1063184767144865,54.6,20.1,-0.15
-864.74609,12.20703,-204.10156,0.1267028751802291,0.3120275202105934,-0.0706125308771865,-0.75,30.45,29.85,-424.31641,-49.80469,897.46094,0.025713586803782,-0.1173767083221974,0.1069846688899728,83.85,7.35,74.25,-986.81641,-35.15625,219.72656,-0.232621671496009,0.0487625794385443,0.1326982556937548,54.6,20.1,-0.15
-871.09375,32.22656,-226.07422,0.1068515002680456,0.3501317229730588,-0.0806048899107045,0.15,31.2,29.1,-425.29297,-49.80469,928.71094,0.0270459711547545,-0.1961163648612956,0.0443659205198454,82.35,5.4,74.55,-1016.11328,-41.50391,182.12891,-0.1473537854227512,0.0143890179522168,0.1485528266188713,55.65,21.15,-0.15
-898.4375,42.48047,-262.20703,0.1028545217480534,0.4116845987689932,-0.0995237354035474,-2.25,29.4,30.45,-436.52344,-56.64063,923.82812,0.110981647409965,-0.1718683310304132,0.0347734164179594,84.75,6.75,74.1,-1029.29688,-8.78906,185.05859,-0.0844685252758443,-0.0097258472567384,0.1608100994227023,55.8,21.75,-0.15
-937.01172,52.24609,-270.01953,0.1353630243956998,0.3653201017226891,-0.050761155965003,-2.25,29.4,30.45,-459.47266,-51.26953,924.80469,0.1348300008421407,-0.1095160944370653,0.0598208110462552,83.55,6.9,74.85,-1035.15625,-22.94922,179.6875,-0.0182526533173567,0.0494287716140306,0.1831928998819784,55.8,21.75,-1.35
-954.10156,64.94141,-293.94531,0.0728774446474996,0.3974287494387036,-0.0624854052152749,-0.6,29.55,28.95,-468.75,-39.55078,940.91797,0.1512174207878911,-0.2017120649761146,0.0523598775598298,83.55,6.9,74.85,-1040.52734,-20.50781,190.42969,0.0089264864593249,0.0102588708102974,0.1606769308007752,54.6,21.15,-1.2
-974.12109,33.20313,-300.78125,0.0747426780191059,0.3464012562298461,0.0035972981212855,-1.8,30.15,27.0,-467.28516,-20.01953,949.21875,0.1458882324498516,-0.1688040564626867,0.0370383301882724,85.35,5.7,76.05,-1015.625,-11.71875,155.76172,0.0047963393174056,0.0624854052152749,0.0026645941690197,55.5,20.25,-0.3
-989.25781,42.48047,-321.28906,0.0798055291132911,0.3225529027976704,0.0301102457224809,-1.8,29.4,28.05,-483.88672,-9.27734,948.73047,0.1923858981180829,-0.1793292645168386,0.0242480338308824,84.15,5.4,76.35,-1028.32031,-33.20313,161.62109,0.059154618870769,-0.0005328490206338,0.1320322380511938,55.2,20.7,-0.6
-983.39844,49.80469,-319.82422,0.0351730968166661,0.343603318905974,-0.0419678381276052,-2.4,30.3,28.95,-478.02734,2.92969,921.875,0.1806614743348858,-0.150018379591771,0.0500949637895168,82.65,6.0,75.15,-1021.48437,-29.78516,153.32031,0.0490290912153239,-0.0123904414257581,0.0567565364785288,54.9,22.35,-1.5
-982.42187,70.80078,-327.14844,0.0688804661275074,0.2748560214003938,0.0695466583029936,-2.4,30.3,28.95,-471.19141,13.18359,918.94531,0.1656064387401079,-0.063684446411395,0.0001331686219271,82.65,6.0,75.15,-1009.27734,-12.20703,157.71484,0.1240382810112094,-0.0935283548900217,0.0863337586474507,54.9,22.35,-1.5
-994.14062,101.5625,-334.96094,0.051827028539196,0.2568698798598167,0.1510842521659639,-1.8,30.15,28.35,-463.86719,38.08594,913.57422,0.1049862668964393,-0.0626187483701273,-0.0231821612566894,82.65,6.3,74.4,-1011.71875,-22.46094,171.875,0.0995237354035474,-0.1349631694640679,0.0555574952824086,55.5,20.25,-1.35
-990.23437,136.71875,-327.63672,0.0163874199457503,0.2133031456044594,0.0854012292281101,-3.15,29.25,28.2,-440.91797,38.08594,917.96875,0.1197749652473628,-0.0560903443030425,-0.0470306892217904,82.8,6.15,74.85,-996.58203,-4.88281,156.73828,0.140026020558253,-0.1458882324498516,0.0868667822010097,56.25,22.5,-3.15
-974.60937,140.13672,-331.05469,-0.0407687969314851,0.2456784796301786,0.054091942309509,-2.7,29.55,27.9,-428.71094,5.85937,914.0625,0.063684446411395,0.0059953805135257,-0.0895313763700295,82.8,6.15,74.85,-989.25781,-14.16016,169.92187,0.1398928519363259,-0.1277687477544221,0.0554241521275563,54.6,22.35,-0.75
-991.21094,139.16016,-326.17187,-0.0612863640191548,0.1508177403891844,0.1119141768293056,-0.6,30.6,27.45,-437.98828,6.34766,902.83203,0.0631515973907612,-0.0029311059457992,-0.0832694840797242,82.95,6.0,75.15,-980.46875,-0.48828,175.78125,0.1233720888357231,-0.0876661429984231,0.0576890658978693,55.65,20.55,-1.8
-985.83984,135.25391,-309.08203,-0.0810045703094112,0.1444226794769519,0.1296339811260284,-0.6,30.6,27.45,-429.6875,-38.08594,929.19922,0.082603291904238,-0.0069280844657914,-0.0500949637895168,83.7,6.75,76.5,-1001.95312,-5.37109,143.55469,0.1056524590719255,-0.1227058966602369,0.0171867807431637,56.7,21.15,-1.5
-968.75,100.58594,-306.15234,-0.1480199775982374,0.1875895588006773,0.0854012292281101,-1.8,31.2,29.1,-437.01172,-44.43359,925.78125,0.050761155965003,-0.0023980823922402,-0.0756753819713717,83.7,5.25,76.2,-1015.13672,-2.44141,164.55078,0.1191087730718766,-0.0747426780191059,0.1136462415789847,56.1,21.6,-0.45
-956.54297,82.03125,-306.15234,-0.0961929490590414,0.0967257980796753,0.0542251109314362,-2.25,30.45,27.0,-450.19531,-52.73438,928.71094,0.1007227765996675,0.0455651362488907,-0.0704793622552594,83.7,5.25,76.2,-1014.16016,-11.71875,148.92578,0.2054425317193273,-0.0772741035661985,0.071944915228159,56.1,21.6,-0.45
-967.77344,86.91406,-314.94141,-0.0674150876875329,0.027312482931534,0.0158545709251164,-2.25,31.65,27.0,-458.49609,-53.22266,930.17578,0.1362955538150403,0.0341072242424731,-0.1237717692344298,83.25,6.3,74.7,-999.51172,-9.27734,136.23047,0.1660061191388146,-0.1260366830047429,0.0941945470655079,55.35,21.6,-1.5
-975.09766,80.07813,-317.38281,-0.0560903443030425,0.1504180599904777,-0.0199847180670358,-2.25,30.15,27.0,-458.00781,-12.20703,907.22656,0.141091893132446,0.060753514998521,-0.077007591789419,83.7,6.75,75.75,-979.00391,-7.8125,145.01953,0.2129034652057527,-0.1108484787880378,0.0802052095119978,55.35,21.6,-1.5
-962.40234,83.98438,-310.05859,-0.002264913770313,0.0873996312216436,0.041301645952119,-2.25,30.15,27.0,-445.80078,-15.625,904.29687,0.0774072721881257,0.0570230482553083,-0.1039203943222463,84.15,4.95,76.65,-989.25781,-1.46484,138.67187,0.2602006662043226,-0.1256370026060362,0.1533491659362769,55.65,21.15,-0.45
-931.15234,76.66016,-311.52344,-0.0417013263508257,0.0282450123508746,0.0011990411961201,-3.3,29.7,28.05,-435.54687,2.92969,883.30078,0.1508177403891844,0.0433002224785777,-0.1115144964305989,83.55,6.15,76.65,-991.21094,3.41797,147.94922,0.2322219910973023,-0.1357627047944065,0.1052526041402936,55.5,21.75,-2.1
-937.98828,57.61719,-287.59766,0.0053291883380394,0.1300336615247351,-0.1095160944370653,-2.25,30.45,27.75,-428.71094,-48.82813,892.08984,0.1536156777130565,0.0811377389313384,-0.1338974714228001,83.25,6.75,76.65,-979.98047,3.41797,129.39453,0.2608666838468836,-0.0944608843093623,0.0985910314512816,54.6,22.35,0.15
-929.6875,76.17188,-280.27344,0.0133231453780239,0.0822036115055313,-0.0206509102425221,-2.4,30.3,27.45,-420.89844,-63.47656,885.74219,0.1514839325646706,0.1085833904847996,-0.1649402465646217,82.95,6.0,76.2,-983.39844,-11.71875,160.15625,0.2406156285359934,-0.0654165111610742,0.1107151356331855,55.2,21.45,0.0
-927.73437,74.21875,-293.45703,0.0121241041819038,0.1064518198693389,-0.0281118437289474,-2.4,30.3,27.45,-440.91797,-64.45313,917.96875,0.2231623360160501,0.0806048899107045,-0.1449555284975858,82.95,6.0,74.4,-963.37891,-14.16016,160.64453,0.2912434413461441,-0.0619525561946411,0.0492956029921034,56.1,21.15,-0.75
-926.26953,62.5,-302.73437,-0.0310429496747467,0.1396263401595463,-0.0179861415405771,-2.25,30.9,27.3,-442.38281,-51.26953,919.43359,0.2583354328327162,0.0510274932088574,-0.2169004437257448,82.95,6.0,74.4,-954.10156,-6.34766,159.17969,0.3405390443382476,-0.0398360929792193,0.1605435876459228,56.1,21.9,-1.5
-948.73047,81.54297,-297.85156,0.0282450123508746,0.1048529237415869,-0.0190520141147701,-3.15,29.85,26.1,-412.10937,-20.99609,906.25,0.2143690181786523,0.0490290912153239,-0.2332878636714952,82.2,7.05,74.7,-986.81641,-17.57813,175.29297,0.3185559242776782,-0.0583552580733556,0.1100489434576992,56.1,21.9,-1.5
-990.23437,53.71094,-301.75781,0.0531592383572432,0.0936615235119489,-0.0174532925199432,-3.45,30.6,26.85,-435.54687,-1.95312,919.43359,0.1923858981180829,-0.0373046674321268,-0.1859908372058505,82.35,5.4,74.25,-969.23828,22.94922,133.30078,0.3499983798182065,-0.0480965617959833,0.1299004929028079,55.35,22.35,-1.8
-977.05078,61.52344,-288.08594,0.0369049870334201,0.0956601000384076,-0.0472970264656447,-3.0,30.9,27.0,-414.55078,-1.46484,911.62109,0.1907871765232561,0.023981696587028,-0.2623322368197833,82.2,6.0,74.4,-977.05078,25.39063,156.25,0.2921761452984099,0.0101255276554451,0.0799386977352182,55.35,22.35,-1.8
-994.14062,55.17578,-292.48047,0.0552909835056291,0.0807380585326316,-0.0314426300734534,-3.0,30.9,27.0,-429.19922,-15.13672,923.33984,0.1524164619840112,0.0041301471419193,-0.2087733180638333,83.7,6.0,74.1,-981.93359,38.57422,174.31641,0.295640100264843,-0.0146553551960711,0.0634181091675407,55.35,22.35,-1.8
-987.79297,43.94531,-294.43359,0.096459460835821,0.0526263893366094,0.0066615726890119,-3.0,30.9,27.0,-426.75781,-0.48828,916.50391,0.1373614263892333,0.0107917198309313,-0.266595727116555,82.35,5.4,73.2,-993.65234,45.41016,162.59766,0.2804517215152128,-0.0081271256619115,0.0563568560798221,55.8,21.0,-1.05
-999.02344,48.33984,-301.26953,0.0508943245869302,0.0452986244721112,-0.0884655037958365,-3.15,30.3,27.45,-444.33594,-15.13672,920.89844,0.1316323831195619,-0.0361056262360067,-0.220364398692178,84.75,4.5,74.7,-1012.69531,32.71484,164.0625,0.2655298545423621,-0.0500949637895168,0.0873996312216436,56.25,21.0,-2.1
-976.07422,43.94531,-298.33984,0.0434333911005048,0.0576890658978693,-0.0390367321818059,-2.1,30.3,26.4,-424.31641,-10.74219,934.08203,0.1125803690047918,-0.023448673033469,-0.2652633427655826,84.75,4.5,74.7,-1021.97266,62.98828,171.38672,0.2511408365901452,-0.0225161436141284,0.1120475199841579,54.9,20.55,-1.2
-973.63281,67.87109,-292.48047,0.1140459219776914,-0.0161209081689708,0.0146553551960711,-2.25,29.7,27.0,-455.07812,-20.99609,932.61719,0.0904640803222952,0.0006661921754862,-0.2562036876843304,84.9,6.6,73.8,-1036.62109,48.33984,166.50391,0.2440795835024266,-0.0285115241276541,0.0774072721881257,56.4,20.85,-2.85
-977.05078,60.54688,-294.43359,0.0700796818565527,0.0718115720733066,-0.0245145456076619,-2.25,29.7,26.25,-469.23828,16.11328,944.82422,0.0554241521275563,0.0095926786348112,-0.1990474708070949,83.7,5.25,75.15,-1037.59766,101.5625,166.01562,0.2371516735695603,-0.0181194846954295,0.0751423584178126,56.1,21.6,-1.8
-974.60937,62.01172,-300.78125,0.0666155523571943,0.0929953313364626,-0.0266462907560478,-2.25,29.7,26.25,-486.81641,8.78906,946.77734,0.0436999028772844,-0.0129234649793172,-0.2627320917514152,83.7,6.0,74.1,-1040.52734,96.19141,145.50781,0.1933186020703487,-0.0494287716140306,0.039569755735365,53.55,20.85,0.15
-986.32812,60.05859,-305.17578,0.1027213531261262,0.0772741035661985,-0.0354394340605204,-1.35,29.85,26.4,-484.86328,55.66406,957.03125,0.0754088701945922,-0.0319754790940873,-0.1758653095504054,83.7,6.0,74.1,-1050.29297,110.83984,173.82812,0.1554809110846628,-0.0877993116203503,0.0414349891069713,53.55,20.85,0.15
-980.46875,60.05859,-312.98828,0.0476967068643514,0.1317657262744143,-0.0162542513238231,-2.25,28.2,27.0,-479.98047,36.13281,935.54687,0.0319754790940873,-0.0342403928644003,-0.1398928519363259,84.45,6.0,76.2,-1025.39063,104.49219,179.19922,0.1402925323350325,-0.1243047927879889,0.039569755735365,55.65,20.1,-1.5
-983.39844,81.54297,-308.59375,0.0831363154577971,0.1248376418086228,-0.0417013263508257,-3.45,31.35,26.85,-461.91406,6.34766,953.61328,0.0460979852695246,0.0105252080541518,-0.1909203451451833,83.25,6.0,74.7,-1015.625,88.37891,187.01172,0.1032542021467601,-0.1081837100860929,0.0179861415405771,54.9,22.35,-1.5
-976.5625,62.98828,-294.43359,0.0771409349442713,0.0658161915597809,0.0225161436141284,-3.6,29.4,26.7,-422.36328,31.25,945.80078,0.0632847660126884,-0.0398360929792193,-0.1991806394290221,83.25,6.0,74.7,-999.51172,93.75,189.45312,0.1192419416938038,-0.1253706653621819,0.0189188454928429,54.3,21.15,-0.45
-978.51562,60.54688,-297.85156,0.022382800459276,0.1600107386252889,0.0039969785199922,-3.6,29.4,26.7,-425.78125,23.92578,941.40625,0.0579555776746489,-0.0367718184114929,-0.1769310075916731,84.0,4.8,75.75,-1000.0,84.96094,199.70703,0.1462879128485583,-0.1737335644020195,0.0715452348294523,56.1,22.35,-0.45
-979.49219,76.17188,-296.38672,0.0206509102425221,0.0850015488294034,-0.0349065850398865,-2.25,30.45,26.7,-411.62109,32.71484,909.66797,0.0366386497895657,-0.042900542079871,-0.2001133433812878,83.85,4.95,74.85,-982.42187,81.54297,203.61328,0.1153783063286639,-0.1732005408484604,0.043566559722432,55.2,20.7,-2.1
-995.11719,75.68359,-285.15625,0.0458314734927451,0.073676805444913,0.0025314255470925,-2.1,31.05,26.85,-399.41406,24.41406,891.11328,-0.0177198042967228,-0.0390367321818059,-0.1999801747593606,82.65,4.05,75.15,-976.5625,76.17188,201.66016,0.0660827033365605,-0.1490856756395052,0.0222496318373489,54.3,20.1,-0.45
-1008.78906,59.08203,-280.76172,-0.0275788201753884,0.1249709849634751,-0.0357059458372999,-3.0,28.95,25.95,-412.10937,17.08984,908.69141,0.0065284040670847,-0.0691469779042869,-0.171202138854927,82.65,4.05,75.15,-962.40234,89.35547,225.58594,0.0975253334100139,-0.1661392877607418,0.0039969785199922,54.3,20.1,-0.45
-976.5625,46.38672,-285.64453,0.0089264864593249,0.0543582795533633,-0.0824701232823108,-2.7,30.6,27.15,-398.92578,31.25,911.62109,0.0269126279999021,-0.0238483534321757,-0.1285681085518354,83.85,5.4,74.85,-958.00781,100.58594,218.75,0.0474303696204971,-0.1438898304563181,0.0169204434993094,56.1,21.9,-0.15
-972.16797,52.24609,-273.4375,0.0063950609122324,-0.0151883787496302,0.0035972981212855,-2.7,30.6,27.15,-395.99609,39.55078,926.26953,0.0038636353651398,-0.105385947295146,-0.1614762915981885,82.65,3.75,75.45,-965.82031,93.75,232.91016,0.1097826062138449,-0.1275022359776425,-0.0361056262360067,56.1,21.9,-0.15
-938.96484,46.38672,-255.37109,0.0576890658978693,0.0181194846954295,-0.0186523337160634,-2.7,30.6,25.8,-389.64844,48.82813,929.19922,-0.0013323843509724,-0.1203078142679967,-0.1085833904847996,82.8,4.65,74.25,-966.30859,107.91016,212.40234,0.1414915735311527,-0.1616094602201157,0.0083936374386911,55.35,19.35,-1.5
-926.75781,51.75781,-265.625,-0.0331745202902074,0.0095926786348112,-0.0269126279999021,-2.1,29.55,27.9,-387.20703,41.99219,918.94531,-0.0452986244721112,-0.0988575432280612,-0.1111148160318922,83.7,4.5,73.65,-960.9375,91.79688,224.60937,0.0984578628293545,-0.2078407886444927,-0.0110582316077108,54.9,20.55,-1.5
-928.22266,60.54688,-264.64844,0.0081271256619115,-0.020117886688963,0.0438330714992115,-2.7,29.85,26.85,-385.74219,23.92578,919.92187,-0.1035207139235396,-0.1256370026060362,-0.0667488955120467,82.95,4.05,76.5,-954.10156,86.91406,232.91016,0.0750091897958855,-0.1855911568071438,-0.0230489926347623,55.8,22.2,-1.35
-923.82812,76.66016,-256.83594,0.0081271256619115,0.0059953805135257,0.0023980823922402,-4.95,29.25,26.1,-387.20703,3.41797,941.89453,-0.0924624823158288,-0.1155114749505911,-0.0799386977352182,82.8,4.65,74.55,-954.10156,86.42578,244.62891,0.060753514998521,-0.1546815502872494,-0.1195084534705833,55.35,21.9,-0.45
-914.55078,61.03516,-260.25391,-0.0383705400063197,0.0739433172216925,-0.0319754790940873,-4.95,29.25,26.1,-385.74219,22.46094,965.82031,-0.165073589719474,-0.1592113778278755,-0.0438330714992115,82.8,4.65,74.55,-968.26172,80.07813,244.62891,0.0654165111610742,-0.1722680114291199,-0.0487625794385443,55.65,21.6,-0.45
-915.52734,42.48047,-267.57812,0.0101255276554451,0.068614128883653,-0.0342403928644003,-3.0,29.7,25.95,-373.04687,-43.45703,940.91797,-0.0700796818565527,-0.0452986244721112,-0.0730107878023519,84.15,4.95,73.8,-963.37891,79.10156,233.88672,0.0908637607210019,-0.1605435876459228,-0.0834028272345766,55.65,20.85,0.75
-945.80078,26.85547,-273.4375,0.0278453319521679,0.0258469299586344,0.0059953805135257,-3.45,30.6,27.15,-406.73828,-37.59766,935.54687,-0.0318423104721601,-0.0668820641339739,-0.0672817445326806,84.0,4.05,75.75,-970.70312,84.47266,236.32812,0.0419678381276052,-0.1204409828899239,-0.0759418937481512,55.65,20.85,0.75
-959.47266,11.71875,-283.69141,-0.0294440535469947,0.0655498543159266,-0.0610198522423753,-2.55,30.15,26.25,-425.78125,-17.08984,943.35937,-0.0103920394322246,-0.182926562638124,-0.0666155523571943,82.65,4.05,75.15,-965.33203,64.94141,229.49219,0.1104486238564059,-0.1552143993078833,-0.0512940049856369,55.65,20.85,0.75
-960.44922,3.90625,-289.55078,0.0433002224785777,0.0205175670876697,-0.0118575924051242,-3.45,29.85,25.05,-409.66797,-25.87891,963.86719,0.0289112045263608,-0.1970490688135614,-0.0389035635598788,82.35,3.15,74.85,-965.33203,63.96484,221.19141,0.0455651362488907,-0.1121806886060851,-0.0822036115055313,56.1,21.6,0.15
-964.35547,7.8125,-299.80469,0.0659495347146333,0.0147886983509235,0.0194516945134768,-3.45,29.85,25.05,-416.01562,-16.60156,940.42969,-0.0460979852695246,-0.1606769308007752,-0.060753514998521,82.95,4.05,75.15,-945.3125,58.59375,227.53906,0.0330413516682802,-0.1541485267336904,-0.0355727772153728,56.1,21.6,0.15
-950.19531,27.34375,-303.71094,0.0215834396618626,0.0423675185263119,-0.0269126279999021,-4.05,29.7,27.3,-405.27344,-38.08594,934.57031,-0.032375159492794,-0.1401591891801802,-0.1228392398150893,84.45,4.5,75.15,-953.125,63.47656,223.63281,-0.005595700114819,-0.1137794102009119,-0.1672051603349347,56.4,21.15,0.15
-967.77344,49.31641,-297.36328,0.0911300979648563,0.0373046674321268,0.0247810573844414,-2.1,27.75,25.05,-405.27344,-8.30078,938.47656,-0.045165455850184,-0.1017886491738605,-0.0447657754514773,84.45,4.5,75.15,-963.37891,62.98828,213.86719,0.0127901218244648,-0.1151117945518844,-0.08420218803199,57.15,21.6,-1.2
-944.33594,41.50391,-315.91797,0.0567565364785288,0.0075941021083525,0.0939280352887284,-2.4,29.85,27.45,-398.92578,-36.13281,931.15234,-0.0566231933236764,-0.0373046674321268,-0.0932618431132422,84.45,4.5,75.15,-955.07812,64.45313,207.03125,0.0074609334864253,-0.1417580853079322,-0.1390934911389125,55.65,19.8,-0.45
-964.35547,37.10938,-315.91797,-0.0057288687367461,0.0287778613715085,0.0735436368229858,-2.4,29.85,27.45,-386.71875,-42.48047,937.5,-0.075275701572665,-0.0354394340605204,-0.057422728654015,84.0,4.8,75.45,-964.84375,71.28906,202.14844,-0.0267794593779749,-0.0816707624848974,-0.1127137121596442,54.9,20.1,-1.5
-949.70703,36.13281,-296.38672,0.0543582795533633,0.0097258472567384,0.0599539796681824,-2.25,30.15,26.7,-390.625,-67.87109,923.33984,-0.0419678381276052,-0.0397029243572922,-0.0500949637895168,83.55,3.15,75.6,-968.26172,64.94141,213.86719,0.0006661921754862,-0.1197749652473628,-0.1408253813556664,55.65,21.6,0.45
-954.10156,20.50781,-314.45312,0.0391699008037331,-0.0098591904115907,0.0002665117767795,-3.45,28.5,27.45,-393.06641,-59.57031,921.38672,-0.054091942309509,-0.032908183046353,-0.0879326547752027,82.65,4.05,75.15,-974.12109,61.03516,213.86719,-0.0046631706954784,-0.1097826062138449,-0.1048529237415869,55.65,19.8,-0.45
-959.47266,26.36719,-323.24219,0.0051960197161123,0.0191853572696224,-0.0235820161883213,-4.05,29.4,27.0,-402.34375,-89.84375,929.19922,-0.0534257501340228,0.0021317451483858,-0.0683476171068735,82.65,4.05,75.15,-958.00781,39.55078,222.16797,0.0027979373238721,-0.0667488955120467,-0.1089830708835063,55.65,19.8,-0.45
-962.89062,16.60156,-318.35937,0.046897346066938,0.0178529729186499,0.0174532925199432,-3.75,29.55,26.4,-419.92187,-89.84375,928.71094,0.0006661921754862,-0.0174532925199432,-0.0968591412345277,82.8,4.95,75.3,-978.51562,41.50391,196.28906,-0.0054625314928918,-0.0093261668580317,-0.202511425773528,56.55,19.95,0.6
-971.67969,34.66797,-319.33594,0.0471638578437175,-0.0039969785199922,0.0254472495599277,-3.75,29.55,26.4,-421.38672,-64.45313,921.875,0.0029311059457992,-0.0211837592631559,-0.0892648645932499,83.25,3.75,75.75,-971.19141,57.61719,195.3125,-0.0062618922903052,-0.0147886983509235,-0.1974487492122681,56.55,19.95,0.6
-974.60937,39.55078,-332.51953,-0.0042633157638465,0.0082602942838387,0.0233155044115418,-4.35,29.4,26.25,-453.125,-55.66406,933.10547,0.0177198042967228,-0.0299770771005538,-0.0515605167624164,83.25,3.75,75.75,-981.44531,63.96484,202.14844,-0.0154548905264097,0.0331745202902074,-0.089797888146809,57.45,19.05,-0.45
-960.44922,20.50781,-323.73047,-0.0066615726890119,0.0319754790940873,-0.0063950609122324,-3.0,29.7,26.7,-453.125,-52.73438,936.52344,0.0142556747973644,-0.013456313999951,-0.0850015488294034,83.1,2.7,75.6,-990.72266,99.12109,184.57031,-0.0263797789792682,0.0470306892217904,-0.0816707624848974,54.6,20.85,0.15
-963.86719,13.67187,-341.30859,0.0448989440734045,0.0142556747973644,0.0980581824306478,-2.25,28.95,27.0,-429.19922,-55.17578,921.875,0.0550244717288496,0.0214502710399355,-0.0937948666668012,82.65,2.55,75.45,-982.91016,98.14453,173.82812,-0.0030642745677264,0.0627519169920545,-0.0975253334100139,56.7,20.55,-0.45
-964.84375,6.34766,-347.16797,-0.0206509102425221,0.0339738810876208,-0.0582220894514284,-4.35,31.2,25.65,-437.5,-66.89453,916.01562,0.0499617951675896,0.0050628510941851,-0.0464976656682313,82.8,4.2,77.4,-995.11719,101.5625,185.54687,-0.0714118916745999,0.0627519169920545,-0.1401591891801802,54.6,19.8,0.15
-950.19531,3.90625,-343.75,0.0660827033365605,-0.006128723668378,-0.0110582316077108,-4.35,31.2,25.65,-439.94141,-36.62109,892.08984,0.0538254305327295,0.0500949637895168,-0.06634921511334,82.8,4.2,77.4,-1016.11328,98.14453,190.42969,-0.1441561677001724,0.0361056262360067,-0.1696034172601001,55.8,19.5,-0.3
-968.26172,-6.83594,-344.72656,0.0711455544307456,0.0077274452632048,0.0058622118915985,-4.35,31.2,25.65,-439.45312,-34.66797,915.52734,0.0764747427687851,0.0599539796681824,-0.0616860444178615,83.1,2.7,75.3,-1009.76562,99.60938,187.01172,-0.1720014996523403,0.0275788201753884,-0.0802052095119978,55.65,20.1,-0.15
-968.75,-0.48828,-334.47266,0.077540615342978,0.0610198522423753,0.0083936374386911,-3.45,29.85,26.1,-425.78125,-36.13281,958.49609,0.1195084534705833,0.2350199284211744,-0.0210505906412288,82.95,3.3,75.15,-1020.50781,89.35547,201.66016,-0.2010458728006284,0.0182526533173567,-0.1514839325646706,55.65,20.1,-0.15
-956.54297,12.69531,-336.42578,0.0472970264656447,0.0439662401211387,0.034640073263107,-3.3,28.65,25.65,-452.14844,-12.69531,934.57031,0.013456313999951,0.0600873228230347,0.0421010067495324,84.6,3.15,75.6,-1027.34375,70.3125,197.75391,-0.2183659966986445,0.0476967068643514,-0.1225727280383097,56.55,19.5,-0.6
-966.30859,18.06641,-346.67969,0.1353630243956998,0.036238969390859,0.059154618870769,-3.0,29.7,27.0,-423.33984,6.83594,959.47266,-0.0406354537766327,0.0746095093971788,0.0515605167624164,83.1,5.4,75.3,-1002.44141,75.19531,208.00781,-0.2633981093939762,0.0678147680862396,-0.1216401986189692,56.7,20.85,0.45
-974.12109,21.48438,-331.05469,0.0735436368229858,0.0447657754514773,-0.0071944217096458,-3.3,30.45,25.95,-439.45312,-10.25391,957.51953,-0.1059187963157798,0.0528927265804637,0.0442327518979182,84.0,3.75,75.45,-1001.46484,56.15234,180.17578,-0.2382175461437532,0.0246477142295891,-0.1470872736459717,56.1,19.35,0.15
-943.35937,20.01953,-337.89062,0.0193185258915496,0.0462311538914518,-0.0522267089379027,-3.3,30.45,25.95,-448.73047,-13.67187,911.62109,-0.0995237354035474,0.0109248884528585,0.0496952833908101,82.35,3.15,75.3,-980.95703,61.03516,188.96484,-0.2331546950495681,0.0210505906412288,-0.1429571265040523,56.55,20.25,0.3
-940.91797,21.48438,-328.61328,0.0839356762552105,0.0307764378979672,-0.0038636353651398,-2.1,29.25,26.4,-429.6875,-46.875,917.48047,-0.0788728251610253,-0.0107917198309313,0.0784731447623186,82.35,3.15,75.3,-980.46875,45.41016,186.03516,-0.2641974701913896,0.0520933657830503,-0.1357627047944065,56.55,20.25,0.3
-937.5,29.29688,-338.86719,0.025713586803782,0.1197749652473628,-0.0409019655534123,-2.4,30.6,26.85,-433.59375,-59.08203,911.13281,-0.095393588261628,0.0319754790940873,0.1120475199841579,84.45,3.75,75.15,-961.91406,46.875,197.75391,-0.2885788471771244,0.0050628510941851,-0.1069846688899728,54.9,19.8,0.45
-939.45312,20.99609,-333.49609,-0.0005328490206338,0.0971256530113072,-0.0367718184114929,-3.0,28.65,25.95,-425.78125,-50.29297,916.50391,-0.0972588216332344,0.0520933657830503,0.1099157748357721,84.6,4.65,75.3,-951.66016,42.48047,182.12891,-0.2839158510145712,0.0571562168772355,-0.0447657754514773,56.4,20.85,0.15
-937.98828,33.69141,-343.75,0.0810045703094112,0.0411684773301918,0.0235820161883213,-3.45,29.85,26.1,-413.57422,-49.80469,917.96875,-0.059687642424328,0.0810045703094112,0.1304333419234418,84.0,4.5,76.2,-960.9375,18.06641,192.87109,-0.2917764648997032,0.1183094122744632,-0.1013889687751538,56.4,20.85,0.15
-938.96484,31.73828,-330.07812,-0.0065284040670847,0.0995237354035474,-0.037970859607613,-3.45,29.85,26.1,-424.31641,-33.69141,888.67187,-0.0704793622552594,0.0210505906412288,0.1051194355183664,84.0,4.5,76.2,-955.56641,43.45703,203.125,-0.2753890449539529,0.0158545709251164,-0.0620857248165682,55.65,18.6,1.2
-975.09766,32.71484,-333.49609,0.0085268060606182,0.1067181571131932,-0.0262466103573411,-4.05,30.9,24.15,-386.71875,-60.54688,895.99609,-0.1075176924435318,0.0271791397766816,0.1870567097800435,82.8,3.9,75.3,-937.5,45.89844,200.19531,-0.2496752836172456,0.0322419908708668,-0.134430320443434,55.65,18.6,1.2
-954.10156,0.0,-308.10547,0.0283781809728018,-0.0029311059457992,0.0278453319521679,-2.55,28.65,25.95,-400.87891,-81.54297,889.16016,-0.1041869060990259,-0.0030642745677264,0.1628085014162358,82.95,2.25,76.2,-945.3125,35.64453,208.49609,-0.2343537362456882,0.0467641774450108,-0.0033307863445059,56.55,19.5,0.6
-940.42969,-9.27734,-322.26562,0.0546247913301429,-0.0406354537766327,0.0021317451483858,-3.6,28.2,25.95,-411.62109,-95.21484,876.46484,-0.113246561180278,0.0302434143444081,0.1827932194832717,82.95,2.25,76.2,-954.10156,20.01953,197.75391,-0.2266262909824833,0.0804717212887773,-0.0222496318373489,55.65,19.8,1.5
-932.61719,4.39453,-320.3125,0.0315757986953806,0.0081271256619115,-0.0333078634450597,-4.65,29.7,26.25,-411.62109,-94.23828,874.51172,-0.058088746296576,0.0503614755662963,0.1428239578821251,83.85,3.9,76.05,-980.95703,9.76562,203.125,-0.2138361691580184,0.052493046181757,-0.027312482931534,56.7,19.35,0.15
-928.22266,4.39453,-320.3125,0.0640843013430269,-0.0334410320669869,-0.0127901218244648,-4.65,29.7,26.25,-416.99219,-81.05469,920.41016,-0.0107917198309313,0.0409019655534123,0.1480199775982374,82.8,3.9,75.6,-976.07422,7.8125,190.91797,-0.2119709357864121,0.0619525561946411,-0.0147886983509235,55.65,19.35,0.45
-926.75781,3.41797,-318.35937,0.0688804661275074,-0.002264913770313,-0.0107917198309313,-3.15,29.85,25.05,-421.38672,-46.875,942.87109,0.013456313999951,0.1217733672408963,0.1249709849634751,83.25,3.0,76.95,-989.74609,-13.67187,180.66406,-0.2006461924019217,0.0854012292281101,-0.0299770771005538,55.8,18.45,1.65
-927.73437,11.23047,-324.70703,-0.0181194846954295,0.050228132411444,-0.0229158240128351,-4.2,30.3,24.75,-439.45312,-31.73828,911.13281,-0.0440995832759911,0.0634181091675407,0.1576124817001235,83.25,3.0,76.95,-1010.74219,-19.04297,183.10547,-0.1789295841181318,0.0960597804371143,-0.0069280844657914,56.25,19.95,0.6
-924.80469,29.78516,-309.57031,0.0391699008037331,0.020117886688963,0.1133797298022052,-2.55,28.2,25.95,-459.47266,-53.22266,928.22266,-0.0476967068643514,0.0094593354799588,0.1111148160318922,82.95,3.3,76.2,-988.76953,-7.8125,187.98828,-0.1546815502872494,0.0500949637895168,0.041834669505678,56.25,19.95,0.6
-953.61328,25.87891,-315.91797,0.0265129476011954,0.074209828998472,0.0973919902551615,-3.75,29.25,24.75,-433.10547,-32.71484,948.73047,-0.0538254305327295,0.0139893375535101,0.1306998537002213,82.65,3.75,75.15,-1006.34766,-5.37109,211.91406,-0.1553475679298105,0.0720780838500862,0.0075941021083525,56.25,20.25,0.0
-972.16797,36.13281,-341.30859,-0.0251807377831481,0.0816707624848974,0.023448673033469,-3.75,29.25,24.75,-420.41016,-56.15234,948.73047,-0.0679479367081668,-0.0245145456076619,0.2034441297257938,84.6,4.65,76.35,-1001.95312,-8.30078,195.80078,-0.1357627047944065,0.0925956509377559,0.0038636353651398,56.25,20.25,0.0
-969.72656,30.27344,-336.91406,0.0034639549664331,0.0202512298438154,0.0567565364785288,-4.05,30.9,25.2,-432.61719,-69.33594,919.92187,0.0127901218244648,-0.0367718184114929,0.1374945950111605,82.8,5.4,76.05,-996.58203,-5.37109,177.73437,-0.1116478395854512,0.1233720888357231,-0.0142556747973644,57.0,20.25,0.3
-990.23437,33.20313,-323.24219,-0.0050628510941851,-0.0181194846954295,0.0783399761403914,-2.25,29.4,26.25,-431.15234,-59.57031,937.5,-0.0047963393174056,0.0049295079393327,0.1164441789028568,84.15,4.2,75.6,-977.53906,-30.76172,203.61328,-0.1386936362072806,0.1216401986189692,-0.0142556747973644,56.25,18.75,-1.35
-974.12109,36.13281,-342.28516,-0.0811377389313384,0.0512940049856369,0.0375711792089063,-3.15,28.5,25.05,-437.01172,-57.12891,937.01172,-0.0118575924051242,0.0066615726890119,0.1552143993078833,82.65,3.3,75.75,-985.35156,-13.67187,176.26953,-0.0847350370526239,0.0734104682010586,-0.0270459711547545,56.55,20.25,-1.05
-990.72266,60.54688,-349.60937,-0.0193185258915496,0.0286446927495813,0.077540615342978,-3.15,28.5,25.05,-451.17187,-56.15234,918.45703,0.0115910806283447,0.0452986244721112,0.1241714496331365,82.65,3.3,75.75,-996.58203,-17.08984,198.24219,-0.0957932686603347,0.1012558001532266,-0.0271791397766816,55.65,19.05,-0.45
-993.65234,60.54688,-340.82031,-0.0101255276554451,0.0135896571548034,0.1051194355183664,-4.05,30.15,25.65,-443.35937,-42.96875,905.76172,0.0431668793237253,0.0373046674321268,0.094860564708069,82.65,3.3,75.75,-1004.88281,-13.18359,195.80078,-0.059154618870769,0.0472970264656447,0.006128723668378,56.1,20.1,-0.75
-984.86328,62.5,-322.26562,-0.1127137121596442,0.0349065850398865,0.0520933657830503,-3.0,30.15,25.2,-424.80469,-49.80469,919.92187,0.0355727772153728,0.089797888146809,0.1077840296873862,83.55,4.2,74.85,-1012.69531,-24.41406,205.07812,-0.071944915228159,0.0907304175661496,0.0322419908708668,56.4,19.8,-0.15
-971.19141,67.87109,-320.3125,-0.1069846688899728,0.0275788201753884,0.0567565364785288,-4.05,28.65,25.65,-436.52344,-53.71094,938.47656,0.0398360929792193,0.0604870032217414,0.1036538825454668,82.65,3.75,75.75,-1018.06641,-17.08984,210.44922,-0.0436999028772844,0.0247810573844414,-0.002264913770313,56.4,19.8,-0.15
-954.10156,79.58984,-322.26562,-0.0993905667816202,0.0283781809728018,0.0876661429984231,-2.55,29.7,25.65,-422.36328,-41.99219,917.48047,0.0009327039522657,0.068614128883653,0.0476967068643514,83.55,4.2,75.3,-1003.41797,-15.625,189.45312,-0.0033307863445059,0.0387702204050264,0.016787100344457,55.65,21.15,-0.15
-949.21875,65.42969,-321.77734,-0.1533491659362769,0.0310429496747467,0.0386370517830992,-2.55,29.7,25.65,-430.17578,-47.36328,930.66406,0.0353062654385932,0.0247810573844414,0.1273690673557154,82.8,3.15,75.6,-1011.71875,2.44141,225.09766,-0.0210505906412288,0.0820704428836041,0.0107917198309313,55.65,21.15,-0.15
-939.94141,58.10547,-315.42969,-0.1376279381660128,0.0515605167624164,0.0310429496747467,-4.5,31.05,25.05,-417.48047,-54.6875,930.66406,-0.0238483534321757,0.0695466583029936,0.1048529237415869,82.35,4.95,76.05,-1004.39453,0.97656,242.1875,0.0174532925199432,0.0814042507081179,0.0799386977352182,55.65,21.15,-0.15
-937.98828,43.94531,-306.64062,-0.0995237354035474,0.0138559943986577,0.0217166082837898,-3.15,30.3,26.85,-407.22656,-37.59766,961.91406,-0.0041301471419193,0.1493521874162847,0.0325085026476463,82.2,3.75,76.2,-998.04687,-13.67187,207.51953,-0.0153215473715574,0.1743997565775057,0.0548913031069224,55.5,21.45,-0.3
-953.61328,34.66797,-302.24609,-0.1570796326794896,0.1005896079777403,-0.0698131700797731,-1.8,30.15,25.2,-393.06641,-49.80469,986.32812,0.0277121633302407,0.150018379591771,0.0916631215184153,82.2,3.75,76.2,-1001.46484,0.48828,199.70703,0.016787100344457,0.1438898304563181,0.0936615235119489,55.8,21.0,-0.6
-995.11719,1.46484,-312.5,-0.0935283548900217,0.0795390173365115,-0.0945942274642146,-3.6,30.9,25.65,-380.37109,-73.24219,944.82422,-0.0038636353651398,0.1309663654770009,0.1101822866125516,83.55,4.95,75.6,-985.83984,7.8125,181.64062,0.0508943245869302,0.1606769308007752,0.095393588261628,57.15,20.55,0.75
-1011.71875,12.20703,-326.66016,0.0007993607974134,-0.0159877395470436,-0.0406354537766327,-3.6,30.9,25.65,-406.73828,-91.30859,908.20312,0.037970859607613,0.1061853080925594,0.1205743260447762,84.45,4.05,75.75,-980.95703,28.32031,195.3125,0.0326416712695735,0.1851914764084371,0.1063184767144865,56.1,19.8,-0.45
-997.07031,23.92578,-317.38281,-0.0277121633302407,0.0097258472567384,-0.0546247913301429,-3.15,29.55,26.4,-406.73828,-92.28516,892.08984,0.0774072721881257,0.1031210335248329,0.122173047639603,83.55,3.45,75.3,-969.72656,40.52734,200.19531,0.0365053066347134,0.1512174207878911,0.1405590441118121,54.45,20.25,-0.3
-1005.37109,32.22656,-321.77734,-0.0114579120064175,-0.0498284520127373,-0.1272358987337882,-3.15,28.5,25.8,-414.0625,-85.9375,883.30078,0.0850015488294034,-0.0203843984657425,0.1135130729570576,83.55,3.45,75.3,-952.63672,43.45703,168.94531,-0.0227824808579827,0.2131699769825322,0.1003230962009608,55.8,20.25,0.3
-978.51562,36.62109,-302.73437,0.0211837592631559,-0.0919296332951949,0.0289112045263608,-4.65,29.7,25.65,-402.83203,-62.5,888.18359,0.110981647409965,-0.0371714988101996,0.1117810082073784,83.25,5.25,75.45,-954.10156,27.34375,202.14844,-0.059154618870769,0.1818606900639311,0.0700796818565527,55.8,20.25,0.3
-948.73047,45.89844,-294.43359,-0.0511608363637097,-0.0724777642487929,-0.1011224569983742,-4.2,29.25,26.85,-406.73828,-55.66406,917.96875,0.0917962901403425,-0.0788728251610253,0.0907304175661496,82.95,5.25,75.75,-949.70703,1.95312,193.35937,-0.0852680606061829,0.1597442268485094,0.0706125308771865,56.1,21.15,-0.75
-926.26953,27.83203,-274.90234,-0.0421010067495324,-0.0472970264656447,-0.0823369546603836,-4.2,29.25,26.85,-410.64453,-36.62109,905.27344,0.1041869060990259,-0.0386370517830992,0.0802052095119978,82.95,5.25,75.75,-966.30859,-1.46484,212.89062,-0.0794058487145844,0.2287580361308692,0.0209172474863764,55.65,20.85,-0.45
-920.89844,34.66797,-273.92578,0.0318423104721601,-0.1003230962009608,-0.041834669505678,-4.2,29.25,26.85,-417.48047,13.18359,914.55078,0.1350965126189202,-0.0499617951675896,0.0827366350590903,84.15,5.7,76.35,-997.55859,-7.32422,224.12109,-0.0730107878023519,0.1173767083221974,0.032375159492794,57.3,21.0,-0.3
-889.16016,33.20313,-284.66797,-0.0154548905264097,-0.045165455850184,-0.0251807377831481,-3.0,30.15,26.25,-404.78516,21.48438,944.82422,0.027312482931534,-0.0972588216332344,0.0896645449919567,83.7,4.5,75.15,-1003.90625,-3.41797,214.84375,-0.0899310567687362,0.1690703937065411,0.0444992636746978,56.4,20.85,-1.8
-878.41797,25.39063,-259.27734,-0.007860613885132,0.0301102457224809,-0.0584886012282079,-3.6,29.4,26.25,-410.15625,46.38672,929.6875,0.0439662401211387,0.049162259837251,0.1509510835440367,83.85,5.4,75.3,-1002.92969,9.76562,206.54297,-0.1080505414641657,0.1024548413493467,0.0828698036810175,57.15,19.8,-0.45
-892.57812,43.45703,-263.67187,0.0253139064050753,0.0668820641339739,-0.0007993607974134,-3.75,28.8,25.35,-409.66797,24.90234,898.92578,-0.0590214502488418,-0.0203843984657425,0.1338974714228001,83.85,5.4,75.3,-1001.95312,3.41797,219.23828,-0.1518836129633773,0.1434899755246862,0.0118575924051242,56.1,20.85,-1.5
-900.39062,51.75781,-285.15625,-0.0230489926347623,0.0858009096268168,-0.1341638086666545,-4.2,29.85,26.4,-428.71094,5.85937,914.0625,-0.0394364125805126,-0.0103920394322246,0.1572128013014168,83.7,4.5,75.75,-998.53516,19.53125,198.24219,-0.078606487917171,0.1430902951259795,0.0083936374386911,56.1,20.85,-1.5
-915.52734,71.28906,-291.99219,-0.0015987215948268,0.0803383781339249,-0.0991240550048407,-4.2,29.85,26.4,-425.78125,-19.53125,924.31641,-0.0186523337160634,0.0003996803987067,0.181327666510372,82.95,4.5,76.2,-1000.97656,28.32031,213.37891,-0.0881991665519822,0.1702694349026612,-0.0255804181818548,55.8,23.7,0.0
-924.80469,93.26172,-307.61719,-0.0083936374386911,0.041301645952119,-0.0858009096268168,-4.5,28.05,26.1,-413.57422,-20.50781,911.62109,-0.04849624219469,-0.0087933178373978,0.1328315988486072,82.8,5.4,74.85,-978.02734,17.57813,197.75391,-0.0452986244721112,0.1284349399299083,0.0202512298438154,55.8,23.7,0.0
-928.71094,85.44922,-311.52344,-0.0504946441882235,0.0928621627145355,-0.0706125308771865,-3.15,30.3,25.35,-427.24609,-41.99219,915.03906,-0.0536922619108023,-0.0447657754514773,0.1333644478692411,83.85,5.4,76.05,-989.74609,36.13281,198.24219,-0.0751423584178126,0.1107151356331855,0.0500949637895168,57.45,21.15,-0.45
-929.19922,83.49609,-329.10156,-0.1032542021467601,0.1060521394706322,-0.1240382810112094,-3.0,29.4,25.95,-436.52344,-58.10547,921.875,0.0090596550812521,-0.0482297304179105,0.1482863148420918,82.2,5.25,76.2,-987.30469,41.50391,204.10156,-0.0528927265804637,0.0668820641339739,0.0171867807431637,56.25,20.7,-1.05
-934.08203,63.96484,-333.98437,-0.061419532641082,0.1055191159170731,-0.0912634411197086,-4.05,29.7,25.2,-438.96484,-69.82422,924.80469,-0.0117244237831971,-0.0246477142295891,0.1473537854227512,83.25,5.25,76.95,-1005.37109,48.82813,208.00781,-0.0592879620256213,0.0474303696204971,0.023981696587028,55.65,20.55,-0.75
-928.71094,20.50781,-329.10156,-0.0627519169920545,0.161209779821409,-0.0726111074036452,-4.05,29.7,25.2,-430.66406,-87.40234,923.33984,0.0656830229378538,-0.0339738810876208,0.1477534658214579,83.25,5.25,76.95,-1003.90625,43.94531,220.21484,-0.0555574952824086,0.1241714496331365,0.0394364125805126,55.65,22.35,-0.45
-936.52344,0.0,-339.35547,-0.0704793622552594,0.1718683310304132,-0.1509510835440367,-3.75,29.25,25.8,-447.26562,-45.89844,957.51953,0.1821270273077855,-0.0454317930940384,0.0298437339457014,83.7,4.5,76.5,-1029.29688,28.80859,211.91406,-0.0690138092823597,0.0666155523571943,0.0263797789792682,55.5,22.5,-1.35
-937.98828,-2.44141,-347.65625,0.0110582316077108,0.1200413024912172,-0.074209828998472,-4.65,29.4,24.6,-438.47656,12.69531,964.35547,0.1172435397002702,-0.132165406673121,0.1181760691196108,84.75,5.25,75.75,-1029.29688,28.80859,215.82031,-0.0568897051004559,0.0961929490590414,0.0425006871482391,55.35,20.85,-0.45
-915.03906,-1.95312,-326.66016,0.0038636353651398,0.1360290420382608,-0.0508943245869302,-4.2,30.3,25.8,-436.52344,38.08594,933.10547,0.0924624823158288,-0.1100489434576992,0.077540615342978,82.95,5.55,74.7,-1034.17969,0.97656,223.14453,-0.0227824808579827,0.0389035635598788,0.1004564393558132,55.35,20.85,-0.45
-915.52734,5.37109,-334.96094,-0.0205175670876697,0.2001133433812878,-0.0085268060606182,-4.2,30.3,25.8,-441.89453,44.43359,902.34375,0.0924624823158288,-0.0700796818565527,0.1430902951259795,84.6,6.6,75.3,-1017.57812,3.90625,229.00391,0.0195850376683291,0.0307764378979672,0.1088499022615791,55.35,20.85,-0.45
-935.05859,25.87891,-344.72656,0.068614128883653,0.1649402465646217,0.0611531953972277,-4.2,30.3,25.8,-427.73437,5.85937,932.12891,0.1119141768293056,-0.0543582795533633,0.1172435397002702,82.65,6.0,76.5,-1016.60156,-1.46484,207.03125,0.1128468807815713,0.0310429496747467,0.134430320443434,56.1,20.85,-1.2
-909.66797,56.64063,-345.70312,0.0499617951675896,0.1396263401595463,0.0943277156874351,-6.15,30.15,25.2,-417.96875,-11.23047,928.22266,0.134430320443434,-0.0498284520127373,0.1161776671260773,83.7,5.55,75.45,-1019.53125,0.48828,225.09766,0.0963261176809686,0.043566559722432,0.0935283548900217,56.1,20.85,-1.2
-910.15625,61.03516,-340.33203,-0.0504946441882235,0.1705359466794407,-0.0215834396618626,-4.35,29.4,26.7,-398.92578,-29.29688,917.48047,0.0787396565390981,-0.0287778613715085,0.1019218177957876,83.7,5.55,75.45,-1005.85937,5.85937,193.35937,0.1345634890653612,0.0298437339457014,0.0640843013430269,55.2,22.2,-2.1
-922.85156,62.5,-348.14453,-0.0530260697353161,0.1428239578821251,0.1051194355183664,-5.25,28.8,25.8,-404.78516,-20.01953,917.96875,0.1059187963157798,-0.0594211306475485,0.1068515002680456,84.45,5.55,75.45,-990.23437,7.8125,223.14453,0.1104486238564059,0.0023980823922402,0.0519601971611231,56.4,22.35,-1.2
-927.24609,73.73047,-367.67578,-0.0472970264656447,0.1297671497479555,0.1358958734163337,-5.25,28.8,25.8,-395.50781,2.44141,913.57422,0.1328315988486072,-0.0957932686603347,0.0393032439585855,84.45,5.55,76.5,-965.82031,26.36719,210.44922,0.1572128013014168,-0.0147886983509235,0.0839356762552105,56.1,21.15,0.45
-955.07812,65.91797,-351.07422,-0.0556906639043358,0.1481531462201646,0.0510274932088574,-4.05,28.95,24.9,-388.18359,10.74219,912.10937,0.1641408857672083,-0.0291777163031404,0.0698131700797731,83.1,6.6,75.3,-952.14844,10.74219,217.77344,0.1470872736459717,-0.0369049870334201,0.0054625314928918,55.8,21.0,-1.65
-945.80078,61.52344,-352.53906,-0.0099923590335179,0.0576890658978693,0.1305666850782942,-5.7,29.4,24.9,-361.81641,20.99609,927.24609,0.0935283548900217,-0.0421010067495324,0.0506278128101507,83.1,6.6,76.65,-929.19922,22.46094,223.63281,0.2210305908676643,-0.0688804661275074,0.0762082309920056,56.4,20.55,-0.45
-943.84766,68.35938,-348.63281,-0.045165455850184,0.0195850376683291,0.1453552088962925,-3.75,28.8,25.35,-373.53516,17.57813,917.96875,0.1195084534705833,-0.0644839817417337,0.0600873228230347,83.1,6.6,76.65,-929.19922,12.69531,196.28906,0.2111715749889987,0.0255804181818548,0.0997902471803269,55.65,21.6,-0.75
-940.42969,41.50391,-344.23828,-0.0795390173365115,0.0,0.0343737360192527,-4.95,28.8,26.1,-365.23437,13.18359,910.15625,0.215301722130918,0.0350397536618137,0.0832694840797242,83.7,5.55,74.7,-926.26953,-8.30078,209.47266,0.2528729013398244,-0.0423675185263119,0.0979250138087206,55.65,21.6,-0.75
-917.48047,65.42969,-334.47266,-0.0267794593779749,-0.0195850376683291,0.0122572728038309,-4.95,28.8,26.1,-360.83984,-6.34766,914.0625,0.1921193863413034,0.0632847660126884,0.0422343499043847,82.8,5.4,74.85,-916.01562,-7.32422,194.82422,0.284448700035205,0.027312482931534,0.0563568560798221,56.4,21.9,-0.75
-910.15625,76.17188,-323.73047,-0.0375711792089063,-0.1428239578821251,0.1044532433428802,-3.75,29.55,24.75,-370.60547,-7.8125,911.62109,0.2087733180638333,0.0963261176809686,0.0343737360192527,82.8,5.4,74.85,-950.19531,-30.27344,165.52734,0.3318790696557022,0.0646171503636608,0.0949939078629213,56.4,21.9,-0.75
-934.08203,88.37891,-328.61328,-0.0584886012282079,-0.0748760211739583,0.002264913770313,-4.95,30.3,25.8,-367.67578,-15.625,902.83203,0.1867901980032639,0.0760750623700784,0.022382800459276,84.15,6.9,75.3,-954.58984,-30.76172,160.64453,0.3887687747561581,0.0755420388165193,0.0929953313364626,54.6,21.9,-1.8
-938.96484,116.69922,-341.79687,-0.1366952342137471,-0.1168438593015635,0.1161776671260773,-4.35,30.15,25.95,-407.71484,-1.46484,919.92187,0.2118375926315597,0.1337641282679478,-0.0250473946282958,83.55,5.4,74.85,-958.98437,-24.41406,142.08984,0.4664425587210634,0.1452220402743654,0.1370949146124538,54.9,20.55,-0.75
-932.12891,110.35156,-333.00781,-0.0724777642487929,-0.2173001241244516,0.1360290420382608,-4.35,29.4,25.95,-411.13281,5.37109,906.73828,0.2388835637863142,0.1616094602201157,-0.0618192130397887,82.05,5.4,74.85,-968.75,-4.88281,133.30078,0.5056126340577217,0.113246561180278,0.0933951862680945,55.65,21.6,-1.8
-934.57031,117.1875,-346.67969,-0.1271025555789358,-0.1692037368613934,0.0444992636746978,-4.35,29.4,25.95,-429.6875,16.60156,909.17969,0.2191653574960579,0.2054425317193273,-0.0475635382424242,82.05,5.4,74.85,-982.91016,37.10938,128.41797,0.5137395851867081,0.0854012292281101,0.1233720888357231,54.6,21.15,-1.5
-961.91406,104.98047,-350.09766,-0.2138361691580184,-0.1654732701181807,0.0341072242424731,-4.2,30.6,25.05,-455.07812,12.20703,886.71875,0.2352864401979539,0.1958498530845161,-0.0423675185263119,82.8,6.15,76.05,-991.21094,67.87109,134.27734,0.4755022138023155,0.0798055291132911,0.1168438593015635,57.15,22.35,-1.8
-963.86719,90.33203,-351.5625,-0.1243047927879889,-0.1959831962393684,0.1235054319905755,-4.5,30.6,24.75,-460.9375,-4.88281,908.69141,0.2183659966986445,0.200246512003215,-0.079272505559732,84.15,5.4,75.3,-997.07031,70.80078,129.39453,0.4159479145328398,0.1164441789028568,0.041834669505678,54.9,22.35,-1.2
-948.24219,97.16797,-357.42187,-0.196915725658709,-0.1653399269633284,0.0512940049856369,-3.3,29.4,25.65,-458.49609,-12.69531,931.64062,0.2394165873398733,0.2119709357864121,-0.0855343978500373,83.1,6.6,75.3,-1010.25391,72.75391,124.51172,0.3554609113110983,0.096459460835821,0.0896645449919567,54.9,22.35,-1.2
-951.66016,85.9375,-356.44531,-0.1865236862264844,-0.1152449631738115,0.0199847180670358,-4.65,28.95,25.95,-500.48828,-20.99609,949.70703,0.2149020417322114,0.0867336135790826,-0.0494287716140306,83.25,6.75,75.45,-1039.0625,69.33594,142.08984,0.3853048197897249,0.0796723604913639,0.1195084534705833,54.6,22.35,-1.5
