IMU1_AccX,IMU1_AccY,IMU1_AccZ,IMU1_GyrX,IMU1_GyrY,IMU1_GyrZ,IMU1_MagX,IMU1_MagY,IMU1_MagZ,IMU2_AccX,IMU2_AccY,IMU2_AccZ,IMU2_GyrX,IMU2_GyrY,IMU2_GyrZ,IMU2_MagX,IMU2_MagY,IMU2_MagZ,IMU3_AccX,IMU3_AccY,IMU3_AccZ,IMU3_GyrX,IMU3_GyrY,IMU3_GyrZ,IMU3_MagX,IMU3_MagY,IMU3_MagZ
-945.80078,218.75,-429.6875,-0.1557472483285172,-0.0209172474863764,0.1561469287272238,-9.45,24.75,19.8,-394.53125,-5.85937,924.31641,0.049162259837251,0.0651499993842947,-0.1249709849634751,81.9,4.8,78.0,-986.81641,25.87891,171.875,0.3102956299938395,0.0767412545455646,-0.0023980823922402,57.15,19.8,2.25
-926.75781,209.47266,-441.40625,-0.158944866051096,0.0608866836204481,0.0896645449919567,-9.6,25.65,19.65,-395.99609,-9.27734,946.77734,0.0370383301882724,0.0794058487145844,-0.1485528266188713,81.0,6.6,77.4,-1009.27734,31.73828,185.54687,0.2255604184082903,0.103787051167394,0.0530260697353161,57.15,19.8,2.25
-923.82812,218.75,-424.80469,-0.1791960958949114,0.116577347524784,0.0731439564242791,-9.9,25.05,19.8,-418.94531,-3.90625,929.19922,0.0443659205198454,0.0667488955120467,-0.1449555284975858,81.9,5.25,76.95,-1019.53125,51.75781,202.63672,0.1953170040638822,0.0229158240128351,-0.0299770771005538,55.65,19.35,1.8
-927.73437,195.80078,-438.96484,-0.1340306400447273,0.0710122112758932,0.0839356762552105,-10.05,25.65,21.0,-418.94531,-2.44141,920.89844,-0.0047963393174056,0.0844685252758443,-0.1416247421530798,81.15,4.8,78.6,-1038.08594,43.94531,222.16797,0.1558805914833695,-0.0205175670876697,-0.0325085026476463,57.45,19.8,2.85
-903.80859,194.82422,-416.50391,-0.1100489434576992,0.0790061683158777,0.1087167336396519,-10.05,25.65,21.0,-410.15625,-11.23047,953.61328,0.0293108849250675,0.0694134896810664,-0.1486859952407985,81.3,4.95,77.7,-1053.71094,52.24609,233.39844,0.1322985752950481,-0.050228132411444,-0.0113245688515652,55.5,21.0,1.65
-866.21094,187.98828,-421.38672,-0.1354961930176269,0.145621720673072,0.0532925815120956,-10.65,24.9,19.35,-416.50391,-3.41797,976.5625,0.0510274932088574,0.0271791397766816,-0.1945176432664688,82.8,4.65,77.7,-1048.82813,75.68359,243.65234,0.0907304175661496,-0.0295773967018471,0.0033307863445059,56.4,19.8,2.55
-866.21094,206.05469,-418.45703,-0.1484196579969441,0.1899878157258427,-0.0173201238980161,-10.65,24.6,21.45,-416.01562,-6.83594,993.65234,-0.0227824808579827,0.0205175670876697,-0.1464210814704855,82.2,3.75,76.95,-1053.22266,54.19922,271.48437,0.0764747427687851,0.0047963393174056,-0.023448673033469,56.4,19.8,2.55
-837.40234,207.51953,-424.80469,-0.1145789455312505,0.2443460952792061,-0.0278453319521679,-11.1,23.85,19.65,-400.87891,2.92969,1005.37109,-0.0094593354799588,-0.0130566336012443,-0.185724325429071,82.2,3.75,76.95,-1036.62109,38.57422,284.17969,0.0674150876875329,-0.0766079113907123,-0.0129234649793172,56.1,20.1,0.75
-819.33594,195.3125,-416.99219,-0.1180429004976836,0.2636646211707558,-0.0425006871482391,-9.0,25.65,18.9,-391.11328,3.41797,1013.67187,-0.0426340303030914,-0.0716784034513795,-0.175731966395553,81.75,5.7,77.4,-1001.46484,40.03906,296.38672,0.0992572236267679,-0.0154548905264097,-0.0059953805135257,55.8,18.75,1.65
-832.51953,205.56641,-421.38672,-0.1514839325646706,0.3534625093175648,-0.0759418937481512,-9.0,25.65,18.9,-343.26172,-9.27734,998.53516,-0.0646171503636608,-0.0885988469506889,-0.1353630243956998,82.65,6.0,77.25,-986.81641,33.69141,291.99219,0.1598775700033617,-0.0486294108166172,0.0053291883380394,55.8,18.75,1.65
-853.02734,189.94141,-429.6875,-0.1211071750654101,0.3217533674673318,-0.0510274932088574,-9.0,25.65,18.9,-349.12109,-21.48438,958.00781,-0.0314426300734534,-0.1008561197545199,-0.1422909343285661,81.15,4.8,77.55,-962.89062,41.99219,273.4375,0.1732005408484604,-0.0142556747973644,-0.0147886983509235,55.65,19.8,1.5
-875.0,185.54687,-425.78125,-0.1259035143828157,0.4072879398502943,-0.1223062162615302,-10.2,26.55,20.25,-337.89062,-27.83203,937.98828,-0.0818039311068246,-0.0968591412345277,-0.1338974714228001,81.15,4.8,77.55,-960.9375,46.875,259.27734,0.1795957762936181,-0.0278453319521679,-0.0422343499043847,55.65,19.8,1.5
-899.90234,168.94531,-452.63672,-0.1747994369762124,0.3096294378183532,-0.1091164140383586,-10.2,24.75,20.25,-348.63281,-12.69531,931.64062,-0.0271791397766816,-0.069680001457846,-0.1745329251994329,82.95,5.55,77.25,-972.16797,65.42969,285.64453,0.1797289449155452,-0.0486294108166172,-0.0353062654385932,56.25,20.7,2.4
-903.80859,155.76172,-466.79687,-0.1416247421530798,0.208107125888347,-0.067015232755901,-10.65,25.65,18.9,-335.9375,-20.50781,931.64062,-0.0126569532025376,-0.0520933657830503,-0.1770643507465255,82.2,3.3,77.55,-958.00781,57.61719,262.20703,0.1890551117735769,-0.0063950609122324,-0.0191853572696224,56.1,19.05,2.55
-893.06641,143.55469,-457.51953,-0.141091893132446,0.2121041044083393,-0.1156446435725182,-10.65,25.65,18.9,-334.96094,2.44141,949.21875,0.0683476171068735,-0.0130566336012443,-0.1602772504020684,82.2,3.3,77.55,-971.19141,52.73438,259.76562,0.1747994369762124,0.0154548905264097,-0.0091929982361045,57.0,19.2,2.7
-897.94922,136.23047,-442.87109,-0.1408253813556664,0.1874563901787501,-0.0794058487145844,-10.65,24.15,19.95,-342.77344,-1.95312,944.33594,0.0604870032217414,-0.0122572728038309,-0.1372282577673061,80.55,4.2,78.45,-954.10156,66.40625,273.92578,0.1430902951259795,-0.0254472495599277,-0.0131899767560967,55.65,18.6,1.8
-906.25,145.01953,-442.87109,-0.1063184767144865,0.1284349399299083,-0.0431668793237253,-10.5,26.25,20.55,-335.9375,0.48828,942.87109,0.0378376909856858,-0.0575558972759422,-0.1473537854227512,81.15,5.55,76.95,-953.125,83.98438,270.01953,0.1584120170304621,-0.0050628510941851,-0.0440995832759911,56.7,19.05,0.45
-886.71875,161.13281,-429.6875,-0.1308330223221485,0.1116478395854512,-0.063018428768834,-9.3,24.9,18.9,-320.3125,7.32422,961.91406,0.016787100344457,-0.0724777642487929,-0.1332312792473139,82.2,3.0,77.25,-954.10156,97.16797,290.52734,0.1602772504020684,-0.034640073263107,-0.0365053066347134,55.5,19.95,2.1
-880.37109,141.11328,-436.52344,-0.1461547442266311,0.132165406673121,-0.0355727772153728,-11.1,26.1,19.65,-328.125,24.90234,952.14844,-0.0233155044115418,-0.1437564873014657,-0.1730673722265333,82.2,3.0,77.25,-968.26172,92.77344,299.31641,0.1362955538150403,0.0187856768709157,-0.0431668793237253,55.5,19.95,2.1
-882.32422,130.85937,-421.875,-0.0834028272345766,0.1004564393558132,0.0165205885676775,-11.1,26.1,19.65,-322.26562,20.01953,974.60937,-0.0133231453780239,-0.1161776671260773,-0.0997902471803269,83.1,3.15,78.15,-948.73047,126.46484,271.97266,0.145621720673072,0.0563568560798221,-0.041834669505678,56.25,18.0,2.1
-864.25781,146.48437,-408.20312,-0.150018379591771,0.1314992144976347,-0.0097258472567384,-11.4,25.35,20.4,-314.94141,31.73828,973.14453,-0.0119907610270514,-0.1765313271929664,-0.1031210335248329,81.75,3.9,78.9,-944.82422,111.32813,270.50781,0.1685375446859072,0.0587549384720623,-0.0921959705390492,56.55,19.95,1.35
-843.75,146.97266,-402.34375,-0.1240382810112094,0.0891316959713228,0.0142556747973644,-12.0,25.8,19.5,-321.77734,17.08984,962.40234,-0.0247810573844414,-0.1468207618691921,-0.0840688448771376,82.05,3.45,77.1,-951.17187,119.14063,272.94922,0.1332312792473139,0.0421010067495324,-0.1370949146124538,55.8,18.75,2.4
-841.79687,146.97266,-416.99219,-0.1265697065583019,0.0638177895662474,0.0921959705390492,-11.55,26.55,19.5,-354.98047,19.53125,945.80078,-0.0658161915597809,-0.1259035143828157,-0.041834669505678,81.75,4.2,77.7,-966.79687,91.79688,260.25391,0.0879326547752027,0.0077274452632048,-0.1052526041402936,55.65,18.3,2.85
-841.79687,142.08984,-422.85156,-0.1292343007273217,0.0503614755662963,0.0790061683158777,-11.4,25.35,18.9,-368.16406,1.46484,939.45312,-0.0182526533173567,-0.1305666850782942,-0.0655498543159266,81.3,3.9,78.9,-976.07422,78.125,272.94922,0.0511608363637097,0.0103920394322246,-0.1769310075916731,57.45,19.8,1.2
-827.63672,161.13281,-424.80469,-0.1706692898342931,0.1368284028356742,0.0406354537766327,-11.4,25.35,18.9,-359.86328,1.95312,949.70703,0.0604870032217414,-0.0776737839649052,-0.0417013263508257,80.4,4.8,79.05,-1002.44141,76.17188,250.0,0.0470306892217904,-0.0225161436141284,-0.1889219431516497,56.55,18.45,2.1
-847.65625,179.6875,-433.10547,-0.1252373222073295,0.1326982556937548,0.1628085014162358,-10.95,25.8,19.8,-356.44531,-14.64844,951.66016,-0.016787100344457,-0.1172435397002702,-0.0884655037958365,80.4,4.8,79.05,-1002.92969,80.07813,248.53516,0.074209828998472,-0.0198513749121835,-0.1369617459905266,56.55,18.45,2.1
-840.33203,164.0625,-441.40625,-0.1275022359776425,0.2423476932856726,0.1172435397002702,-10.65,25.65,19.65,-369.14062,-11.71875,949.21875,-0.1009892883764471,-0.0850015488294034,-0.0514271736075641,81.3,3.45,77.7,-997.07031,99.60938,245.60547,0.0307764378979672,-0.0586217698501351,-0.103787051167394,55.5,18.45,1.05
-855.95703,170.41016,-452.63672,-0.1925190667400101,0.3020351611770755,0.1259035143828157,-10.65,23.4,18.6,-379.88281,-8.30078,949.21875,-0.1227058966602369,-0.2053093630974001,-0.0165205885676775,81.45,1.8,78.6,-1001.95312,92.77344,261.23047,-0.0366386497895657,-0.0399694361340717,-0.1376279381660128,55.5,18.45,1.05
-861.32812,148.92578,-446.77734,-0.1441561677001724,0.2208974222457371,0.1502848913685505,-10.95,25.5,18.15,-374.51172,-47.36328,938.96484,-0.0989908863829135,-0.1482863148420918,-0.0299770771005538,81.9,3.75,77.25,-1006.83594,97.65625,258.78906,-0.1112481591867445,-0.1195084534705833,-0.1831928998819784,55.65,18.3,1.8
-869.14062,167.96875,-456.05469,-0.1436233186795386,0.2226293124624911,0.096459460835821,-10.95,25.5,18.15,-366.21094,-33.69141,952.14844,-0.0900643999235885,-0.1135130729570576,0.007860613885132,82.8,4.65,77.7,-1002.92969,95.70313,257.8125,-0.1283017713079811,-0.1084502218628724,-0.1418912539298594,57.6,19.2,0.6
-853.02734,183.10547,-465.82031,-0.1661392877607418,0.2981715258119357,0.0427671989250186,-12.3,27.75,18.15,-362.79297,-31.25,972.16797,-0.0555574952824086,-0.1566799522807829,0.0074609334864253,81.75,1.95,79.2,-981.93359,88.86719,259.76562,-0.1811944978884449,-0.1733338840033128,-0.1123138572280122,57.6,19.2,0.6
-868.16406,167.48047,-471.67969,-0.091529778363563,0.2304901008805483,0.1457548892949992,-13.35,26.25,19.2,-349.60937,-49.80469,961.42578,-0.1009892883764471,-0.1616094602201157,0.0250473946282958,82.35,3.15,78.45,-981.44531,81.54297,270.01953,-0.2103722141915853,-0.1986477904083882,-0.1073843492886795,57.45,16.8,2.25
-839.84375,208.49609,-476.07422,-0.1548147189091766,0.2672619192920413,0.0462311538914518,-12.15,27.45,19.65,-358.39844,-51.75781,953.125,-0.1317657262744143,-0.1653399269633284,0.0138559943986577,82.35,3.15,78.45,-974.60937,48.33984,286.13281,-0.2511408365901452,-0.1874563901787501,-0.1374945950111605,56.55,17.7,2.1
-850.58594,200.19531,-488.76953,-0.1534823345582041,0.3208208380479913,0.0050628510941851,-11.4,25.35,19.35,-343.26172,-46.38672,968.26172,-0.1424242774834185,-0.1449555284975858,0.0519601971611231,82.35,3.15,78.45,-975.58594,27.34375,265.625,-0.2093063416173923,-0.1291011321053945,-0.0905972489442224,57.0,18.0,1.05
-848.63281,189.94141,-478.51562,-0.1287014517066878,0.2406156285359934,0.0031976177225788,-11.4,25.35,19.35,-322.26562,-58.10547,970.70312,-0.1424242774834185,-0.1922527294961557,0.0373046674321268,81.75,4.2,77.7,-971.19141,10.25391,266.60156,-0.1947841550432483,-0.1001899275790336,-0.10205516095064,56.1,19.05,2.85
-859.375,191.89453,-484.375,-0.1472204422678988,0.2239616968134635,0.0155880591483369,-13.35,27.3,19.2,-326.17187,-61.52344,989.25781,-0.146687593247265,-0.2047763395438411,0.0787396565390981,82.2,4.05,78.6,-952.14844,16.11328,254.39453,-0.1919862177193762,-0.0393032439585855,-0.1316323831195619,56.1,19.05,2.85
-855.46875,176.75781,-495.60547,-0.2067749160702998,0.2483430737991983,-0.0153215473715574,-12.0,26.25,18.15,-316.89453,-46.875,965.82031,-0.1660061191388146,-0.1943843001116164,0.0780734643636119,81.15,5.25,78.6,-937.98828,35.64453,242.67578,-0.1910535137671104,-0.0347734164179594,-0.1308330223221485,56.7,17.85,2.55
-879.39453,169.43359,-485.83984,-0.1485528266188713,0.2330213518947157,-0.0153215473715574,-12.15,25.65,18.3,-311.52344,-62.5,956.54297,-0.1834594116587579,-0.1586783542743164,0.0818039311068246,81.15,5.25,78.6,-946.28906,36.62109,223.14453,-0.2306232695024755,-0.0302434143444081,-0.1910535137671104,56.7,17.85,2.55
-891.60156,168.45703,-494.14062,-0.1629418445710882,0.1822603704626378,0.0287778613715085,-13.05,25.8,20.25,-331.54297,-54.19922,952.63672,-0.1366952342137471,-0.0544916227082157,0.0566231933236764,81.45,2.55,78.3,-937.98828,40.52734,223.63281,-0.212503784807046,-0.0093261668580317,-0.1512174207878911,55.2,17.4,1.35
-907.71484,165.52734,-489.25781,-0.1967825570367818,0.1869233666251911,-0.0582220894514284,-13.05,25.8,20.25,-325.68359,-52.24609,942.87109,-0.1044532433428802,-0.0265129476011954,0.0929953313364626,80.55,1.2,79.95,-940.42969,25.87891,224.12109,-0.2038438101245005,-0.002264913770313,-0.146687593247265,56.7,18.3,2.85
-924.80469,176.75781,-502.44141,-0.2013123845774079,0.1472204422678988,-0.1059187963157798,-12.0,25.5,18.15,-331.54297,-61.03516,955.56641,-0.1670719917130076,-0.0327748398915007,0.0722112524720134,80.55,1.2,79.95,-926.26953,9.76562,243.16406,-0.2283583557321624,-0.013456313999951,-0.1338974714228001,58.2,17.85,3.3
-906.25,155.76172,-502.44141,-0.1761316467942597,0.0684807857288007,0.0442327518979182,-12.3,26.55,19.8,-331.05469,-74.21875,968.75,-0.166805479936228,0.0255804181818548,0.0760750623700784,81.0,1.95,78.9,-936.03516,-6.83594,234.375,-0.2166339319489653,-0.0013323843509724,-0.1516171011865978,58.2,17.85,1.5
-908.69141,157.71484,-510.25391,-0.2204977418470304,0.1161776671260773,-0.1095160944370653,-13.35,27.0,19.8,-335.44922,-100.58594,949.21875,-0.2176998045231583,0.0175864611418704,0.059154618870769,81.15,3.3,80.1,-943.84766,-20.01953,234.375,-0.2444792639011333,0.0277121633302407,-0.1357627047944065,57.15,17.1,3.9
-931.15234,132.8125,-514.64844,-0.1637412053685016,0.0734104682010586,-0.1268362183350815,-12.45,27.45,18.9,-327.14844,-102.05078,927.24609,-0.1795957762936181,-0.0109248884528585,0.0470306892217904,81.75,1.65,78.45,-948.73047,-17.08984,230.95703,-0.2240948654353907,0.0615528757959344,-0.0967257980796753,57.0,18.45,1.35
-931.64062,112.30469,-520.01953,-0.1063184767144865,0.034640073263107,-0.051827028539196,-12.45,27.45,18.9,-345.70312,-107.42188,936.03516,-0.107650861065459,0.0622190679714206,0.06634921511334,81.75,1.65,78.45,-960.9375,-6.83594,239.74609,-0.1911868569219628,0.0157212277702641,-0.1131133925583509,57.0,18.45,1.35
-939.94141,104.49219,-506.83594,-0.118842261295097,0.0322419908708668,-0.1786630723413523,-13.2,25.35,18.6,-353.51562,-113.76953,940.91797,-0.0759418937481512,0.0482297304179105,0.0764747427687851,81.0,3.15,81.3,-959.47266,6.83594,225.09766,-0.1656064387401079,-0.0097258472567384,-0.0678147680862396,56.1,17.55,3.3
-910.15625,104.00391,-508.78906,-0.0988575432280612,0.0034639549664331,-0.1426906147272728,-12.3,27.3,18.75,-347.16797,-92.28516,936.03516,-0.0103920394322246,0.0844685252758443,0.074209828998472,80.55,3.45,80.25,-950.19531,6.83594,240.72266,-0.1989143021851677,0.0401026047559989,-0.0634181091675407,56.1,17.55,3.3
-901.36719,119.62891,-497.55859,-0.0258469299586344,-0.0743429976203992,-0.1116478395854512,-12.45,25.35,19.65,-350.09766,-96.19141,959.47266,-0.0322419908708668,0.1356293616395541,0.0951270764848485,80.1,2.25,79.8,-971.67969,17.08984,230.95703,-0.1838590920574646,0.043566559722432,-0.0672817445326806,56.7,16.35,2.55
-886.71875,135.25391,-491.69922,-0.050228132411444,-0.0082602942838387,-0.1670719917130076,-12.45,25.35,19.65,-345.70312,-94.23828,954.10156,0.0317089673173077,0.2315559734547413,0.1200413024912172,80.85,4.05,78.0,-945.3125,28.80859,222.65625,-0.1795957762936181,0.0969923098564548,-0.0748760211739583,57.45,16.8,2.85
-887.20703,157.71484,-491.21094,-0.0512940049856369,0.0015987215948268,-0.1416247421530798,-12.45,25.35,19.65,-352.53906,-105.46875,916.99219,-0.0298437339457014,0.1957166844625889,0.093128674491315,81.45,1.5,78.6,-973.14453,17.08984,232.91016,-0.2227626556173434,0.058088746296576,-0.1189754299170242,57.3,17.4,1.35
-876.95312,136.23047,-501.95312,-0.0317089673173077,-0.0710122112758932,-0.0009327039522657,-12.9,26.1,19.65,-361.81641,-98.14453,941.89453,-0.0039969785199922,0.1163108357480045,0.1404257009569597,80.85,4.5,79.8,-972.65625,9.76562,226.5625,-0.1801286253142519,0.0354394340605204,-0.0536922619108023,57.15,18.3,2.55
-874.02344,145.99609,-487.79297,-0.0611531953972277,-0.0209172474863764,-0.0667488955120467,-14.1,26.25,19.2,-368.16406,-104.00391,942.38281,0.042900542079871,0.248742754197905,0.1247044731866956,80.85,4.5,79.8,-970.21484,9.27734,217.77344,-0.1990474708070949,0.1159111553492978,-0.018385996472209,57.45,18.3,2.55
-875.97656,135.25391,-488.76953,-0.0851347174513306,-0.0365053066347134,-0.079272505559732,-12.6,26.55,17.1,-388.18359,-77.14844,937.5,0.0242480338308824,0.1783965605645728,0.2065084042935202,81.45,3.3,78.3,-993.65234,10.25391,223.63281,-0.1834594116587579,0.068614128883653,0.0115910806283447,57.15,17.1,2.55
-884.27734,151.36719,-494.62891,-0.0062618922903052,-0.0414349891069713,-0.018385996472209,-12.45,26.4,18.3,-381.83594,-53.22266,947.75391,0.050228132411444,0.1815941782871516,0.1688040564626867,80.25,3.15,78.15,-994.62891,1.95312,215.33203,-0.1886554313748702,0.071944915228159,-0.0195850376683291,57.15,17.1,2.55
-876.95312,148.92578,-494.62891,-0.0835359958565038,-0.0307764378979672,-0.1316323831195619,-12.45,26.4,18.3,-376.95312,-40.52734,968.75,0.0578224090527217,0.1721348428071927,0.1656064387401079,81.9,2.55,78.3,-1006.83594,-13.67187,229.49219,-0.2290245479076487,0.0622190679714206,0.0366386497895657,57.0,17.1,2.55
-861.32812,158.69141,-510.25391,-0.0334410320669869,-0.0355727772153728,-0.1071178375118999,-12.9,26.4,19.35,-383.30078,-43.45703,971.67969,-0.0038636353651398,0.1636080367465744,0.1564134405040034,81.9,2.55,78.3,-1011.71875,-14.64844,230.46875,-0.2154348907528452,-0.0021317451483858,-0.0599539796681824,57.0,16.2,3.15
-852.53906,165.52734,-495.60547,-0.0390367321818059,-0.029044373148288,-0.0654165111610742,-13.2,26.4,18.3,-375.97656,-52.24609,952.14844,-0.0590214502488418,0.1641408857672083,0.1917197059425967,82.65,4.05,78.3,-983.39844,-11.23047,214.84375,-0.2434133913269403,0.0174532925199432,0.0187856768709157,57.0,16.2,3.15
-860.83984,180.17578,-500.48828,-0.0387702204050264,-0.0149218669728507,-0.0385038831611721,-11.55,27.3,18.15,-387.20703,-64.45313,958.98437,-0.045165455850184,0.134430320443434,0.2054425317193273,81.75,4.95,78.45,-994.14062,-5.85937,231.93359,-0.3048330985009476,0.0367718184114929,-0.0113245688515652,56.4,17.85,1.5
-863.28125,169.92187,-496.09375,-0.1013889687751538,0.0350397536618137,-0.0963261176809686,-12.9,27.15,19.35,-387.69531,-82.03125,958.98437,-0.0867336135790826,0.1224395594163826,0.1921193863413034,81.75,4.95,78.45,-990.23437,-11.23047,234.86328,-0.2820506176429648,-0.0146553551960711,-0.0482297304179105,58.05,18.45,2.4
-868.16406,180.17578,-508.78906,-0.064750318985588,-0.0187856768709157,-0.0486294108166172,-12.9,27.15,19.35,-366.21094,-92.28516,938.96484,-0.0419678381276052,0.1743997565775057,0.2113047436109259,82.2,4.05,78.3,-998.53516,-23.4375,259.27734,-0.2995039101629081,-0.0334410320669869,-0.0258469299586344,55.8,17.7,2.1
-873.04687,181.64062,-493.16406,-0.1137794102009119,-0.0073277648644981,-0.0342403928644003,-12.15,28.2,17.85,-370.11719,-80.07813,958.49609,-0.0270459711547545,0.1822603704626378,0.2202312300702509,81.0,3.45,78.15,-992.67578,-26.85547,253.90625,-0.2739234919810532,-0.0207840788644492,0.015055210127703,57.3,18.45,3.15
-902.34375,172.85156,-508.30078,-0.1540153581117632,0.0563568560798221,-0.0916631215184153,-12.9,26.7,19.65,-365.23437,-80.56641,987.79297,-0.0311761182966739,0.1275022359776425,0.1546815502872494,81.9,3.0,78.0,-1003.41797,-52.24609,260.74219,-0.2600673230494703,0.0019984019935335,-0.0226493122360556,57.0,18.0,1.65
-885.74219,174.31641,-481.44531,-0.0969923098564548,-0.0579555776746489,-0.052493046181757,-12.45,27.15,18.3,-359.86328,-82.03125,967.77344,-0.0407687969314851,0.1271025555789358,0.1629418445710882,81.9,3.0,78.0,-1000.0,-56.15234,290.52734,-0.2428805423063064,0.0081271256619115,0.0305099261211876,57.15,16.8,1.8
-878.41797,187.01172,-506.83594,-0.114312433754471,-0.0688804661275074,-0.0299770771005538,-12.45,27.15,19.35,-367.1875,-64.45313,986.32812,-0.0397029243572922,0.1309663654770009,0.1144456023763981,83.85,4.95,77.7,-989.25781,-40.03906,247.55859,-0.2344869048676153,0.0538254305327295,0.0508943245869302,57.15,16.8,1.8
-862.30469,175.29297,-503.90625,-0.1211071750654101,-0.0390367321818059,-0.0869999508229369,-12.45,27.15,19.35,-370.11719,-69.82422,947.26562,-0.049162259837251,0.1163108357480045,0.1769310075916731,82.65,4.8,77.55,-969.72656,-42.48047,274.41406,-0.211437912232853,0.0814042507081179,0.0462311538914518,56.1,18.3,1.8
-844.72656,199.70703,-477.53906,-0.0947273960861418,-0.0510274932088574,-0.0322419908708668,-12.45,28.2,19.35,-365.72266,-60.05859,951.17187,-0.0373046674321268,0.1714686506317065,0.1362955538150403,83.1,4.2,79.5,-971.67969,-20.01953,282.71484,-0.2255604184082903,0.0374380105869791,0.0515605167624164,57.9,18.6,2.25
-847.16797,199.70703,-468.26172,-0.0634181091675407,-0.0664823837352672,-0.0322419908708668,-12.15,26.1,19.35,-374.02344,-63.47656,953.125,0.0090596550812521,0.1898544725709904,0.1041869060990259,82.35,4.2,77.7,-971.67969,-15.625,266.11328,-0.1537488463349836,0.0764747427687851,0.0391699008037331,56.55,17.4,2.7
-870.11719,225.09766,-469.72656,-0.1333644478692411,0.0207840788644492,-0.1016554805519333,-11.55,27.75,18.45,-365.72266,-79.58984,962.89062,-0.0245145456076619,0.1937182824690554,0.1736002212471671,81.0,4.65,77.7,-961.91406,-7.32422,282.71484,-0.1538820149569108,0.0414349891069713,0.0940612039106556,58.05,18.45,2.4
-859.375,199.21875,-459.47266,-0.1291011321053945,-0.0387702204050264,-0.0317089673173077,-12.45,26.7,18.6,-357.91016,-81.54297,957.03125,-0.018385996472209,0.1617428033749681,0.1289677889505422,81.0,3.45,78.45,-979.00391,-4.88281,266.11328,-0.1231057515918688,0.0070612530877186,0.0411684773301918,57.15,18.6,2.85
-853.02734,193.35937,-464.35547,-0.1414915735311527,-0.0779402957416847,-0.0500949637895168,-12.45,26.7,18.6,-361.81641,-82.51953,938.96484,0.050761155965003,0.1436233186795386,0.0675482563094601,81.0,3.45,78.45,-964.84375,-24.41406,273.92578,-0.1401591891801802,0.0405022851547056,-0.0041301471419193,57.45,19.35,3.3
-846.67969,187.98828,-448.24219,-0.1240382810112094,-0.0536922619108023,-0.1276355791324949,-12.6,27.75,20.25,-351.5625,-70.80078,952.63672,0.0619525561946411,0.1592113778278755,0.0868667822010097,81.0,3.45,78.45,-979.49219,-19.04297,292.48047,-0.1147121141531777,0.0107917198309313,0.043566559722432,57.45,19.35,3.3
-851.5625,192.87109,-441.40625,-0.1333644478692411,-0.0710122112758932,-0.0584886012282079,-14.1,27.0,19.2,-350.58594,-58.59375,948.24219,0.0357059458372999,0.1059187963157798,0.1119141768293056,82.05,5.4,77.1,-961.91406,-1.46484,261.23047,-0.0989908863829135,0.0538254305327295,0.0889985273493956,58.95,18.3,2.85
-838.86719,174.31641,-455.07812,-0.1071178375118999,-0.1424242774834185,-0.0327748398915007,-12.0,26.55,20.55,-340.33203,-60.54688,943.84766,0.0129234649793172,0.1305666850782942,0.0778071271197576,81.75,4.95,78.9,-972.16797,-14.64844,280.76172,-0.0768744231674918,0.0439662401211387,0.0315757986953806,58.95,18.3,2.85
-854.00391,180.17578,-459.47266,-0.1329647674705344,-0.0382373713843925,-0.1169770279234907,-12.3,27.0,19.8,-337.40234,-64.45313,939.94141,0.04849624219469,0.1609432680446295,0.0535589187559499,81.3,4.65,77.7,-964.84375,-1.95312,270.99609,-0.0860674214035963,0.0011990411961201,0.0570230482553083,55.8,18.75,3.45
-874.51172,174.80469,-441.40625,-0.1028545217480534,-0.022382800459276,-0.0664823837352672,-12.3,27.0,19.8,-341.30859,-66.40625,940.42969,0.0277121633302407,0.1285681085518354,0.0912634411197086,81.9,4.5,78.0,-955.07812,12.69531,272.46094,-0.1032542021467601,0.0158545709251164,0.0667488955120467,57.45,19.35,3.3
-867.67578,167.96875,-449.21875,-0.0731439564242791,-0.0018652333716063,-0.1072511806667523,-12.9,26.7,19.65,-348.63281,-62.98828,931.64062,-0.0021317451483858,0.1537488463349836,0.0850015488294034,82.95,5.25,78.0,-968.75,-12.20703,290.03906,-0.118842261295097,-0.0131899767560967,0.063684446411395,56.1,19.8,2.55
-874.02344,165.52734,-444.82422,-0.1296339811260284,-0.0552909835056291,-0.1414915735311527,-11.55,28.8,20.25,-341.79687,-74.21875,919.43359,0.0390367321818059,0.1661392877607418,0.0650168307623675,82.8,3.9,77.7,-958.98437,1.95312,255.37109,-0.1382939558085739,-0.0010658725741929,0.0723445956268657,56.1,17.85,1.5
-854.00391,172.36328,-450.19531,-0.1276355791324949,-0.0298437339457014,-0.1536156777130565,-11.4,28.65,19.65,-349.12109,-59.57031,923.33984,0.0370383301882724,0.1560137601052967,0.0407687969314851,82.8,3.9,77.7,-979.00391,-22.46094,263.18359,-0.1775971997671594,0.0162542513238231,-0.0079939570399844,57.15,18.6,2.25
-880.37109,168.94531,-444.82422,-0.049162259837251,-0.0624854052152749,-0.0852680606061829,-12.9,27.45,19.65,-334.47266,-70.80078,939.45312,0.0550244717288496,0.1073843492886795,0.1007227765996675,82.65,4.05,76.5,-955.56641,20.50781,269.53125,-0.2046431709219139,0.0059953805135257,0.0551578148837019,56.7,20.1,3.3
-884.27734,155.27344,-440.42969,-0.1089830708835063,-0.0730107878023519,-0.1394931715376192,-12.9,27.45,19.65,-348.14453,-49.80469,940.42969,0.0070612530877186,0.1089830708835063,0.0542251109314362,81.75,5.4,77.4,-978.02734,2.92969,279.29687,-0.2078407886444927,0.0466310088230837,0.06634921511334,56.7,20.1,3.3
-864.25781,165.03906,-428.22266,-0.095393588261628,-0.0651499993842947,-0.1689372250846139,-11.85,27.45,19.65,-366.69922,-45.89844,940.91797,-0.014522186574144,0.0706125308771865,0.1099157748357721,82.65,5.25,77.25,-960.44922,1.95312,297.85156,-0.203577298347721,0.0207840788644492,0.0839356762552105,56.7,20.1,3.3
-850.09766,170.89844,-436.03516,-0.0298437339457014,-0.0952604196397009,-0.1013889687751538,-12.15,27.9,19.35,-375.0,-61.52344,972.65625,0.0571562168772355,0.0230489926347623,0.0758085505932989,82.65,5.25,77.25,-959.96094,-6.34766,281.25,-0.2115712553877054,0.0472970264656447,0.0498284520127373,57.15,19.8,1.8
-837.89062,171.38672,-438.47656,-0.0430337107017981,-0.0317089673173077,-0.1725345232058994,-10.95,27.75,19.5,-371.58203,-54.6875,961.91406,0.0278453319521679,0.1121806886060851,0.0839356762552105,82.35,4.95,77.1,-971.67969,15.625,272.94922,-0.2320888224753751,0.1099157748357721,0.0819372742616769,57.15,19.8,1.8
-843.75,183.10547,-449.70703,-0.0939280352887284,-0.055823832526263,-0.1408253813556664,-10.95,27.75,19.5,-373.04687,-45.41016,959.47266,0.0070612530877186,0.0325085026476463,0.0911300979648563,83.1,3.45,77.4,-971.67969,18.55469,285.15625,-0.2087733180638333,0.0371714988101996,0.0289112045263608,56.55,18.75,2.4
-844.23828,174.31641,-460.9375,-0.0446324322966249,-0.0486294108166172,-0.0768744231674918,-13.05,27.75,19.8,-374.51172,-34.17969,972.65625,0.0302434143444081,0.0544916227082157,0.049162259837251,83.1,3.45,77.4,-972.65625,5.37109,271.97266,-0.1939846197129097,0.125503833984109,0.0101255276554451,57.3,17.7,1.65
-856.93359,168.94531,-452.63672,-0.0706125308771865,0.005595700114819,-0.1017886491738605,-11.25,28.05,20.25,-377.92969,-27.34375,962.89062,0.0472970264656447,0.0146553551960711,0.0643506385868813,82.35,4.65,77.1,-972.65625,-4.88281,261.71875,-0.2268928027592628,0.1220398790176759,0.0740764858436197,57.45,19.05,3.9
-864.25781,169.92187,-453.61328,-0.0598208110462552,-0.0345069046411798,-0.0936615235119489,-11.4,28.05,20.25,-369.62891,-26.36719,951.66016,0.0307764378979672,-0.0259800985805615,0.0438330714992115,81.0,4.65,78.15,-964.35547,-8.30078,258.30078,-0.2366186500160012,0.0766079113907123,0.0351730968166661,57.15,19.35,2.55
-870.60547,168.45703,-471.67969,0.0070612530877186,-0.0586217698501351,-0.051827028539196,-11.4,27.45,19.35,-373.04687,3.41797,968.26172,0.1477534658214579,-0.0298437339457014,0.0576890658978693,83.7,5.25,76.95,-961.91406,-8.78906,262.69531,-0.202511425773528,0.0776737839649052,0.0835359958565038,58.2,19.05,1.5
-877.44141,166.50391,-480.95703,-0.027312482931534,-0.0279785005740951,-0.1161776671260773,-11.55,29.25,19.8,-389.16016,-6.83594,924.31641,0.0023980823922402,0.0666155523571943,0.0847350370526239,83.7,5.25,76.95,-958.98437,-4.88281,275.39062,-0.1802617939361791,0.1163108357480045,0.1115144964305989,57.6,20.7,2.4
-894.04297,184.08203,-481.44531,-0.03064326927604,-0.029044373148288,-0.0935283548900217,-11.55,29.25,19.8,-381.34766,-6.34766,933.10547,0.0427671989250186,-0.0266462907560478,0.0838025076332833,82.2,5.25,77.25,-970.21484,-16.11328,264.64844,-0.1092495826602858,0.0762082309920056,0.1793292645168386,57.6,20.7,2.4
-899.41406,159.66797,-481.44531,0.05475795995207,-0.0919296332951949,-0.1249709849634751,-12.6,27.75,20.25,-383.78906,-10.74219,906.25,-0.0297105653237742,0.0417013263508257,0.1404257009569597,82.35,3.45,77.4,-983.39844,-19.53125,266.60156,-0.1057856276938527,0.1265697065583019,0.1071178375118999,56.4,19.35,2.85
-881.83594,177.24609,-474.12109,0.0037304667432126,-0.0572893854991626,-0.1105819670112583,-13.05,28.05,18.45,-398.4375,-30.27344,917.48047,-0.005595700114819,0.0967257980796753,0.1099157748357721,82.35,4.2,77.1,-999.51172,-3.90625,285.64453,-0.1364287224369675,0.0873996312216436,0.1219065358628235,56.4,19.35,2.85
-854.49219,190.91797,-471.67969,0.0333078634450597,-0.0791393369378048,-0.1457548892949992,-11.1,28.2,20.4,-409.17969,-31.25,954.58984,0.034640073263107,0.1253706653621819,0.1111148160318922,82.05,5.4,77.4,-1025.87891,-21.48438,286.13281,-0.0995237354035474,0.0888651841945432,0.0466310088230837,56.55,19.95,1.35
-844.23828,179.19922,-469.23828,0.0403691165327784,-0.1000565844241813,-0.1284349399299083,-12.0,27.0,18.75,-420.41016,-25.87891,965.33203,0.0027979373238721,0.0748760211739583,0.1136462415789847,83.25,5.55,76.5,-1036.13281,2.92969,278.80859,-0.1269693869570086,0.0980581824306478,0.0876661429984231,57.45,19.05,2.25
-825.68359,176.75781,-453.125,0.0592879620256213,-0.0620857248165682,-0.1316323831195619,-12.0,27.0,18.75,-436.03516,0.48828,945.3125,0.0070612530877186,0.0349065850398865,0.1544150385104699,82.2,4.05,76.5,-1030.76172,17.08984,270.99609,-0.0269126279999021,0.0211837592631559,0.0720780838500862,56.25,20.7,4.2
-806.15234,180.66406,-456.54297,0.0114579120064175,-0.0037304667432126,-0.1243047927879889,-13.05,28.5,19.5,-432.12891,2.92969,945.80078,0.0113245688515652,0.006128723668378,0.1063184767144865,82.2,4.05,76.5,-1041.99219,18.06641,280.76172,-0.0299770771005538,-0.0014655529728996,0.1244379614099161,55.8,21.0,2.4
-807.61719,179.6875,-467.28516,0.0560903443030425,0.0434333911005048,-0.1372282577673061,-10.5,27.75,20.85,-446.77734,9.76562,952.14844,0.0035972981212855,-0.041834669505678,0.1024548413493467,82.2,4.5,78.0,-1033.69141,35.64453,276.36719,-0.0214502710399355,-0.0193185258915496,0.0687472975055802,57.6,21.0,2.1
-807.12891,182.61719,-471.19141,0.0097258472567384,0.0548913031069224,-0.1462879128485583,-10.65,27.9,19.95,-440.42969,-8.30078,934.57031,0.0189188454928429,-0.0406354537766327,0.1175098769441246,82.8,4.65,78.15,-1017.08984,18.55469,281.73828,0.0075941021083525,-0.0267794593779749,0.0683476171068735,55.2,21.0,1.65
-809.08203,191.89453,-482.42187,-0.0627519169920545,0.1068515002680456,-0.1386936362072806,-11.25,28.05,21.3,-436.03516,-20.50781,938.47656,0.0526263893366094,-0.0519601971611231,0.0827366350590903,82.65,4.8,78.0,-1003.41797,26.36719,275.39062,-0.0158545709251164,-0.0628850856139816,0.0628850856139816,55.2,21.0,1.65
-825.68359,188.47656,-479.98047,0.0058622118915985,0.1212403436873373,-0.0965926294577481,-11.25,28.05,21.3,-415.52734,-19.53125,963.86719,0.069680001457846,-0.05475795995207,0.1016554805519333,82.65,4.8,78.0,-1000.48828,16.11328,275.87891,-0.0141225061754373,-0.0869999508229369,0.0125237845806105,56.55,19.95,3.45
-849.12109,187.98828,-497.55859,-0.0684807857288007,0.1140459219776914,-0.0610198522423753,-12.0,28.5,19.5,-400.39062,-30.27344,942.87109,0.0620857248165682,-0.015055210127703,0.0862005900255235,82.2,6.3,78.0,-971.67969,32.71484,276.85547,-0.0043966589186989,-0.0500949637895168,0.0559571756811154,56.55,19.95,3.45
-855.46875,188.47656,-498.04687,-0.0628850856139816,0.1564134405040034,-0.1211071750654101,-11.25,27.3,19.5,-393.06641,-33.20313,920.89844,0.0624854052152749,-0.0519601971611231,0.0885988469506889,81.9,5.25,77.25,-976.5625,16.60156,288.08594,0.0550244717288496,-0.1133797298022052,0.1385604675853534,56.1,19.35,2.55
-865.23437,184.57031,-490.72266,-0.0410353087082646,0.0692803210591393,-0.0450321126953316,-11.4,27.9,21.0,-395.99609,-32.71484,925.29297,0.0339738810876208,-0.0482297304179105,0.0700796818565527,81.9,5.25,77.25,-977.05078,22.46094,265.625,0.0520933657830503,-0.1051194355183664,0.1287014517066878,57.0,20.25,1.35
-857.91016,184.57031,-500.97656,-0.0472970264656447,0.0330413516682802,-0.0361056262360067,-12.3,27.3,20.25,-372.55859,-13.67187,926.26953,0.0726111074036452,-0.1137794102009119,0.0390367321818059,81.75,5.4,77.25,-955.07812,36.62109,261.71875,0.063018428768834,-0.1115144964305989,0.1107151356331855,57.0,20.25,1.35
-840.33203,192.38281,-476.5625,-0.1107151356331855,0.029044373148288,-0.0694134896810664,-12.3,27.3,20.25,-348.14453,7.8125,924.31641,0.0414349891069713,-0.0519601971611231,0.0538254305327295,82.65,5.4,78.9,-944.33594,20.99609,268.06641,0.057422728654015,-0.1763981585710393,0.1127137121596442,57.6,19.95,2.1
-834.96094,209.96094,-473.14453,-0.0919296332951949,-0.0249142260063686,-0.0259800985805615,-12.45,26.7,19.65,-348.63281,18.55469,916.99219,0.0503614755662963,-0.0739433172216925,0.0532925815120956,82.65,5.25,76.5,-928.71094,26.85547,262.69531,0.0544916227082157,-0.0209172474863764,0.1112481591867445,56.25,20.7,3.45
-820.80078,214.35547,-465.33203,-0.078606487917171,-0.1045865864977326,-0.0029311059457992,-11.55,27.3,19.8,-350.58594,14.16016,933.10547,0.0935283548900217,-0.0843353566539172,0.0991240550048407,81.75,6.15,76.65,-939.94141,20.01953,273.4375,0.0119907610270514,-0.0863337586474507,0.0900643999235885,58.2,20.85,2.25
-833.00781,210.9375,-449.70703,-0.1171101965454179,-0.0146553551960711,-0.1072511806667523,-11.4,26.7,18.9,-354.00391,8.30078,922.85156,0.0880658233971298,-0.087532974376496,0.067015232755901,81.75,6.15,76.65,-931.64062,18.55469,257.8125,0.0782068075184643,-0.0722112524720134,0.0439662401211387,56.4,21.9,1.8
-832.03125,201.66016,-452.63672,-0.1306998537002213,-0.0426340303030914,0.0027979373238721,-10.35,26.7,20.4,-352.05078,0.97656,914.55078,0.04849624219469,-0.1116478395854512,0.0258469299586344,80.85,7.05,77.55,-933.10547,-6.34766,249.51172,0.0358392889921523,-0.070346019100407,0.080871401687484,56.4,21.9,1.8
-837.40234,213.37891,-457.03125,-0.1464210814704855,-0.0711455544307456,-0.0287778613715085,-10.35,26.7,20.4,-356.93359,-25.39063,903.32031,0.086467101802303,-0.1080505414641657,0.0214502710399355,81.9,4.5,78.0,-930.66406,-15.625,256.34766,0.1063184767144865,-0.0944608843093623,0.080871401687484,56.7,19.05,3.9
-840.33203,207.03125,-453.125,-0.1953170040638822,-0.0716784034513795,-0.098724374606134,-10.65,27.15,18.9,-359.375,-6.34766,922.85156,0.1004564393558132,-0.0575558972759422,0.0387702204050264,82.8,6.6,79.2,-918.94531,4.39453,249.02344,0.0511608363637097,-0.0666155523571943,0.0847350370526239,57.3,20.7,2.1
-846.67969,218.26172,-457.51953,-0.162275652395602,-0.0564900247017492,-0.0626187483701273,-11.85,27.45,19.95,-344.23828,-19.53125,933.10547,0.0626187483701273,-0.027312482931534,-0.0131899767560967,82.8,5.4,77.4,-943.84766,-9.27734,266.11328,0.0728774446474996,-0.0687472975055802,0.0626187483701273,56.55,21.0,3.15
-841.30859,233.39844,-448.24219,-0.2287580361308692,-0.0675482563094601,-0.1185757495183175,-12.0,26.55,19.2,-350.58594,2.92969,920.89844,0.104320074720953,-0.0965926294577481,-0.0081271256619115,81.45,5.55,78.3,-953.61328,-32.22656,250.48828,0.064750318985588,-0.0369049870334201,0.0158545709251164,57.0,20.25,3.15
-856.44531,226.5625,-447.26562,-0.2899112315280969,-0.0531592383572432,-0.1389601479840601,-10.95,26.55,19.2,-343.26172,10.74219,922.85156,0.0460979852695246,-0.0819372742616769,-0.0106585512090041,81.0,6.15,77.7,-951.17187,-34.66797,261.23047,0.0732771250462063,-0.0233155044115418,0.0423675185263119,56.1,20.55,3.3
-872.07031,239.25781,-453.61328,-0.2859142530081047,-0.0436999028772844,-0.1280352595312016,-10.95,26.55,19.2,-364.74609,9.27734,932.12891,0.0262466103573411,-0.0700796818565527,-0.0233155044115418,81.0,6.15,77.7,-955.56641,-57.61719,267.57812,0.071944915228159,-0.0398360929792193,-0.0271791397766816,56.7,21.9,2.55
-881.34766,227.53906,-450.19531,-0.2888453589539039,-0.0947273960861418,-0.1004564393558132,-12.6,26.55,21.9,-368.16406,9.76562,935.54687,-0.040235773377926,-0.0628850856139816,-0.0246477142295891,82.2,7.05,76.5,-952.14844,-30.76172,247.55859,0.1652067583414012,0.0397029243572922,-0.0317089673173077,56.7,21.9,2.55
-894.04297,249.02344,-464.35547,-0.3388069795885685,-0.0503614755662963,-0.1369617459905266,-12.45,27.45,21.0,-364.25781,-29.29688,941.89453,-0.0370383301882724,-0.0552909835056291,-0.0027979373238721,82.05,4.65,77.1,-971.67969,-37.10938,265.625,0.1393598283827668,0.0067947413109391,-0.0118575924051242,56.4,20.1,3.6
-901.85547,243.65234,-475.09766,-0.3344104952027947,-0.0794058487145844,-0.1452220402743654,-10.65,27.45,20.7,-375.97656,-44.92188,949.21875,-0.0460979852695246,-0.0187856768709157,-0.0393032439585855,81.15,5.55,76.95,-967.77344,-23.4375,227.53906,0.1494855305711371,-0.0283781809728018,-0.0175864611418704,56.4,20.1,3.6
-912.59766,238.76953,-466.79687,-0.3035007141499751,-0.0995237354035474,-0.1241714496331365,-10.65,27.45,20.7,-390.625,-114.74609,979.98047,0.0019984019935335,-0.0527595579585365,-0.0992572236267679,80.55,6.6,78.9,-992.1875,-35.64453,257.32422,0.1802617939361791,-0.0350397536618137,0.0487625794385443,57.3,21.0,3.75
-909.17969,233.88672,-457.03125,-0.353595677939492,-0.0311761182966739,-0.1875895588006773,-10.65,27.45,20.7,-379.88281,-40.03906,953.61328,0.0495619402359577,0.0214502710399355,-0.1155114749505911,82.05,6.6,77.4,-991.69922,-34.17969,258.30078,0.1348300008421407,-0.0286446927495813,0.0107917198309313,55.65,20.55,2.85
-907.22656,223.14453,-454.58984,-0.2913767845009965,-0.098724374606134,-0.1818606900639311,-11.55,27.3,20.25,-378.41797,-25.39063,950.68359,0.0969923098564548,-0.0186523337160634,-0.1638743739904287,81.9,6.3,78.6,-997.55859,-31.25,255.85937,0.1673385034897871,-0.0776737839649052,-0.014522186574144,57.3,19.5,2.1
-923.82812,224.60937,-455.56641,-0.2600673230494703,-0.0940612039106556,-0.1256370026060362,-10.95,27.0,19.8,-387.20703,-41.50391,958.98437,0.0824701232823108,-0.0070612530877186,-0.1364287224369675,81.9,6.3,78.6,-1010.25391,-49.31641,255.37109,0.1853246450303643,-0.0626187483701273,0.0253139064050753,56.7,20.1,2.55
-911.13281,213.37891,-461.91406,-0.2204977418470304,-0.0592879620256213,-0.1758653095504054,-11.25,28.5,19.2,-390.625,-26.85547,976.07422,0.0759418937481512,-0.040235773377926,-0.1582786738756097,81.15,6.0,78.6,-1021.97266,-14.16016,251.95312,0.2432802227050131,-0.1183094122744632,-0.0130566336012443,56.7,20.85,3.3
-906.25,211.42578,-450.19531,-0.2840490196364983,-0.0303767574992605,-0.1637412053685016,-11.25,28.5,19.2,-416.01562,-16.11328,974.60937,-0.0001331686219271,-0.0698131700797731,-0.1742664134226534,81.75,6.15,78.15,-1011.71875,-21.48438,253.41797,0.2190321888741307,-0.0564900247017492,0.0095926786348112,57.0,19.95,4.5
-906.25,195.80078,-455.56641,-0.1841256038342442,-0.0466310088230837,-0.2057090434961068,-11.25,28.5,19.2,-403.80859,-32.71484,963.86719,-0.0127901218244648,-0.0860674214035963,-0.1510842521659639,82.2,4.8,76.95,-1013.18359,-2.44141,267.57812,0.2737901488262009,-0.0664823837352672,-0.0051960197161123,57.0,19.95,4.5
-888.67187,174.80469,-446.77734,-0.1866570293813367,0.0123904414257581,-0.2283583557321624,-10.5,28.05,20.55,-408.20312,-48.82813,960.9375,-0.0295773967018471,-0.0740764858436197,-0.1392266597608396,82.2,4.8,76.95,-1010.74219,20.99609,267.57812,0.2871132942042247,-0.1017886491738605,-0.0478300500192038,56.7,20.55,4.35
-891.11328,160.15625,-432.12891,-0.1374945950111605,0.0714118916745999,-0.2220964634418572,-11.85,28.2,21.0,-409.66797,-66.89453,965.33203,-0.031309286918601,-0.0492956029921034,-0.1356293616395541,81.45,4.5,76.95,-998.53516,21.97266,251.46484,0.2394165873398733,-0.0431668793237253,-0.0271791397766816,56.7,20.55,4.35
-881.34766,148.92578,-433.10547,-0.0488959225933967,-0.0075941021083525,-0.1633415249697949,-12.0,29.25,20.55,-394.04297,-65.42969,962.89062,-0.0534257501340228,-0.0989908863829135,-0.182393539084565,82.95,4.8,76.5,-988.28125,18.06641,255.37109,0.2422143501308202,-0.1473537854227512,-0.0293108849250675,56.7,20.55,4.35
-875.0,126.46484,-425.78125,-0.0674150876875329,0.077540615342978,-0.1825268822394173,-11.4,27.9,19.95,-375.48828,-18.55469,948.24219,-0.023448673033469,-0.1267028751802291,-0.2129034652057527,82.95,4.8,76.5,-974.12109,41.99219,272.46094,0.2094395102393195,-0.1205743260447762,0.0034639549664331,55.65,20.55,4.35
-914.0625,93.75,-438.47656,-0.0299770771005538,0.1309663654770009,-0.1845252842329509,-11.4,27.9,19.95,-369.62891,-9.27734,916.99219,-0.114312433754471,-0.2083736376651266,-0.1741332448007262,80.85,4.5,77.25,-962.89062,32.71484,263.18359,0.2150352103541385,-0.082603291904238,0.0129234649793172,58.35,19.95,2.7
-934.08203,60.54688,-409.17969,0.063018428768834,0.0671485759107534,-0.1926524098948624,-12.9,27.9,19.65,-341.79687,-2.92969,922.36328,-0.1680045211323481,-0.189588135327136,-0.1810613292665177,81.3,5.7,78.45,-952.63672,45.89844,254.88281,0.1809279861116653,-0.0850015488294034,-0.0331745202902074,56.7,19.35,3.3
-907.22656,67.87109,-416.99219,0.1157779867273706,0.0417013263508257,-0.1334976164911682,-11.25,27.75,20.25,-336.42578,-30.76172,913.57422,-0.0779402957416847,-0.1330979360924615,-0.1871898784019706,81.0,4.95,77.7,-956.05469,47.85156,238.28125,0.1696034172601001,-0.0532925815120956,-0.0618192130397887,57.15,20.1,3.6
-923.82812,69.82422,-416.99219,0.1123138572280122,0.0259800985805615,-0.191853049097449,-10.95,27.0,20.55,-333.98437,-62.5,940.91797,-0.0738101485997654,-0.1564134405040034,-0.1596110582265822,81.0,4.95,77.7,-964.35547,54.19922,259.76562,0.1552143993078833,-0.0572893854991626,-0.058088746296576,56.55,19.95,3.75
-897.94922,104.98047,-432.12891,0.2149020417322114,-0.0410353087082646,-0.0664823837352672,-9.9,29.55,21.3,-341.79687,-76.66016,961.91406,-0.0814042507081179,-0.0619525561946411,-0.1557472483285172,81.3,6.6,78.45,-932.61719,70.3125,283.69141,0.1008561197545199,-0.0198513749121835,-0.0205175670876697,57.0,19.95,3.45
-915.52734,131.83594,-441.40625,0.1742664134226534,-0.0282450123508746,-0.0590214502488418,-9.9,29.55,21.3,-344.72656,-117.1875,984.375,-0.0074609334864253,-0.0997902471803269,-0.1303001733015146,81.15,4.5,77.25,-935.05859,48.82813,300.29297,0.0944608843093623,-0.036238969390859,0.0195850376683291,57.0,19.95,3.45
-920.89844,144.53125,-438.47656,0.1445558480988791,0.0002665117767795,-0.055823832526263,-11.25,28.05,20.25,-341.30859,-168.45703,971.67969,0.0267794593779749,-0.0427671989250186,-0.190254152969697,81.3,3.45,78.45,-956.05469,52.73438,280.76172,0.145621720673072,0.0359724576140795,-0.0037304667432126,55.65,19.05,3.6
-875.0,148.4375,-432.61719,0.1700030976588069,-0.071944915228159,-0.0675482563094601,-11.55,26.55,20.55,-395.01953,-62.01172,966.79687,0.1330979360924615,-0.073676805444913,-0.2033109611038666,81.45,4.05,76.95,-953.61328,40.03906,279.29687,0.1486859952407985,0.0034639549664331,0.0310429496747467,55.65,19.05,3.6
-822.26562,176.26953,-442.38281,0.098724374606134,-0.0644839817417337,-0.0113245688515652,-11.1,27.9,20.7,-351.5625,35.64453,971.67969,-0.0170536121212365,-0.1374945950111605,-0.1497518678149914,81.15,5.55,78.3,-962.40234,58.59375,293.45703,0.1630750131930153,-0.0123904414257581,-0.0274456515534612,57.15,19.8,3.3
-816.40625,187.5,-447.26562,0.0031976177225788,0.0782068075184643,-0.0006661921754862,-10.2,26.55,19.8,-341.79687,83.49609,968.75,0.0960597804371143,-0.0967257980796753,-0.1677381838884938,81.0,4.2,77.4,-979.98047,57.61719,286.62109,0.1549478875311037,0.0059953805135257,0.0215834396618626,56.25,20.7,3.75
-855.95703,211.91406,-436.03516,-0.0262466103573411,0.0900643999235885,0.0411684773301918,-10.2,26.55,19.8,-302.24609,114.25781,946.28906,0.0570230482553083,-0.0245145456076619,-0.1251041535854023,81.0,4.2,77.4,-951.66016,39.55078,294.43359,0.1544150385104699,0.0281118437289474,-0.0611531953972277,57.3,19.2,3.45
-883.78906,188.47656,-438.47656,-0.0233155044115418,0.0923293136939016,0.0866002704242302,-11.1,27.45,18.3,-290.03906,63.47656,974.12109,0.0559571756811154,-0.0788728251610253,-0.1268362183350815,81.0,4.2,77.4,-952.14844,56.64063,283.20312,0.164540566165915,-0.0219831200605693,-0.0712787230526728,54.45,19.5,2.7
-912.10937,159.17969,-454.58984,-0.1409587245105188,0.0927289940926083,-0.0127901218244648,-10.65,27.9,20.4,-281.25,18.55469,982.91016,-0.0105252080541518,-0.1565467836588557,-0.1508177403891844,80.85,3.3,78.0,-951.66016,63.96484,295.41016,0.1597442268485094,0.0315757986953806,-0.1075176924435318,57.3,19.95,3.15
-920.41016,153.80859,-452.63672,-0.1318988948963414,0.002264913770313,0.0065284040670847,-11.55,27.75,19.8,-283.20312,-8.78906,1004.88281,-0.1878560705774568,-0.2498086267720979,-0.0555574952824086,81.3,4.2,77.4,-950.68359,72.26563,307.61719,0.1640077171452811,0.0029311059457992,-0.0682144484849463,56.1,18.6,2.85
-913.57422,154.29687,-438.47656,-0.1024548413493467,-0.0202512298438154,-0.0536922619108023,-10.5,28.05,18.75,-327.14844,-103.02734,950.19531,-0.1429571265040523,-0.261000027001736,-0.0722112524720134,82.2,6.0,78.3,-950.19531,60.54688,325.19531,0.132165406673121,0.0900643999235885,-0.0659495347146333,56.1,18.6,2.85
-894.04297,130.85937,-447.26562,-0.1769310075916731,0.0161209081689708,-0.0810045703094112,-10.5,28.05,18.75,-349.12109,-125.0,927.73437,-0.1329647674705344,-0.2852480608326184,-0.0462311538914518,82.2,6.0,78.3,-951.17187,60.05859,317.87109,0.1814610096652244,0.0562235129249697,-0.0985910314512816,57.15,19.05,2.85
-843.75,128.41797,-424.31641,-0.1125803690047918,-0.0751423584178126,-0.1342971518215068,-11.25,27.0,20.85,-364.74609,-145.99609,918.94531,-0.0863337586474507,-0.1632081818149425,-0.0740764858436197,81.3,4.95,78.9,-960.9375,31.25,333.49609,0.191853049097449,0.0098591904115907,-0.1052526041402936,57.15,19.05,2.85
-797.36328,115.23438,-426.75781,-0.1281684281531288,-0.0511608363637097,-0.1653399269633284,-11.4,28.65,19.95,-382.32422,-150.87891,921.38672,0.0091929982361045,-0.1260366830047429,-0.0920628019171221,83.25,3.3,78.6,-990.23437,22.94922,316.40625,0.2087733180638333,0.0159877395470436,-0.0983246942074273,57.9,18.6,3.9
-772.46094,115.23438,-419.43359,-0.1457548892949992,0.0385038831611721,-0.1970490688135614,-10.2,29.55,20.85,-380.37109,-127.92969,964.35547,0.0921959705390492,-0.1061853080925594,-0.141091893132446,83.25,3.3,78.6,-997.55859,34.17969,321.28906,0.1484196579969441,0.0210505906412288,-0.1422909343285661,57.15,18.3,3.9
-766.60156,112.30469,-440.42969,-0.1441561677001724,0.1304333419234418,-0.1907871765232561,-10.5,28.5,20.85,-345.21484,-84.47266,964.35547,0.1228392398150893,-0.0747426780191059,-0.1388269793621329,80.25,3.15,78.9,-1001.95312,20.50781,314.45312,0.1398928519363259,0.0127901218244648,-0.0848683802074762,56.7,20.1,2.55
-776.85547,129.39453,-429.19922,-0.1144456023763981,0.1658729505168874,-0.1163108357480045,-10.5,28.5,20.85,-350.58594,-60.05859,963.86719,0.10205516095064,-0.1040535629441735,-0.1277687477544221,80.4,3.75,79.35,-1008.30078,26.36719,315.42969,0.1664057995375213,0.0241148652089552,-0.0678147680862396,57.0,17.4,3.75
