IMU1_AccX,IMU1_AccY,IMU1_AccZ,IMU1_GyrX,IMU1_GyrY,IMU1_GyrZ,IMU1_MagX,IMU1_MagY,IMU1_MagZ,IMU2_AccX,IMU2_AccY,IMU2_AccZ,IMU2_GyrX,IMU2_GyrY,IMU2_GyrZ,IMU2_MagX,IMU2_MagY,IMU2_MagZ,IMU3_AccX,IMU3_AccY,IMU3_AccZ,IMU3_GyrX,IMU3_GyrY,IMU3_GyrZ,IMU3_MagX,IMU3_MagY,IMU3_MagZ
-967.28516,-9.76562,-180.66406,0.095393588261628,0.0634181091675407,0.0695466583029936,0.75,29.4,30.45,-450.68359,-1.46484,901.36719,0.1421577657066389,-0.0215834396618626,-0.0692803210591393,85.8,4.05,75.75,-1012.69531,65.91797,202.63672,0.1434899755246862,-0.0139893375535101,0.1268362183350815,57.0,18.75,-1.05
-931.64062,-4.39453,-164.55078,0.0708790426539661,0.0900643999235885,-0.0417013263508257,1.8,28.95,31.95,-458.00781,16.60156,925.29297,0.1369617459905266,-0.0097258472567384,-0.0716784034513795,83.25,3.75,75.45,-995.11719,62.5,208.49609,0.1289677889505422,-0.0247810573844414,0.1228392398150893,56.4,20.1,0.15
-914.0625,-6.83594,-166.01562,0.1028545217480534,0.096459460835821,-0.0431668793237253,2.1,29.25,31.35,-459.96094,4.39453,932.12891,0.1353630243956998,0.0,-0.0083936374386911,83.25,3.0,74.1,-994.62891,59.57031,200.68359,0.1365620655918199,0.0054625314928918,0.15561407970659,56.1,19.05,-0.75
-918.94531,-6.83594,-177.24609,0.0965926294577481,0.1325650870718277,0.0354394340605204,2.1,29.25,31.35,-454.10156,15.625,918.94531,0.145621720673072,-0.015055210127703,-0.0354394340605204,84.0,3.0,76.2,-1004.88281,33.69141,205.56641,0.1350965126189202,0.0018652333716063,0.0868667822010097,56.55,19.5,0.3
-908.69141,16.11328,-184.08203,0.0816707624848974,0.195183835441955,0.0366386497895657,1.35,28.8,30.3,-444.82422,25.39063,928.71094,0.1284349399299083,-0.0126569532025376,0.0151883787496302,84.0,3.0,76.2,-1004.39453,40.03906,214.84375,0.1854578136522914,-0.0051960197161123,0.0905972489442224,55.35,19.05,-0.75
-933.59375,17.08984,-194.33594,0.11990813386929,0.1907871765232561,0.0291777163031404,1.05,28.5,32.4,-442.87109,7.8125,944.33594,0.1235054319905755,-0.0767412545455646,-0.0090596550812521,84.15,3.45,74.85,-997.07031,31.25,186.52344,0.2178331476780106,-0.0342403928644003,0.1634746935917221,57.0,20.25,0.6
-980.95703,32.22656,-205.56641,0.0187856768709157,0.2360858009953673,0.0305099261211876,0.75,28.95,29.85,-432.12891,-9.76562,929.19922,0.1140459219776914,-0.071944915228159,-0.036238969390859,82.65,4.05,74.7,-990.23437,11.71875,200.68359,0.2382175461437532,0.0295773967018471,0.0975253334100139,56.55,18.0,-0.3
-995.60547,51.75781,-220.21484,0.0095926786348112,0.2362189696172945,0.1051194355183664,-0.45,28.65,29.1,-421.38672,-5.85937,904.29687,0.1131133925583509,-0.118842261295097,-0.0053291883380394,83.85,3.9,74.85,-963.37891,6.34766,186.03516,0.215301722130918,0.0129234649793172,0.0654165111610742,56.55,18.0,-0.3
-1000.97656,39.55078,-213.86719,0.0046631706954784,0.1630750131930153,0.1140459219776914,-0.45,28.65,29.1,-416.99219,6.83594,899.41406,0.1145789455312505,-0.1116478395854512,-0.0342403928644003,83.85,3.9,74.85,-961.91406,21.97266,166.50391,0.1926524098948624,0.0250473946282958,0.0464976656682313,56.25,19.2,-1.05
-1025.39063,55.66406,-219.23828,-0.0662158719584876,0.1493521874162847,0.0347734164179594,0.45,28.65,30.45,-409.17969,14.64844,895.99609,0.0698131700797731,-0.0436999028772844,-0.0109248884528585,85.05,4.5,74.85,-959.47266,39.55078,128.90625,0.1464210814704855,-0.0511608363637097,0.0510274932088574,56.25,19.2,-1.05
-1008.78906,49.80469,-219.72656,-0.075275701572665,0.0776737839649052,0.0658161915597809,2.1,28.5,30.0,-411.62109,6.34766,890.13672,0.098724374606134,-0.023981696587028,-0.0117244237831971,83.55,4.5,75.15,-950.68359,8.30078,173.82812,0.1927855785167896,-0.0211837592631559,0.1137794102009119,57.3,18.0,-1.05
-1000.0,49.31641,-209.47266,-0.0568897051004559,0.0311761182966739,0.0678147680862396,0.75,27.45,31.2,-421.38672,-17.08984,899.90234,0.0755420388165193,-0.0816707624848974,0.0085268060606182,83.55,4.2,76.05,-962.40234,12.20703,176.75781,0.1705359466794407,-0.0161209081689708,0.0928621627145355,55.65,19.05,-0.3
-995.11719,38.57422,-223.63281,-0.098724374606134,0.0490290912153239,0.0021317451483858,-0.45,28.2,30.45,-423.33984,-9.27734,901.36719,0.0778071271197576,-0.1011224569983742,-0.0249142260063686,83.55,4.2,76.05,-961.42578,12.20703,197.26562,0.1993139825838744,-0.0345069046411798,0.0592879620256213,55.65,19.05,-0.75
-975.58594,112.30469,-238.76953,-0.063684446411395,-0.0046631706954784,0.0265129476011954,-0.45,29.4,30.45,-422.85156,-55.17578,935.05859,0.077007591789419,0.0142556747973644,-0.0238483534321757,82.95,4.5,76.5,-1017.08984,-13.18359,243.16406,0.1368284028356742,0.0386370517830992,0.0983246942074273,55.5,20.7,0.0
-987.30469,119.14063,-252.92969,-0.071944915228159,-0.0095926786348112,0.002264913770313,-1.05,31.05,28.95,-433.59375,-40.03906,935.05859,0.0828698036810175,-0.0867336135790826,0.0006661921754862,83.1,3.15,76.65,-1006.34766,-28.80859,254.88281,0.1705359466794407,-0.0606201718436686,0.1292343007273217,57.15,18.6,-0.75
-976.07422,123.53516,-237.30469,-0.0602204914449619,-0.0165205885676775,0.0067947413109391,-2.25,31.2,27.75,-419.43359,-19.53125,937.98828,0.0822036115055313,-0.0297105653237742,-0.0199847180670358,82.65,4.8,76.2,-1003.90625,-13.67187,257.32422,0.2338208872250543,-0.0911300979648563,0.0951270764848485,57.15,18.6,-0.75
-936.03516,113.28125,-229.98047,-0.025713586803782,-0.1133797298022052,0.0835359958565038,-0.75,31.65,29.1,-412.59766,-20.99609,923.82812,0.0486294108166172,-0.0538254305327295,-0.0286446927495813,82.65,4.8,76.2,-982.42187,-3.41797,267.08984,0.2105053828135125,-0.0912634411197086,0.0997902471803269,56.4,20.55,-0.45
-918.94531,99.60938,-209.47266,-0.0615528757959344,-0.1095160944370653,0.0869999508229369,-0.75,31.65,29.1,-416.01562,-46.38672,910.15625,0.0851347174513306,-0.0724777642487929,-0.0227824808579827,82.95,4.05,75.75,-990.72266,-2.92969,247.55859,0.2510076679682181,-0.1181760691196108,0.0618192130397887,56.1,20.1,1.2
-901.36719,106.93359,-202.14844,-0.0456983048708179,-0.0399694361340717,0.0083936374386911,-1.65,30.6,29.55,-403.32031,-54.19922,946.28906,0.1137794102009119,-0.0832694840797242,-0.0820704428836041,82.35,4.2,76.35,-1001.95312,-5.37109,258.30078,0.2430137109282336,-0.1365620655918199,0.0996569040254746,55.8,19.95,0.6
-887.20703,112.79297,-208.49609,-0.0611531953972277,-0.0001331686219271,-0.0058622118915985,-1.35,32.55,27.45,-393.06641,-81.05469,934.57031,0.123238920213796,-0.0656830229378538,-0.0566231933236764,83.25,4.5,77.25,-974.60937,-22.94922,251.95312,0.2471440326030782,-0.0972588216332344,0.1249709849634751,55.8,21.45,-1.05
-910.15625,118.16406,-208.00781,-0.0097258472567384,0.0098591904115907,0.0798055291132911,-1.05,31.8,29.55,-398.92578,-74.21875,935.05859,0.2159679143064043,-0.0940612039106556,-0.1031210335248329,83.25,4.5,77.25,-968.26172,-12.20703,245.60547,0.3028345219744889,-0.0506278128101507,0.1537488463349836,56.7,19.8,0.45
-922.36328,135.25391,-231.93359,0.0075941021083525,0.0114579120064175,0.1051194355183664,-0.3,30.6,30.0,-403.32031,-49.80469,945.3125,0.1722680114291199,-0.0900643999235885,-0.1025880099712739,82.35,6.15,77.25,-986.32812,-29.29688,240.72266,0.2711255546571811,-0.0690138092823597,0.0671485759107534,57.3,20.7,0.0
-936.52344,135.25391,-230.95703,-0.0747426780191059,0.0816707624848974,0.0479632186411309,-0.3,30.6,30.0,-394.04297,-40.03906,932.12891,0.182393539084565,-0.0925956509377559,-0.1364287224369675,82.8,4.95,76.35,-987.30469,-19.53125,216.30859,0.2704593624816949,-0.0940612039106556,0.1342971518215068,57.3,20.7,0.0
-966.30859,132.8125,-224.60937,-0.0071944217096458,0.0267794593779749,0.0660827033365605,-0.6,32.1,28.5,-383.30078,-35.15625,923.82812,0.1566799522807829,-0.0848683802074762,-0.1509510835440367,82.8,4.95,75.3,-986.32812,-15.13672,228.02734,0.323485432217011,-0.0816707624848974,0.0815375938629702,57.3,20.7,0.0
-971.67969,137.20703,-228.02734,-0.0361056262360067,-0.0085268060606182,0.0467641774450108,-0.75,30.9,29.85,-372.55859,-28.80859,926.26953,0.17346705262524,-0.1243047927879889,-0.170136266280734,82.8,4.95,75.3,-969.72656,-13.18359,223.63281,0.3404058757163204,-0.1652067583414012,0.1201746456460695,57.15,19.8,-0.75
-970.70312,120.11719,-210.44922,-0.0945942274642146,-0.0154548905264097,-0.0762082309920056,-1.35,30.6,28.95,-352.53906,-56.15234,938.47656,0.1930520902935692,-0.1457548892949992,-0.1436233186795386,82.35,6.15,76.35,-955.07812,-1.46484,208.49609,0.3444026797033874,-0.0871332939777893,0.1049862668964393,57.15,19.8,-0.75
-980.46875,111.81641,-212.89062,-0.0586217698501351,-0.0598208110462552,-0.0071944217096458,-3.0,31.2,28.05,-351.5625,-49.31641,925.78125,0.1674716721117143,-0.1526829737607907,-0.1007227765996675,83.55,4.65,76.65,-942.38281,15.13672,225.09766,0.3225529027976704,-0.1015221373970809,0.1081837100860929,56.4,19.35,-0.15
-987.79297,112.79297,-219.72656,-0.0277121633302407,-0.0923293136939016,0.0162542513238231,-3.0,31.2,28.05,-340.33203,-44.92188,925.78125,0.1745329251994329,-0.1322985752950481,-0.1314992144976347,81.9,5.25,77.25,-938.96484,-11.23047,206.05469,0.2972388218596699,-0.0907304175661496,0.0704793622552594,56.1,20.1,1.2
-976.07422,107.91016,-213.37891,-0.0612863640191548,-0.0667488955120467,-0.051827028539196,-0.75,31.95,29.85,-350.09766,-53.71094,936.03516,0.1759984781723326,-0.114312433754471,-0.187989239199384,81.9,5.25,77.25,-939.94141,-25.87891,239.25781,0.2973721650145223,-0.006128723668378,0.1482863148420918,56.7,19.8,1.5
-1002.44141,115.23438,-213.37891,-0.0079939570399844,-0.058088746296576,-0.0739433172216925,-1.05,31.35,29.25,-363.28125,-44.43359,914.55078,0.1530826541594974,-0.0659495347146333,-0.2142358495567251,83.7,5.55,76.95,-936.03516,-9.27734,229.98047,0.3430704698853402,0.0047963393174056,0.1003230962009608,54.9,20.85,0.75
-1011.71875,121.09375,-217.77344,-0.0049295079393327,-0.1184425808963904,-0.0499617951675896,-0.45,29.7,29.1,-353.02734,-56.15234,906.25,0.1754656291516987,-0.091529778363563,-0.2498086267720979,83.1,4.2,76.35,-941.89453,-9.27734,226.5625,0.344669191480167,0.0235820161883213,0.0896645449919567,56.55,21.45,-0.6
-1021.97266,125.97656,-203.125,-0.0135896571548034,-0.1536156777130565,-0.0764747427687851,-3.0,30.9,29.4,-378.41797,-28.80859,938.47656,0.1801286253142519,-0.0619525561946411,-0.2190321888741307,83.1,3.15,76.35,-944.82422,3.41797,214.84375,0.3678515272697816,0.0334410320669869,0.1091164140383586,55.8,21.0,0.6
-1011.23047,103.51563,-201.66016,-0.0230489926347623,-0.1998468316045083,-0.0233155044115418,-3.0,30.9,29.4,-377.92969,-13.67187,957.03125,0.1855911568071438,-0.0810045703094112,-0.2174334672793039,83.1,3.9,76.05,-972.16797,33.20313,211.91406,0.3845052844593863,0.0439662401211387,0.0261132672024887,55.8,21.0,0.6
-997.07031,97.65625,-191.89453,0.0129234649793172,-0.2336875440702019,-0.0498284520127373,-3.0,30.9,29.4,-382.32422,-20.50781,962.40234,0.0872664625997164,-0.0676814249313873,-0.1914533686987423,82.35,5.4,76.05,-989.74609,44.43359,216.30859,0.3857045001884317,0.052493046181757,-0.0042633157638465,56.4,18.6,0.75
-978.02734,98.63281,-190.91797,-0.0109248884528585,-0.1785299037194251,-0.0531592383572432,-1.35,30.3,30.0,-381.83594,-16.60156,955.56641,0.1060521394706322,-0.0877993116203503,-0.2314226302998889,82.95,4.8,76.2,-988.28125,61.52344,219.72656,0.3316125578789226,0.0779402957416847,0.0283781809728018,57.0,19.2,1.65
-971.67969,105.95703,-197.75391,0.0358392889921523,-0.1565467836588557,-0.0760750623700784,-1.35,32.55,30.0,-396.48437,1.95312,951.66016,0.1112481591867445,-0.0816707624848974,-0.2534057503604583,82.95,4.8,76.2,-1009.27734,78.61328,202.14844,0.3281486029124895,0.1229724084370164,0.0283781809728018,57.15,20.1,0.75
-935.54687,95.70313,-188.96484,0.078606487917171,-0.1799954566923248,-0.0370383301882724,-2.7,32.55,30.3,-408.69141,-9.27734,962.40234,0.1404257009569597,-0.0961929490590414,-0.2042434905232072,83.55,3.15,75.3,-1018.06641,73.24219,215.82031,0.2707258742584744,0.1305666850782942,0.0065284040670847,57.0,21.0,0.6
-958.49609,93.75,-191.89453,0.0295773967018471,-0.1105819670112583,-0.1398928519363259,-2.7,32.55,30.3,-422.85156,5.85937,968.75,0.0554241521275563,-0.0536922619108023,-0.2198315496715442,82.2,6.0,76.2,-1032.71484,88.37891,202.63672,0.2964394610622565,0.0860674214035963,-0.0289112045263608,55.8,19.95,0.6
-981.93359,99.60938,-201.17187,0.0508943245869302,-0.0221164632154217,-0.1561469287272238,-2.55,32.4,29.1,-435.05859,-8.30078,983.39844,0.0803383781339249,-0.0479632186411309,-0.2414149893334068,82.35,4.95,78.45,-1048.33984,84.47266,198.73047,0.2446126070559856,0.0706125308771865,-0.0127901218244648,56.25,21.45,-0.6
-1016.11328,102.05078,-220.70312,0.0788728251610253,-0.0345069046411798,-0.0921959705390492,-1.2,30.45,29.1,-429.19922,-19.53125,997.07031,0.0492956029921034,-0.1023216727274195,-0.2346202480224677,82.65,4.5,77.25,-1034.66797,114.25781,201.66016,0.2620658995759289,-0.0139893375535101,0.0464976656682313,56.25,21.45,-0.6
-1030.76172,120.60547,-220.21484,0.0850015488294034,0.0118575924051242,-0.1306998537002213,-2.1,31.35,30.0,-431.15234,-22.46094,967.77344,-0.0182526533173567,-0.0694134896810664,-0.1702694349026612,82.35,4.65,77.7,-1032.71484,120.60547,188.47656,0.2039769787464277,0.0147886983509235,0.0566231933236764,55.8,20.25,0.6
-1036.13281,113.76953,-222.16797,0.0414349891069713,0.0265129476011954,-0.1368284028356742,-0.6,29.55,29.55,-423.33984,1.46484,957.03125,0.0326416712695735,-0.0283781809728018,-0.1933186020703487,81.45,4.05,76.5,-1032.22656,125.0,195.3125,0.1434899755246862,0.0202512298438154,0.0195850376683291,55.8,20.25,0.6
-1004.88281,103.51563,-210.9375,0.0318423104721601,-0.027312482931534,-0.0622190679714206,-0.6,29.55,29.55,-414.0625,2.92969,945.3125,0.0031976177225788,-0.0532925815120956,-0.1914533686987423,81.45,4.05,76.5,-1033.69141,106.93359,197.26562,0.1401591891801802,0.0190520141147701,0.0334410320669869,57.0,19.5,0.3
-1023.4375,91.79688,-217.77344,0.0595542992694757,0.0230489926347623,-0.0640843013430269,-0.15,30.15,29.85,-404.29687,18.06641,959.47266,0.0433002224785777,-0.0983246942074273,-0.165073589719474,82.2,4.05,77.25,-999.02344,101.5625,197.26562,0.1402925323350325,-0.0161209081689708,0.0436999028772844,57.15,18.3,-0.15
-1019.53125,86.42578,-223.63281,0.0382373713843925,0.0154548905264097,-0.1648070779426945,-0.75,32.7,29.1,-412.59766,4.88281,945.3125,0.0499617951675896,-0.0378376909856858,-0.1692037368613934,82.8,4.65,76.35,-995.11719,86.42578,204.58984,0.0947273960861418,-0.0259800985805615,0.0197182062902563,55.35,20.1,0.15
-998.53516,84.47266,-216.79687,0.080871401687484,-0.0155880591483369,-0.1208406632886305,-0.45,29.7,29.1,-389.64844,-14.64844,947.75391,0.0310429496747467,-0.045165455850184,-0.1021883295725672,81.3,3.9,75.3,-981.93359,73.24219,208.49609,0.1128468807815713,0.0010658725741929,0.0520933657830503,56.4,20.1,-0.75
-1014.16016,80.07813,-219.23828,0.0690138092823597,-0.0131899767560967,-0.1007227765996675,-0.45,29.7,29.4,-373.53516,2.44141,960.9375,0.0247810573844414,-0.0520933657830503,-0.1196416220925105,81.3,3.9,75.3,-979.00391,56.15234,195.80078,0.128834620328615,-0.0011990411961201,0.0197182062902563,56.4,20.1,-0.75
-1001.95312,69.82422,-212.40234,0.0526263893366094,0.011191400229638,-0.0750091897958855,-0.45,29.7,29.4,-392.08984,-12.20703,941.40625,-0.0029311059457992,-0.0519601971611231,-0.0980581824306478,81.45,4.5,76.95,-976.5625,60.54688,226.5625,0.1457548892949992,0.0051960197161123,0.0433002224785777,55.35,18.6,-1.2
-975.09766,71.77734,-207.51953,0.0377045223637587,0.0231821612566894,-0.1256370026060362,-0.45,29.7,29.85,-376.46484,0.97656,922.85156,-0.0089264864593249,-0.06634921511334,-0.060753514998521,82.2,3.3,76.95,-957.51953,35.64453,216.79687,0.1616094602201157,-0.0470306892217904,-0.0042633157638465,55.5,19.2,-0.3
-972.65625,65.42969,-203.125,0.0263797789792682,-0.0122572728038309,-0.0179861415405771,0.45,28.95,29.4,-374.51172,-5.37109,929.19922,-0.0193185258915496,-0.0443659205198454,-0.0499617951675896,82.2,3.3,76.95,-965.33203,39.0625,218.75,0.1811944978884449,0.0317089673173077,-0.0066615726890119,55.5,19.2,-0.3
-981.93359,74.70703,-203.125,0.0319754790940873,-0.0622190679714206,-0.0800720408900706,0.6,30.3,29.55,-357.91016,-6.83594,923.82812,-0.0298437339457014,-0.0087933178373978,-0.0776737839649052,83.7,3.3,77.25,-948.73047,49.31641,221.67969,0.1588116974291688,-0.0181194846954295,0.004529827540626,56.4,19.35,1.2
-968.75,69.33594,-184.08203,-0.013456313999951,-0.0331745202902074,-0.0802052095119978,-1.5,29.4,29.4,-358.88672,12.69531,919.92187,-0.0668820641339739,0.014522186574144,-0.0651499993842947,81.3,3.9,77.4,-938.96484,73.24219,210.9375,0.1573461444562691,-0.0047963393174056,-0.0578224090527217,56.4,19.35,1.2
-973.63281,73.73047,-182.12891,-0.0018652333716063,-0.0450321126953316,-0.0217166082837898,-1.5,29.4,29.4,-347.16797,2.92969,910.64453,-0.077540615342978,-0.0403691165327784,-0.0892648645932499,82.95,3.75,76.95,-925.29297,62.01172,194.82422,0.0811377389313384,0.0005328490206338,-0.0802052095119978,56.4,21.15,0.45
-956.05469,69.33594,-182.12891,-0.0357059458372999,-0.0640843013430269,-0.0085268060606182,1.05,31.35,28.95,-352.53906,9.76562,915.03906,-0.070346019100407,-0.0567565364785288,-0.054091942309509,82.95,3.75,76.95,-938.96484,68.84766,212.89062,0.0195850376683291,0.0114579120064175,-0.0844685252758443,55.8,19.5,0.3
-937.5,66.89453,-180.66406,-0.0734104682010586,-0.0347734164179594,-0.049162259837251,-1.05,30.3,29.55,-333.00781,2.44141,929.6875,-0.0824701232823108,-0.0499617951675896,-0.0082602942838387,81.45,3.3,76.2,-952.63672,72.26563,214.84375,-0.0337075438437664,-0.0063950609122324,-0.0885988469506889,56.4,19.8,0.45
-926.26953,68.84766,-187.01172,-0.0550244717288496,-0.0475635382424242,-0.013456313999951,-2.25,30.9,29.85,-337.89062,-33.69141,927.73437,-0.1052526041402936,-0.059687642424328,-0.0595542992694757,84.0,3.75,76.5,-966.30859,72.75391,230.46875,0.0155880591483369,-0.0389035635598788,-0.1191087730718766,56.4,17.85,1.2
-941.89453,61.52344,-189.94141,-0.0385038831611721,-0.0219831200605693,-0.0205175670876697,0.0,32.55,30.3,-345.70312,-44.92188,942.38281,-0.1055191159170731,-0.0623522365933478,0.0014655529728996,81.75,3.9,77.7,-948.24219,59.08203,218.75,-0.0207840788644492,-0.0058622118915985,-0.1004564393558132,55.8,18.45,-0.6
-951.66016,50.78125,-192.87109,-0.123238920213796,0.0085268060606182,-0.0576890658978693,0.0,32.55,30.3,-356.93359,-49.80469,928.71094,-0.1617428033749681,-0.0999234158022541,-0.0261132672024887,81.75,3.9,77.7,-943.35937,43.94531,219.72656,-0.0231821612566894,0.0162542513238231,-0.2001133433812878,56.55,19.5,0.0
-957.03125,41.99219,-192.38281,-0.105385947295146,0.0327748398915007,-0.037970859607613,-1.05,31.05,28.95,-354.49219,-78.125,927.24609,-0.141091893132446,-0.0708790426539661,-0.0097258472567384,82.35,4.2,77.4,-947.75391,33.20313,222.16797,-0.0735436368229858,0.025713586803782,-0.1970490688135614,56.55,19.5,0.0
-948.24219,38.57422,-209.47266,-0.0303767574992605,0.0241148652089552,-0.0187856768709157,0.0,30.6,30.0,-374.02344,-57.12891,908.20312,-0.0971256530113072,-0.0322419908708668,-0.0322419908708668,82.65,3.0,75.75,-965.33203,41.01563,194.82422,-0.0053291883380394,0.0542251109314362,-0.1833262430368307,56.1,19.35,0.15
-964.84375,78.61328,-216.30859,-0.1033873707686873,0.0415681577288985,-0.0945942274642146,0.0,29.55,29.55,-360.83984,-65.91797,924.80469,-0.1271025555789358,0.0137228257767306,-0.0562235129249697,83.1,3.9,75.6,-958.49609,39.0625,203.61328,-0.0566231933236764,0.0458314734927451,-0.1959831962393684,56.1,19.35,0.15
-974.60937,75.19531,-217.28516,-0.0702128504784798,0.0632847660126884,-0.0718115720733066,-0.3,30.6,31.35,-371.58203,-77.63672,935.54687,-0.0872664625997164,0.0371714988101996,-0.0447657754514773,83.1,3.9,75.6,-963.86719,25.39063,197.26562,-0.0091929982361045,0.0564900247017492,-0.150018379591771,57.6,19.95,-0.3
-990.23437,74.70703,-230.46875,-0.0391699008037331,-0.0281118437289474,-0.031309286918601,-0.3,30.6,31.35,-378.41797,-97.65625,959.96094,-0.0698131700797731,0.0162542513238231,-0.0536922619108023,81.0,2.7,77.4,-932.61719,-77.14844,275.39062,0.0370383301882724,0.0731439564242791,-0.1354961930176269,55.65,18.6,0.45
-992.1875,75.19531,-232.42187,-0.1005896079777403,0.0085268060606182,-0.1233720888357231,0.15,32.4,29.85,-381.34766,-117.67578,961.42578,-0.0659495347146333,0.0286446927495813,-0.0578224090527217,81.45,3.75,76.5,-990.23437,7.32422,203.61328,0.0431668793237253,0.0433002224785777,-0.1545482071323971,57.45,18.3,0.15
-972.65625,41.01563,-231.93359,-0.1498852109698438,0.0195850376683291,-0.0330413516682802,-1.35,30.6,30.3,-395.50781,-132.32422,957.51953,-0.1240382810112094,0.0289112045263608,-0.1268362183350815,82.35,3.9,78.45,-1007.32422,0.97656,195.80078,0.0213169278850831,0.0976585020319411,-0.1149786259299572,55.5,20.25,0.3
-997.55859,41.01563,-246.58203,-0.0913966097416358,-0.0325085026476463,0.0444992636746978,0.0,30.6,28.2,-409.66797,-126.46484,947.75391,-0.0595542992694757,0.0526263893366094,-0.1179097318757565,82.35,1.2,77.1,-1014.16016,11.71875,198.24219,0.0386370517830992,0.1012558001532266,-0.1061853080925594,57.6,16.65,0.3
-1011.23047,22.46094,-250.0,-0.064750318985588,0.0133231453780239,-0.0662158719584876,-0.6,30.6,30.0,-435.05859,-139.64844,934.08203,-0.0338407124656936,0.0718115720733066,-0.1172435397002702,82.35,3.45,77.7,-1020.99609,6.34766,184.57031,0.0041301471419193,0.1401591891801802,-0.1141790905996186,55.65,18.3,0.45
-998.04687,9.76562,-252.92969,-0.0528927265804637,0.0397029243572922,-0.0381042027624654,-0.6,30.6,30.0,-438.96484,-115.72266,925.29297,0.0209172474863764,0.0860674214035963,-0.0783399761403914,82.65,3.0,75.75,-1016.11328,37.10938,176.26953,0.0265129476011954,0.1393598283827668,-0.1077840296873862,55.65,18.3,0.45
-1021.97266,4.88281,-279.29687,0.0255804181818548,-0.0019984019935335,0.0186523337160634,-0.6,30.3,28.95,-446.77734,-95.21484,925.29297,0.0919296332951949,0.1494855305711371,-0.093128674491315,82.65,3.0,75.75,-1026.36719,44.43359,168.94531,0.0401026047559989,0.0694134896810664,-0.0712787230526728,55.35,17.1,-0.75
-996.09375,17.08984,-267.57812,0.0193185258915496,0.0700796818565527,-0.0643506385868813,-0.3,32.1,29.55,-446.28906,-68.84766,927.24609,0.0937948666668012,0.1461547442266311,-0.0932618431132422,82.35,2.4,77.4,-1014.64844,71.77734,179.19922,0.029044373148288,0.0526263893366094,-0.1035207139235396,57.9,18.3,-0.15
-1000.0,25.39063,-275.39062,0.036238969390859,0.0706125308771865,-0.0648836621404404,-0.6,30.6,30.6,-451.17187,-61.52344,922.36328,0.1253706653621819,0.1853246450303643,-0.1036538825454668,81.15,2.25,76.95,-1021.48437,81.05469,173.33984,-0.0281118437289474,0.0503614755662963,-0.1203078142679967,57.9,18.3,-0.15
-993.16406,17.57813,-252.92969,0.094860564708069,0.0452986244721112,0.0139893375535101,-0.6,30.6,30.6,-441.40625,-60.54688,919.43359,0.1163108357480045,0.1669388230910804,-0.0467641774450108,83.55,1.65,77.4,-1021.97266,83.49609,192.87109,-0.0750091897958855,0.0354394340605204,-0.0519601971611231,56.4,18.6,0.15
-981.93359,13.67187,-256.34766,0.0945942274642146,0.0149218669728507,-0.0163874199457503,-0.6,30.6,30.6,-419.43359,-50.78125,913.57422,0.1283017713079811,0.1801286253142519,-0.0421010067495324,83.55,2.7,77.1,-1027.34375,78.61328,180.17578,-0.125503833984109,-0.0526263893366094,-0.1041869060990259,56.4,18.6,0.45
-965.33203,21.97266,-258.78906,0.0699463387017003,0.087532974376496,-0.0783399761403914,-2.1,30.6,30.0,-436.03516,-51.75781,923.82812,0.1124472003828646,0.1418912539298594,-0.0226493122360556,82.65,3.0,77.25,-1024.41406,66.89453,185.54687,-0.184658452854878,-0.0050628510941851,-0.1271025555789358,57.45,18.3,-1.2
-953.61328,24.41406,-263.18359,0.0885988469506889,0.0619525561946411,-0.002264913770313,0.45,31.95,28.8,-439.45312,-43.45703,939.94141,0.0526263893366094,0.1159111553492978,-0.027312482931534,82.05,2.7,77.1,-1031.73828,63.96484,180.66406,-0.2017120649761146,0.0114579120064175,-0.1205743260447762,56.7,17.85,-0.45
-967.77344,28.80859,-265.625,0.1180429004976836,0.0562235129249697,-0.0018652333716063,0.0,30.6,30.3,-434.08203,-20.99609,959.47266,0.0350397536618137,0.0555574952824086,-0.0266462907560478,82.05,2.7,77.1,-1020.50781,52.73438,184.57031,-0.230356757725696,0.0074609334864253,-0.1281684281531288,56.7,17.85,-0.45
-968.75,44.43359,-259.76562,0.04849624219469,0.125503833984109,-0.0807380585326316,-1.8,30.9,29.4,-428.22266,-18.55469,956.05469,-0.0543582795533633,0.0113245688515652,0.0213169278850831,84.15,4.65,76.35,-1007.8125,56.15234,196.77734,-0.1987809590303153,-0.0831363154577971,-0.0409019655534123,56.55,18.75,-0.3
-960.44922,31.25,-263.67187,0.0860674214035963,0.1105819670112583,-0.0602204914449619,-1.8,30.9,29.4,-404.78516,-21.97266,928.22266,-0.0810045703094112,-0.0277121633302407,0.0748760211739583,83.7,2.55,76.2,-985.83984,54.19922,191.40625,-0.2268928027592628,-0.067015232755901,-0.049162259837251,56.55,18.75,-0.3
-956.54297,16.60156,-250.48828,0.0371714988101996,0.1338974714228001,-0.0871332939777893,-0.45,31.2,29.1,-392.57812,-43.45703,934.57031,-0.103787051167394,-0.0289112045263608,0.125503833984109,83.25,4.5,76.2,-963.37891,41.99219,197.75391,-0.2816509372442581,-0.0708790426539661,-0.0908637607210019,55.8,17.7,0.0
-973.63281,19.04297,-236.81641,0.0535589187559499,0.0635512777894679,-0.0556906639043358,-0.3,30.6,30.3,-337.40234,-80.07813,913.57422,-0.1261700261595952,0.0207840788644492,0.0999234158022541,83.25,4.5,76.2,-956.05469,42.96875,202.14844,-0.2931086747177505,-0.0751423584178126,-0.068614128883653,57.0,18.75,-0.6
-965.82031,-0.97656,-253.90625,0.0289112045263608,0.0676814249313873,-0.1518836129633773,-1.5,29.7,30.15,-412.59766,-60.54688,935.05859,-0.0862005900255235,0.0572893854991626,0.1032542021467601,83.85,3.9,77.7,-953.125,31.73828,189.94141,-0.2616662191772222,-0.0992572236267679,-0.0654165111610742,56.55,17.4,-0.3
-968.75,2.92969,-247.07031,0.004529827540626,0.0767412545455646,-0.1081837100860929,-0.75,28.65,28.35,-369.62891,-85.9375,899.41406,-0.1341638086666545,0.0007993607974134,0.1806614743348858,81.75,3.15,76.35,-921.38672,11.71875,190.42969,-0.295640100264843,-0.1095160944370653,-0.0872664625997164,56.4,17.85,-0.15
-961.91406,0.0,-245.60547,0.1019218177957876,0.0359724576140795,-0.1145789455312505,-0.75,28.65,28.35,-367.67578,-103.51563,894.04297,-0.0582220894514284,0.042900542079871,0.1362955538150403,81.75,3.15,76.35,-950.19531,20.99609,186.03516,-0.2407487971579206,-0.0586217698501351,-0.0434333911005048,57.9,17.55,0.15
-966.79687,-6.34766,-249.51172,0.0460979852695246,0.0330413516682802,-0.1789295841181318,0.0,30.3,28.95,-425.78125,-95.70313,951.66016,-0.050761155965003,0.0646171503636608,0.1336309596460206,82.35,3.45,76.05,-953.61328,20.99609,202.63672,-0.3356095363989148,-0.0620857248165682,-0.0450321126953316,57.0,16.95,-1.65
-979.98047,0.48828,-236.32812,0.0812710820861907,0.0175864611418704,-0.0872664625997164,0.3,30.3,28.95,-387.69531,-73.73047,959.96094,-0.0086599746825454,0.013456313999951,0.2109050632122192,83.1,2.4,76.65,-959.47266,17.57813,191.89453,-0.2315559734547413,0.0103920394322246,-0.0644839817417337,57.0,16.95,-1.65
-968.75,1.46484,-229.98047,0.0394364125805126,0.0318423104721601,-0.071944915228159,-1.05,30.3,29.25,-393.55469,-57.61719,938.96484,-0.0766079113907123,0.0794058487145844,0.1965160452600023,83.85,2.4,76.65,-987.30469,17.08984,196.77734,-0.2396829245837277,-0.0251807377831481,-0.0447657754514773,57.9,16.8,0.45
-987.79297,3.41797,-240.72266,0.0051960197161123,0.0450321126953316,-0.0586217698501351,0.3,30.3,28.5,-375.97656,-82.51953,916.99219,-0.0782068075184643,0.0471638578437175,0.1648070779426945,83.85,2.4,76.65,-995.11719,27.83203,211.42578,-0.2444792639011333,-0.0137228257767306,-0.0107917198309313,57.9,16.8,0.45
-998.04687,20.99609,-233.39844,0.025713586803782,0.0193185258915496,-0.0317089673173077,0.3,30.3,28.5,-405.27344,-107.42188,917.48047,-0.1029876903699806,0.082603291904238,0.1420244225517865,82.2,5.25,76.95,-999.02344,-7.32422,166.01562,-0.2099723592599534,0.0460979852695246,0.0241148652089552,56.55,18.0,1.35
-1006.83594,27.83203,-252.92969,0.0363721380127862,-0.0250473946282958,0.0899310567687362,-1.05,28.5,28.5,-430.17578,-144.04297,899.41406,0.0042633157638465,0.1318988948963414,0.1442895108550248,82.05,1.95,75.6,-1012.20703,-20.01953,183.10547,-0.2503414757927318,0.034640073263107,0.0399694361340717,55.8,18.45,1.05
-1022.94922,-9.27734,-261.71875,-0.043566559722432,0.0017320647496791,0.0555574952824086,-1.5,29.4,29.4,-446.28906,-157.22656,905.76172,0.0455651362488907,0.0538254305327295,0.1552143993078833,82.2,2.25,75.45,-1021.97266,-15.625,187.98828,-0.2691271526636476,0.0298437339457014,0.0230489926347623,57.0,18.0,0.6
-991.69922,17.57813,-261.23047,-0.0033307863445059,0.0077274452632048,0.0433002224785777,-1.05,30.3,28.95,-442.38281,-135.25391,924.80469,0.0555574952824086,0.0113245688515652,0.1195084534705833,81.3,2.4,77.4,-999.02344,10.74219,215.82031,-0.269926513461061,-0.0417013263508257,0.0087933178373978,58.05,18.75,0.3
-988.28125,-2.44141,-263.18359,0.0187856768709157,-0.0246477142295891,0.1028545217480534,0.0,29.55,29.25,-439.45312,-110.83984,946.77734,0.0478300500192038,0.0011990411961201,0.1509510835440367,82.8,3.15,76.65,-994.14062,44.92188,223.63281,-0.3174900517034853,-0.1051194355183664,0.0037304667432126,54.9,18.3,2.55
-965.33203,-0.97656,-256.83594,0.0067947413109391,0.0692803210591393,0.1269693869570086,0.0,29.55,29.25,-410.64453,-79.58984,997.07031,0.002264913770313,0.067015232755901,0.1640077171452811,82.65,3.0,76.2,-984.375,47.36328,200.68359,-0.3012358003796621,-0.0599539796681824,0.0013323843509724,56.4,19.35,0.75
-973.63281,14.64844,-239.74609,0.0330413516682802,0.0564900247017492,0.1007227765996675,-1.05,31.35,29.25,-422.85156,-52.24609,988.76953,-0.0218499514386422,0.1097826062138449,0.1602772504020684,82.65,3.0,76.2,-994.14062,59.08203,220.70312,-0.367051991939443,-0.1028545217480534,-0.0286446927495813,56.4,19.35,0.75
-1006.34766,33.20313,-251.95312,0.0187856768709157,0.0403691165327784,0.0812710820861907,-0.3,31.35,27.9,-394.04297,-19.53125,998.04687,-0.0624854052152749,0.0971256530113072,0.1806614743348858,82.65,3.0,76.2,-994.62891,29.29688,207.51953,-0.4544517976940119,-0.0688804661275074,-0.0355727772153728,56.4,19.35,0.75
-1026.36719,56.64063,-257.32422,0.0186523337160634,0.0538254305327295,0.0478300500192038,-0.45,31.65,29.1,-397.46094,-33.20313,985.35156,-0.0281118437289474,0.0867336135790826,0.1870567097800435,83.55,3.15,76.35,-1034.66797,13.67187,218.26172,-0.4509876681946536,0.0033307863445059,-0.0245145456076619,56.7,19.35,2.25
-1055.66406,73.73047,-262.20703,0.0049295079393327,0.0275788201753884,0.0624854052152749,-0.3,29.85,28.95,-391.11328,-26.85547,968.75,-0.0644839817417337,-0.0552909835056291,0.2034441297257938,82.95,3.0,76.5,-975.09766,-36.62109,205.07812,-0.4680412803158902,-0.1608100994227023,0.0241148652089552,56.7,19.35,2.25
-1067.87109,106.44531,-267.57812,0.0059953805135257,-0.058088746296576,0.0836691644784309,-0.3,29.85,28.95,-384.76562,-3.90625,957.51953,-0.0679479367081668,-0.1112481591867445,0.20917299846254,84.6,3.45,76.65,-1003.41797,-34.66797,201.66016,-0.4637779645520436,-0.0506278128101507,0.0098591904115907,56.4,19.8,1.5
-1048.82813,114.25781,-243.65234,-0.0702128504784798,-0.0776737839649052,0.0883323351739094,0.0,30.6,26.85,-390.13672,-8.78906,938.47656,-0.1215068554641168,-0.0772741035661985,0.229290885151503,82.95,4.05,76.2,-1001.95312,-63.96484,217.28516,-0.4158147459109126,-0.0560903443030425,0.0211837592631559,55.8,18.0,1.05
-1020.99609,95.70313,-250.0,-0.1095160944370653,-0.1277687477544221,0.0672817445326806,-0.15,30.45,29.4,-401.36719,-24.90234,895.01953,-0.1754656291516987,0.0203843984657425,0.2094395102393195,83.25,4.05,76.2,-955.56641,-74.21875,200.68359,-0.3952971788232429,-0.0714118916745999,0.0,56.1,19.35,1.2
-1023.92578,102.05078,-231.44531,-0.0812710820861907,-0.1713353074768541,0.0546247913301429,-0.45,30.9,28.05,-400.87891,-40.52734,891.60156,-0.1326982556937548,0.1401591891801802,0.1915865373206695,82.65,3.75,76.2,-952.14844,-108.39844,225.58594,-0.3422711090879268,-0.0643506385868813,0.0440995832759911,56.4,19.8,1.2
-991.69922,96.67969,-206.54297,-0.1136462415789847,-0.1035207139235396,0.054091942309509,-1.8,28.95,28.8,-381.34766,-64.45313,945.80078,-0.1168438593015635,0.1878560705774568,0.2195650378947646,82.65,3.75,76.2,-943.35937,-87.40234,225.09766,-0.3101622868389871,-0.0924624823158288,0.0564900247017492,56.4,19.8,1.2
-972.16797,81.54297,-191.89453,-0.10205516095064,-0.1496186991930643,-0.0293108849250675,-1.8,28.95,28.8,-379.39453,-83.49609,923.82812,-0.055823832526263,0.2109050632122192,0.2264931223605561,82.95,3.0,77.55,-964.35547,-99.12109,225.58594,-0.2590014504752773,-0.1153783063286639,0.0311761182966739,56.1,20.55,1.5
-950.68359,75.19531,-177.73437,-0.0787396565390981,-0.1393598283827668,0.0203843984657425,0.6,31.35,28.95,-370.60547,-92.77344,919.43359,-0.1059187963157798,0.1605435876459228,0.1586783542743164,84.6,3.15,76.05,-973.14453,-91.79688,245.11719,-0.2316891420766684,-0.1289677889505422,0.0584886012282079,56.1,20.55,1.5
-947.75391,54.6875,-173.82812,-0.0802052095119978,-0.1107151356331855,-0.061419532641082,-1.05,30.3,28.5,-378.90625,-120.60547,903.80859,-0.1159111553492978,0.1303001733015146,0.1649402465646217,82.95,4.05,76.95,-958.49609,-96.67969,229.00391,-0.1616094602201157,-0.0921959705390492,0.0179861415405771,57.3,19.5,1.35
-945.80078,30.27344,-179.19922,-0.0588882816269146,-0.1127137121596442,-0.0410353087082646,0.6,31.05,28.5,-367.1875,-130.37109,889.16016,-0.0554241521275563,0.1614762915981885,0.1814610096652244,82.95,4.05,76.95,-971.19141,-77.14844,230.95703,-0.1538820149569108,-0.0866002704242302,0.0147886983509235,56.55,20.25,0.6
-944.33594,27.34375,-170.89844,0.0030642745677264,-0.1168438593015635,0.0235820161883213,0.6,31.05,28.5,-381.83594,-123.04688,905.27344,-0.0767412545455646,0.1123138572280122,0.1508177403891844,83.1,3.45,75.6,-951.66016,-50.78125,242.67578,-0.1089830708835063,-0.0401026047559989,-0.0198513749121835,56.1,20.1,1.8
-945.3125,24.41406,-182.61719,0.0536922619108023,-0.0398360929792193,-0.0848683802074762,-0.6,29.85,27.45,-364.25781,-104.98047,947.75391,-0.0010658725741929,0.107650861065459,0.1444226794769519,84.75,3.3,76.5,-966.30859,-37.10938,239.74609,-0.0828698036810175,-0.0475635382424242,0.0335742006889141,56.25,18.75,1.65
-917.96875,28.32031,-184.57031,-0.0083936374386911,0.0433002224785777,-0.1341638086666545,-0.6,29.55,28.2,-375.48828,-95.21484,944.33594,0.0426340303030914,0.1397595087814735,0.0909969293429291,84.75,3.3,76.5,-969.72656,-15.13672,249.51172,-0.0378376909856858,-0.0266462907560478,0.0119907610270514,55.65,21.15,1.2
-952.14844,42.96875,-170.89844,0.0544916227082157,-0.002264913770313,-0.0250473946282958,-1.2,31.2,29.85,-367.1875,-69.33594,956.54297,0.0618192130397887,0.0490290912153239,0.1052526041402936,83.25,3.75,77.55,-957.51953,2.44141,237.30469,-0.0811377389313384,0.0648836621404404,0.025713586803782,57.45,19.35,1.8
-966.79687,45.41016,-184.57031,0.0973919902551615,-0.0179861415405771,-0.0215834396618626,-1.8,30.9,28.8,-370.60547,-66.40625,937.01172,0.0536922619108023,0.0391699008037331,0.0940612039106556,84.15,4.2,76.35,-972.16797,-0.97656,239.25781,-0.0619525561946411,0.0848683802074762,0.049162259837251,57.45,19.35,1.8
-951.17187,29.78516,-175.78125,0.0250473946282958,0.0271791397766816,-0.0357059458372999,-1.8,30.9,28.8,-368.65234,-58.59375,917.96875,0.0083936374386911,0.0877993116203503,0.0794058487145844,82.95,4.5,76.5,-961.91406,10.25391,259.27734,-0.0815375938629702,0.0495619402359577,0.0840688448771376,57.3,21.0,2.4
-953.61328,24.41406,-185.54687,0.0754088701945922,-0.0337075438437664,0.0189188454928429,-1.8,30.9,28.8,-400.87891,-41.50391,910.15625,-0.0251807377831481,0.0241148652089552,0.0702128504784798,82.95,4.5,76.5,-975.58594,-8.30078,254.88281,-0.1247044731866956,0.0559571756811154,0.0587549384720623,57.3,21.0,2.4
-943.35937,29.29688,-190.42969,0.0860674214035963,-0.0339738810876208,-0.0053291883380394,0.6,30.6,28.95,-383.30078,-69.82422,918.45703,0.0255804181818548,0.0077274452632048,0.1097826062138449,83.25,4.05,76.2,-955.07812,-12.69531,258.30078,-0.0578224090527217,0.0640843013430269,0.0679479367081668,57.0,19.95,2.1
-943.35937,17.08984,-190.91797,0.0668820641339739,0.0369049870334201,-0.0182526533173567,-1.05,29.25,30.6,-407.71484,-57.12891,946.77734,0.0259800985805615,-0.0165205885676775,0.1035207139235396,84.6,4.65,75.6,-965.82031,-21.48438,252.44141,-0.0472970264656447,0.0515605167624164,0.0711455544307456,57.0,19.2,2.4
-919.92187,25.39063,-195.3125,0.131099534098928,0.0687472975055802,0.0035972981212855,-1.8,30.15,29.85,-393.06641,-48.82813,919.43359,0.0270459711547545,0.0417013263508257,0.0386370517830992,83.7,3.0,75.15,-956.54297,-25.39063,282.22656,-0.0984578628293545,0.0319754790940873,0.0981913510525749,57.9,18.3,1.5
-921.875,34.66797,-193.84766,0.1664057995375213,0.058088746296576,0.0122572728038309,-1.35,29.55,28.95,-401.36719,-49.31641,935.05859,0.0315757986953806,0.1152449631738115,0.046897346066938,82.65,4.8,76.95,-981.93359,-20.01953,290.52734,-0.0635512777894679,0.05475795995207,0.1289677889505422,56.55,19.95,1.65
-947.75391,36.62109,-203.61328,0.1608100994227023,0.104320074720953,-0.0205175670876697,-1.35,29.55,28.95,-388.67187,-34.17969,942.87109,0.020117886688963,0.1021883295725672,0.0644839817417337,83.25,4.05,76.95,-1014.16016,-23.4375,302.24609,-0.0347734164179594,0.1103154552344788,0.1045865864977326,57.15,19.95,1.65
-960.44922,35.15625,-212.89062,0.1434899755246862,0.0339738810876208,-0.0259800985805615,-0.75,29.7,28.8,-402.34375,-60.54688,957.51953,0.0107917198309313,0.0929953313364626,0.0928621627145355,83.55,4.65,76.35,-1002.92969,-2.92969,299.31641,-0.0358392889921523,0.0895313763700295,0.0836691644784309,57.15,20.1,0.45
-981.93359,56.64063,-225.58594,0.131099534098928,0.0911300979648563,-0.0370383301882724,0.3,30.3,27.9,-417.96875,-88.86719,979.00391,0.0584886012282079,0.0349065850398865,0.0615528757959344,83.55,4.65,76.35,-1037.59766,0.97656,312.98828,-0.0611531953972277,0.0856677410048896,0.0838025076332833,57.3,19.2,2.4
-964.84375,71.28906,-217.28516,0.0366386497895657,0.0385038831611721,-0.0610198522423753,-0.75,29.4,29.1,-410.64453,-71.77734,980.95703,0.1089830708835063,-0.0054625314928918,0.0334410320669869,83.7,3.0,75.15,-1030.27344,3.90625,319.82422,-0.0361056262360067,0.1332312792473139,0.0780734643636119,57.3,19.2,2.4
-955.56641,65.42969,-225.09766,0.0227824808579827,0.0391699008037331,-0.0246477142295891,-1.8,29.7,29.85,-417.96875,-56.64063,1018.06641,0.1267028751802291,-0.0455651362488907,0.0866002704242302,82.95,3.75,76.5,-1024.41406,14.64844,291.50391,-0.0031976177225788,0.1024548413493467,0.071944915228159,56.4,19.8,1.2
-952.63672,71.28906,-230.95703,0.0342403928644003,0.0298437339457014,0.0419678381276052,-1.8,29.7,29.85,-422.36328,-23.4375,995.60547,0.1568131209027101,-0.1031210335248329,0.0423675185263119,83.25,4.5,76.2,-1016.60156,8.30078,281.25,0.0759418937481512,0.1566799522807829,0.1195084534705833,56.4,19.8,1.2
-975.58594,79.58984,-250.97656,-0.0103920394322246,0.0976585020319411,0.0355727772153728,0.0,29.55,30.3,-432.12891,-18.06641,957.51953,0.1694700741052478,-0.1159111553492978,0.0245145456076619,83.25,4.5,76.2,-1000.97656,-13.18359,258.30078,0.1085833904847996,0.1376279381660128,0.0951270764848485,57.3,20.7,1.65
-1023.4375,108.39844,-250.0,-0.0654165111610742,0.0932618431132422,0.0584886012282079,-0.75,31.2,29.1,-428.71094,-2.92969,910.15625,0.1704027780575135,-0.0271791397766816,0.0603538345998143,84.45,3.75,77.25,-987.30469,-8.78906,272.94922,0.1040535629441735,0.0993905667816202,0.1271025555789358,57.15,20.1,1.8
-1040.52734,137.69531,-254.39453,-0.0515605167624164,0.0194516945134768,0.1486859952407985,-0.6,29.55,27.45,-412.10937,-20.50781,919.92187,0.1376279381660128,0.0375711792089063,0.034640073263107,82.65,4.5,76.5,-974.60937,-14.64844,262.20703,0.1393598283827668,0.0724777642487929,0.1261700261595952,56.25,20.25,1.65
-1064.45313,142.57812,-262.69531,-0.1374945950111605,0.0326416712695735,0.1107151356331855,-1.2,29.7,28.35,-411.13281,3.90625,938.96484,0.1167105161467112,0.0623522365933478,-0.0155880591483369,82.65,4.5,76.5,-983.39844,-4.39453,264.64844,0.1682710329091277,0.1041869060990259,0.1121806886060851,57.15,20.85,0.75
-1022.94922,125.97656,-260.74219,-0.2003798551580673,-0.0820704428836041,0.1163108357480045,-1.2,29.7,28.35,-415.03906,-18.55469,906.25,0.1291011321053945,0.0779402957416847,-0.0267794593779749,83.85,4.2,76.35,-979.98047,10.74219,255.85937,0.1624088210175291,0.0548913031069224,0.1316323831195619,57.15,20.85,1.2
-989.74609,89.35547,-239.25781,-0.1059187963157798,-0.1799954566923248,0.1341638086666545,-1.8,30.15,28.8,-418.94531,-42.96875,904.29687,0.1283017713079811,0.0929953313364626,0.0215834396618626,83.85,4.65,76.05,-996.58203,11.71875,259.27734,0.182926562638124,0.0452986244721112,0.1135130729570576,57.9,20.55,1.8
-954.58984,64.94141,-216.30859,-0.1493521874162847,-0.1811944978884449,0.0503614755662963,-0.3,30.6,29.25,-409.17969,-45.41016,900.87891,0.1819938586858583,0.0690138092823597,-0.0133231453780239,82.35,4.2,75.6,-973.63281,39.55078,251.95312,0.1681378642872005,-0.0474303696204971,0.1216401986189692,57.9,20.55,1.8
-910.64453,50.29297,-210.9375,-0.1458882324498516,-0.1372282577673061,0.0510274932088574,-1.05,29.85,29.25,-415.52734,-38.08594,913.57422,0.1360290420382608,0.0555574952824086,0.0375711792089063,82.35,4.2,75.6,-984.86328,42.48047,245.60547,0.1807948174897382,-0.0094593354799588,0.1693369054833206,56.7,20.85,1.8
-889.16016,76.17188,-206.54297,-0.0850015488294034,-0.1509510835440367,-0.0073277648644981,-0.3,31.05,30.6,-412.59766,-24.41406,921.38672,0.1422909343285661,0.0191853572696224,-0.0010658725741929,82.35,4.2,75.6,-984.86328,52.24609,249.02344,0.1506845717672572,-0.0389035635598788,0.1147121141531777,54.6,19.8,1.2
-874.02344,92.28516,-213.37891,-0.1019218177957876,-0.0385038831611721,-0.0227824808579827,-0.3,31.05,30.6,-408.20312,-22.46094,897.94922,0.1488193383956508,-0.0355727772153728,0.0070612530877186,83.85,4.95,75.3,-978.51562,50.29297,233.39844,0.1626753327943086,-0.0321086477160144,0.1105819670112583,56.55,20.7,1.35
-897.46094,94.72656,-203.125,-0.0791393369378048,-0.0083936374386911,-0.0207840788644492,-0.15,30.9,29.1,-407.71484,-15.625,894.04297,0.1417580853079322,-0.0588882816269146,-0.0015987215948268,83.25,4.5,75.15,-1000.0,37.10938,251.95312,0.148952507017578,-0.0074609334864253,0.1657396073620351,56.1,19.35,0.45
-914.55078,102.05078,-205.07812,-0.0389035635598788,-0.0246477142295891,0.0475635382424242,-1.2,31.2,28.35,-427.73437,-12.20703,918.94531,0.1700030976588069,-0.1325650870718277,-0.0179861415405771,83.25,4.5,75.15,-975.58594,44.43359,230.46875,0.1907871765232561,-0.002264913770313,0.1532159973143498,57.6,20.7,1.05
-913.08594,97.65625,-210.44922,-0.0818039311068246,0.0225161436141284,0.0656830229378538,0.6,28.8,29.55,-429.6875,-7.32422,916.01562,0.1558805914833695,-0.1151117945518844,0.0035972981212855,84.15,5.7,76.05,-974.60937,35.15625,238.76953,0.1751991173749191,0.0278453319521679,0.0965926294577481,56.4,20.1,0.45
-936.03516,101.07422,-212.40234,-0.0993905667816202,0.06634921511334,0.0355727772153728,0.6,28.8,29.55,-411.62109,-7.8125,913.08594,0.1392266597608396,-0.1317657262744143,0.0231821612566894,82.95,5.55,76.5,-987.79297,27.34375,229.49219,0.1915865373206695,-0.0125237845806105,0.1516171011865978,56.4,20.1,0.45
-940.91797,96.19141,-214.84375,-0.0619525561946411,-0.0370383301882724,0.0762082309920056,0.6,28.8,29.55,-410.64453,-14.16016,904.29687,0.1480199775982374,-0.1569464640575625,-0.0025314255470925,82.65,4.8,75.75,-975.09766,41.50391,198.24219,0.1506845717672572,0.0301102457224809,0.0999234158022541,55.8,21.75,1.35
-942.38281,68.84766,-220.70312,-0.0285115241276541,0.0073277648644981,0.1273690673557154,0.45,31.65,29.1,-411.13281,-27.34375,909.66797,0.1149786259299572,-0.1521501247401568,0.0175864611418704,82.65,4.8,75.75,-965.33203,26.85547,206.54297,0.1853246450303643,-0.0146553551960711,0.0981913510525749,55.8,21.75,1.35
-966.30859,73.24219,-238.76953,-0.0417013263508257,-0.0054625314928918,0.0551578148837019,-0.45,30.45,30.45,-415.03906,-47.36328,921.38672,0.161209779821409,-0.1794624331387657,0.0142556747973644,82.8,5.7,74.85,-974.60937,21.97266,184.57031,0.170136266280734,-0.0085268060606182,0.1139127533557643,56.25,20.7,1.65
-974.60937,94.72656,-250.97656,-0.0143890179522168,-0.0242480338308824,0.1449555284975858,-1.05,30.3,29.55,-414.0625,-46.875,928.22266,0.1512174207878911,-0.0891316959713228,-0.0353062654385932,82.8,4.2,76.05,-971.67969,14.16016,183.59375,0.1473537854227512,0.0695466583029936,0.1012558001532266,55.35,21.6,1.5
-1002.92969,99.60938,-253.41797,0.0269126279999021,-0.0023980823922402,0.11990813386929,-1.05,30.3,29.55,-419.43359,-28.32031,926.26953,0.1592113778278755,-0.1025880099712739,-0.0550244717288496,83.1,6.15,75.6,-964.84375,8.78906,189.94141,0.196915725658709,-0.027312482931534,0.1280352595312016,56.7,21.9,0.45
-1025.87891,110.35156,-255.85937,-0.0091929982361045,0.0099923590335179,0.0856677410048896,-0.15,30.15,28.35,-420.41016,4.88281,934.08203,0.1027213531261262,-0.0635512777894679,-0.0389035635598788,83.55,5.4,75.3,-973.63281,10.25391,176.75781,0.1370949146124538,0.0401026047559989,0.078606487917171,56.7,20.1,0.45
-1042.96875,122.55859,-267.08984,0.0107917198309313,-0.1472204422678988,0.1189754299170242,-0.45,29.4,28.35,-403.80859,-3.90625,929.6875,0.1207074946667034,-0.0431668793237253,-0.0889985273493956,83.25,6.0,76.5,-984.375,6.83594,192.38281,0.1346968322202135,-0.0578224090527217,0.1073843492886795,56.7,20.1,0.45
-1062.01172,138.18359,-266.11328,-0.069680001457846,-0.0960597804371143,-0.004529827540626,-1.65,30.6,28.5,-415.03906,10.25391,940.42969,0.1460214010717788,-0.0083936374386911,-0.1280352595312016,82.05,4.2,75.3,-967.28516,11.23047,182.61719,0.1365620655918199,-0.0619525561946411,0.0480965617959833,56.55,21.0,1.05
-1044.43359,131.34766,-249.02344,-0.0459648166475974,-0.1649402465646217,-0.0194516945134768,-0.45,30.9,28.8,-404.29687,14.64844,936.03516,0.096459460835821,-0.0403691165327784,-0.0608866836204481,82.05,4.2,75.3,-988.28125,19.04297,217.77344,0.125503833984109,-0.0318423104721601,0.0632847660126884,57.15,20.55,1.8
-1050.78125,132.32422,-229.49219,-0.0274456515534612,-0.2105053828135125,0.0767412545455646,-0.45,30.9,28.8,-388.67187,1.46484,934.08203,0.068614128883653,-0.0443659205198454,-0.0495619402359577,83.7,3.3,75.75,-983.39844,-1.46484,195.80078,0.1337641282679478,0.0294440535469947,0.0425006871482391,57.15,20.55,1.8
-1014.16016,144.04297,-234.86328,-0.0639509581881746,-0.2582020896778639,-0.0135896571548034,-1.2,31.65,29.4,-387.69531,-21.48438,946.77734,0.0530260697353161,-0.0475635382424242,-0.0877993116203503,81.3,6.15,76.35,-994.14062,-5.85937,188.96484,0.1697365858820273,0.0203843984657425,0.0446324322966249,56.7,20.55,0.45
-989.74609,151.85547,-217.28516,-0.0337075438437664,-0.3003032709603215,0.0113245688515652,-0.15,31.65,29.85,-399.41406,-9.27734,932.61719,0.0759418937481512,-0.037970859607613,-0.1056524590719255,82.35,4.95,76.65,-991.21094,-4.88281,222.16797,0.1746660938213601,-0.0283781809728018,0.0570230482553083,56.7,20.55,0.45
-963.86719,128.41797,-206.05469,-0.0410353087082646,-0.2809847450687719,0.0508943245869302,-0.6,30.3,29.55,-411.13281,-27.34375,938.96484,0.0762082309920056,-0.0218499514386422,-0.0568897051004559,82.35,4.95,76.65,-994.62891,-1.95312,209.47266,0.2458116482521058,-0.0359724576140795,0.0269126279999021,55.35,20.1,0.15
