IMU1_AccX,IMU1_AccY,IMU1_AccZ,IMU1_GyrX,IMU1_GyrY,IMU1_GyrZ,IMU1_MagX,IMU1_MagY,IMU1_MagZ,IMU2_AccX,IMU2_AccY,IMU2_AccZ,IMU2_GyrX,IMU2_GyrY,IMU2_GyrZ,IMU2_MagX,IMU2_MagY,IMU2_MagZ,IMU3_AccX,IMU3_AccY,IMU3_AccZ,IMU3_GyrX,IMU3_GyrY,IMU3_GyrZ,IMU3_MagX,IMU3_MagY,IMU3_MagZ
-992.67578,-27.83203,-155.27344,-0.002264913770313,0.0170536121212365,-0.0405022851547056,1.8,26.7,30.15,26.36719,37.59766,1042.96875,0.1028545217480534,-0.1224395594163826,0.0249142260063686,67.2,5.4,89.1,-890.13672,-9.76562,485.83984,0.1049862668964393,0.1072511806667523,-0.0103920394322246,58.35,22.2,17.85
-990.72266,-15.625,-163.57422,0.0231821612566894,0.0263797789792682,-0.0005328490206338,1.8,26.7,30.15,15.13672,45.89844,1042.48047,0.0716784034513795,-0.1376279381660128,0.0511608363637097,67.95,4.95,89.1,-888.67187,-31.25,480.95703,0.0667488955120467,0.10205516095064,0.0066615726890119,58.35,22.2,17.85
-1000.97656,-8.30078,-180.17578,0.0047963393174056,0.0205175670876697,-0.0582220894514284,1.8,26.7,29.85,-7.32422,32.71484,1031.73828,0.0182526533173567,-0.0899310567687362,0.1185757495183175,67.95,4.95,89.1,-875.48828,-24.41406,473.14453,0.0421010067495324,0.1554809110846628,-0.0365053066347134,58.35,22.2,17.85
-1026.36719,0.48828,-197.75391,-0.0460979852695246,-0.0125237845806105,-0.042900542079871,1.8,25.35,30.45,-13.67187,-1.95312,1003.41797,0.0079939570399844,-0.0798055291132911,0.0739433172216925,67.2,6.9,90.6,-884.76562,-45.41016,433.59375,0.095393588261628,0.1674716721117143,-0.0021317451483858,57.6,21.45,16.8
-1054.19922,17.57813,-200.19531,0.0067947413109391,-0.0302434143444081,0.0393032439585855,1.65,26.55,30.6,-11.71875,8.30078,1003.90625,0.0271791397766816,-0.0740764858436197,0.068081105330094,66.45,4.95,89.55,-903.80859,-61.52344,467.28516,0.0883323351739094,0.1508177403891844,0.0046631706954784,57.15,21.15,15.9
-1047.36328,17.57813,-200.68359,-0.0763415741468579,-0.0482297304179105,0.0029311059457992,2.4,26.55,31.05,-14.16016,-4.88281,1015.625,0.032908183046353,-0.0587549384720623,0.0085268060606182,67.8,6.0,90.45,-912.10937,-50.78125,450.19531,0.0799386977352182,0.0590214502488418,-0.0463644970463041,57.6,21.75,16.5
-1032.71484,12.20703,-198.24219,-0.0711455544307456,-0.1059187963157798,-0.0098591904115907,2.4,26.55,31.05,-12.20703,-1.46484,1011.71875,0.0089264864593249,-0.0407687969314851,0.0094593354799588,67.8,6.0,90.45,-918.94531,-56.64063,432.61719,0.0872664625997164,0.0682144484849463,-0.0579555776746489,56.7,21.6,15.9
-1026.36719,18.55469,-175.29297,-0.0443659205198454,-0.158944866051096,0.0318423104721601,1.35,27.0,31.05,-9.76562,-13.18359,996.09375,-0.0155880591483369,-0.0732771250462063,-0.0119907610270514,66.9,6.15,90.6,-935.54687,-30.76172,451.17187,0.0815375938629702,0.0249142260063686,-0.0627519169920545,56.7,21.6,15.9
-997.07031,8.30078,-175.29297,-0.1023216727274195,-0.125503833984109,0.0233155044115418,0.15,26.4,31.2,-14.16016,-0.48828,996.58203,-0.0359724576140795,-0.0551578148837019,0.0214502710399355,66.9,6.6,90.6,-910.15625,-35.64453,456.05469,0.1185757495183175,0.0,-0.1045865864977326,57.45,21.6,16.65
-992.1875,13.67187,-161.62109,-0.1088499022615791,-0.0838025076332833,-0.0463644970463041,1.65,26.55,30.6,-1.95312,-18.06641,1012.69531,-0.0283781809728018,-0.0516936853843436,0.0170536121212365,67.2,5.7,89.55,-917.48047,-0.97656,460.9375,0.0318423104721601,0.0105252080541518,-0.0143890179522168,57.45,21.6,16.65
-971.19141,20.50781,-153.80859,-0.0470306892217904,-0.1211071750654101,0.011191400229638,2.4,26.55,31.05,-7.32422,-22.46094,1002.44141,-0.0444992636746978,-0.0619525561946411,0.0143890179522168,67.05,6.3,90.75,-927.24609,-5.37109,466.79687,0.050228132411444,-0.0163874199457503,-0.0706125308771865,56.1,22.65,16.65
-970.21484,2.92969,-149.41406,-0.1614762915981885,-0.0294440535469947,-0.0147886983509235,2.4,26.55,31.05,-3.41797,-32.22656,1017.08984,-0.0319754790940873,-0.0440995832759911,-0.0054625314928918,67.35,5.55,90.0,-899.41406,-4.88281,466.79687,0.0181194846954295,-0.0611531953972277,-0.0495619402359577,57.3,21.45,16.5
-975.09766,2.44141,-150.87891,-0.1093829258151382,-0.0472970264656447,-0.082603291904238,1.5,25.65,32.25,20.99609,-24.41406,1001.95312,-0.1502848913685505,-0.0899310567687362,-0.0474303696204971,67.05,6.0,90.45,-901.36719,-15.13672,506.34766,0.0554241521275563,-0.0279785005740951,-0.0543582795533633,59.1,23.7,16.05
-962.89062,1.95312,-142.08984,-0.1259035143828157,-0.1048529237415869,-0.0381042027624654,1.65,25.5,30.0,12.20703,-83.49609,986.81641,-0.0266462907560478,-0.0969923098564548,0.0099923590335179,67.05,6.0,90.45,-895.50781,-20.99609,482.91016,0.0426340303030914,-0.091529778363563,-0.0113245688515652,56.25,21.75,16.05
-960.44922,-21.97266,-141.60156,-0.0854012292281101,-0.0754088701945922,-0.0037304667432126,3.75,27.0,31.65,30.27344,-84.96094,994.62891,0.0211837592631559,-0.0929953313364626,-0.1179097318757565,66.9,6.6,89.55,-881.34766,-24.41406,480.46875,0.1048529237415869,-0.08420218803199,0.0154548905264097,56.7,20.55,16.2
-978.02734,-15.13672,-153.32031,-0.1524164619840112,-0.050228132411444,-0.0608866836204481,1.65,27.75,31.35,14.16016,-76.17188,1003.90625,0.0448989440734045,-0.0487625794385443,-0.1113813278086717,66.9,6.9,89.55,-860.83984,-31.73828,474.12109,0.0923293136939016,-0.0319754790940873,0.0476967068643514,57.15,22.35,15.9
-995.11719,-33.69141,-152.83203,-0.073676805444913,-0.0880658233971298,-0.0787396565390981,1.65,27.75,31.35,35.64453,-23.4375,997.55859,0.1191087730718766,-0.0267794593779749,-0.132165406673121,66.75,6.0,91.2,-853.02734,-24.90234,484.375,0.1468207618691921,-0.0034639549664331,-0.0363721380127862,57.15,22.35,15.9
-998.04687,-13.18359,-145.01953,-0.0720780838500862,-0.1152449631738115,-0.0074609334864253,2.55,26.1,30.45,48.82813,-21.48438,1005.37109,0.0822036115055313,-0.0459648166475974,-0.1702694349026612,66.75,6.0,91.2,-869.14062,-31.25,493.65234,0.1369617459905266,0.0082602942838387,0.0237151848102485,58.5,21.6,16.65
-1012.20703,-24.90234,-149.90234,-0.0584886012282079,-0.0984578628293545,-0.0904640803222952,2.7,27.3,30.6,31.73828,-8.30078,1015.13672,0.0843353566539172,-0.04849624219469,-0.1116478395854512,66.75,5.55,90.0,-869.14062,-26.85547,486.81641,0.1181760691196108,0.0425006871482391,-0.0243813769857347,57.3,22.2,17.55
-1024.90234,-43.94531,-150.87891,0.0086599746825454,-0.1562802718820762,0.0238483534321757,2.1,26.25,32.1,36.13281,2.92969,1015.13672,0.0555574952824086,-0.0431668793237253,-0.1353630243956998,67.2,6.9,89.55,-851.07422,-23.4375,475.09766,0.1901209843477699,-0.0002665117767795,0.0153215473715574,57.0,21.45,16.5
-1018.55469,-25.39063,-148.92578,0.0019984019935335,-0.1843921156110237,-0.0213169278850831,3.0,25.35,31.5,31.73828,-0.97656,1011.71875,0.0251807377831481,-0.0033307863445059,-0.1136462415789847,67.2,6.9,89.55,-864.74609,-18.06641,487.79297,0.1429571265040523,0.0383705400063197,0.0025314255470925,57.3,21.0,16.05
-1038.57422,-31.73828,-163.08594,-0.0154548905264097,-0.2332878636714952,-0.0972588216332344,3.0,25.35,31.5,28.32031,-9.76562,1015.625,0.0230489926347623,-0.0319754790940873,-0.1440229990782452,68.55,6.0,90.45,-883.78906,-27.83203,483.39844,0.1480199775982374,0.0317089673173077,0.0094593354799588,56.25,22.2,16.8
-1035.64453,-35.15625,-151.36719,0.0258469299586344,-0.2426140305295269,-0.0358392889921523,3.3,26.1,31.5,42.48047,-13.18359,1002.92969,0.0498284520127373,-0.040235773377926,-0.1259035143828157,66.45,5.4,88.8,-865.72266,-5.37109,454.58984,0.1838590920574646,0.0446324322966249,0.0403691165327784,58.35,21.75,16.8
-1040.03906,-20.50781,-177.73437,0.0658161915597809,-0.2848483804339117,-0.0277121633302407,1.8,24.9,31.95,40.03906,-16.11328,1001.46484,0.0053291883380394,-0.0113245688515652,-0.1097826062138449,65.4,4.95,90.3,-879.88281,-8.30078,467.28516,0.1482863148420918,0.0426340303030914,0.029044373148288,58.35,21.75,16.8
-1033.20313,-35.15625,-146.48437,0.0190520141147701,-0.2540719425359445,-0.042900542079871,3.0,27.15,31.2,24.90234,-27.83203,984.86328,0.0279785005740951,0.025713586803782,-0.1124472003828646,65.4,4.95,90.3,-899.90234,-15.625,492.1875,0.1212403436873373,0.0476967068643514,-0.0460979852695246,57.6,20.25,16.5
-1016.60156,-22.94922,-146.48437,0.040235773377926,-0.349199019020793,-0.0476967068643514,2.4,25.5,31.05,28.32031,-19.53125,992.67578,0.0634181091675407,0.0030642745677264,-0.1490856756395052,66.3,5.55,89.7,-924.80469,-4.39453,495.60547,0.1336309596460206,0.0714118916745999,-0.0141225061754373,57.6,20.25,16.5
-985.83984,-26.85547,-137.20703,0.0483628990398376,-0.3559939348646574,-0.0311761182966739,2.4,25.5,31.05,12.20703,-14.64844,1018.55469,0.0266462907560478,0.0079939570399844,-0.1354961930176269,67.35,5.55,90.45,-922.36328,4.39453,489.74609,0.1227058966602369,0.0466310088230837,-0.0510274932088574,57.6,20.25,16.5
-969.23828,-37.59766,-102.53906,-0.0258469299586344,-0.3015023121564416,-0.0711455544307456,3.3,26.4,32.25,6.83594,4.39453,1041.01563,0.0197182062902563,0.0035972981212855,-0.1709356270781474,66.9,3.9,89.1,-940.42969,-2.44141,462.40234,0.1987809590303153,-0.0221164632154217,-0.052493046181757,56.55,21.45,16.5
-964.35547,-19.04297,-109.375,0.0471638578437175,-0.2843155314132778,-0.0620857248165682,1.8,25.65,32.55,2.92969,19.53125,1034.17969,0.0584886012282079,0.0063950609122324,-0.0936615235119489,66.75,5.55,89.7,-904.78516,23.92578,454.58984,0.1825268822394173,-0.0215834396618626,-0.0732771250462063,57.6,21.0,16.05
-975.09766,-26.85547,-110.35156,0.0419678381276052,-0.2343537362456882,-0.0678147680862396,3.45,26.55,32.4,11.71875,13.18359,1027.34375,-0.004529827540626,-0.0106585512090041,-0.1128468807815713,67.65,4.95,91.65,-903.80859,11.71875,479.00391,0.1941179628677621,0.0046631706954784,-0.0042633157638465,58.05,21.75,16.5
-986.32812,-32.71484,-98.63281,-0.0333078634450597,-0.2135696573812389,-0.1155114749505911,2.25,26.1,31.5,20.01953,-1.95312,1020.99609,0.0190520141147701,-0.0427671989250186,-0.1129800494034985,67.95,5.4,90.6,-890.625,26.85547,504.39453,0.1528161423827179,0.0085268060606182,-0.0171867807431637,57.15,21.15,15.9
-997.55859,-33.20313,-103.02734,-0.0417013263508257,-0.1640077171452811,-0.0538254305327295,2.25,26.1,31.5,25.87891,-17.08984,1014.64844,0.0506278128101507,-0.015055210127703,-0.069680001457846,67.95,5.4,90.6,-888.18359,32.71484,490.72266,0.1361623851931132,-0.0106585512090041,0.0074609334864253,57.0,21.45,16.05
-995.60547,-32.71484,-104.49219,-0.0426340303030914,-0.1871898784019706,-0.0512940049856369,2.25,26.1,31.5,42.96875,-13.18359,1014.16016,0.0430337107017981,0.0482297304179105,-0.0735436368229858,67.05,5.55,90.6,-889.16016,46.38672,479.98047,0.0911300979648563,0.0109248884528585,-0.0358392889921523,57.0,20.25,15.0
-999.02344,-29.78516,-110.35156,-0.0559571756811154,-0.1766646703478188,-0.1167105161467112,2.4,25.5,32.7,35.15625,0.0,1010.74219,0.0503614755662963,0.0165205885676775,-0.131099534098928,66.3,4.8,88.95,-880.85937,30.27344,473.14453,0.0911300979648563,0.0118575924051242,-0.0110582316077108,57.0,20.25,15.0
-1020.99609,-34.66797,-104.98047,-0.0351730968166661,-0.1917197059425967,-0.0923293136939016,1.8,26.4,33.0,46.875,18.06641,1015.13672,0.0275788201753884,0.0245145456076619,-0.1160443239712249,66.45,4.8,90.0,-871.09375,17.08984,490.72266,0.0650168307623675,-0.0103920394322246,-0.0194516945134768,55.8,21.75,16.8
-1018.55469,-37.59766,-89.35547,-0.0139893375535101,-0.2827166352855259,-0.0222496318373489,3.6,26.1,31.95,47.36328,31.25,1019.53125,0.0397029243572922,0.0123904414257581,-0.0807380585326316,66.45,5.7,90.3,-877.44141,15.625,498.53516,0.0818039311068246,-0.0085268060606182,-0.0037304667432126,57.45,21.6,16.2
-1012.20703,-40.03906,-83.98438,-0.0623522365933478,-0.22702597138119,-0.0956601000384076,1.5,26.1,31.5,49.80469,16.60156,1021.97266,0.060753514998521,0.0410353087082646,-0.116577347524784,66.45,5.7,90.3,-894.04297,10.74219,502.92969,0.0652833425391471,-0.0206509102425221,-0.0542251109314362,56.25,21.0,16.5
-993.65234,-35.64453,-81.05469,-0.0658161915597809,-0.2034441297257938,-0.0862005900255235,1.5,26.1,31.5,39.0625,-0.48828,1027.34375,0.037970859607613,0.0504946441882235,-0.10205516095064,65.4,3.9,90.3,-890.625,-0.97656,503.90625,0.1517504443414501,-0.0105252080541518,-0.018385996472209,56.7,20.85,16.65
-993.16406,-36.13281,-70.80078,-0.0227824808579827,-0.2590014504752773,-0.0282450123508746,4.2,24.75,32.4,48.82813,13.18359,1004.88281,0.0258469299586344,0.0293108849250675,-0.1145789455312505,67.35,5.55,90.45,-885.74219,-7.8125,513.67187,0.1052526041402936,0.0195850376683291,-0.067015232755901,56.4,21.9,15.6
-996.58203,-37.59766,-68.35938,-0.0795390173365115,-0.2664625584946278,-0.0101255276554451,3.0,25.65,33.3,47.85156,40.03906,1004.88281,0.040235773377926,0.0394364125805126,-0.1039203943222463,67.2,4.65,90.3,-889.64844,-4.88281,499.02344,0.1212403436873373,0.0414349891069713,0.03064326927604,57.9,19.8,15.6
-991.21094,-29.78516,-74.70703,-0.0892648645932499,-0.2049096826986934,-0.0241148652089552,2.55,26.1,33.3,21.97266,28.80859,1006.34766,0.0460979852695246,0.011191400229638,-0.0536922619108023,68.55,5.25,88.95,-866.69922,18.55469,470.70312,0.1301670046795875,0.0784731447623186,-0.0229158240128351,57.9,19.8,15.6
-992.67578,-13.18359,-64.45313,-0.0699463387017003,-0.2235620164147568,-0.0018652333716063,3.0,26.7,33.9,40.03906,40.03906,1009.76562,0.0035972981212855,0.0019984019935335,-0.0746095093971788,66.75,4.05,89.4,-880.85937,43.45703,491.21094,0.1398928519363259,0.0369049870334201,-0.0242480338308824,57.3,22.5,17.55
-989.74609,-24.90234,-52.73438,-0.1217733672408963,-0.152283293362084,-0.0245145456076619,3.0,26.7,33.9,41.50391,12.20703,988.76953,-0.0487625794385443,-0.0015987215948268,-0.0426340303030914,67.65,5.4,88.8,-886.23047,33.20313,506.83594,0.0885988469506889,-0.0386370517830992,-0.0051960197161123,57.3,22.5,17.55
-986.32812,-32.71484,-49.31641,-0.1156446435725182,-0.2264931223605561,-0.0622190679714206,3.75,27.3,33.45,35.64453,-8.78906,1026.85547,-0.0626187483701273,-0.0137228257767306,-0.0359724576140795,67.65,5.4,88.8,-869.62891,35.64453,504.88281,0.0266462907560478,-0.0363721380127862,-0.0466310088230837,57.0,20.25,16.8
-987.30469,-68.84766,-48.33984,-0.0592879620256213,-0.2240948654353907,-0.06634921511334,3.75,25.05,34.5,41.01563,-21.97266,1022.46094,-0.0588882816269146,0.0298437339457014,0.0051960197161123,65.85,5.7,89.55,-891.11328,33.69141,502.92969,0.0079939570399844,-0.0207840788644492,-0.0355727772153728,58.5,19.35,15.6
-1006.83594,-53.71094,-53.71094,-0.0221164632154217,-0.1586783542743164,-0.0662158719584876,5.1,25.65,33.9,34.66797,-39.0625,1017.08984,-0.0026645941690197,0.0370383301882724,0.0025314255470925,67.35,5.55,89.7,-869.62891,11.71875,485.35156,0.0126569532025376,0.0409019655534123,-0.1073843492886795,58.05,21.75,15.45
-1003.41797,-36.13281,-53.71094,-0.0652833425391471,-0.1275022359776425,-0.070346019100407,2.55,26.7,33.0,25.87891,-15.13672,1002.92969,0.059154618870769,0.0638177895662474,-0.0666155523571943,67.05,5.25,88.95,-899.90234,9.76562,520.50781,0.0398360929792193,-0.002264913770313,-0.0354394340605204,56.7,21.15,16.95
-1002.92969,-38.08594,-57.61719,-0.0459648166475974,-0.1810613292665177,-0.050228132411444,2.55,26.7,33.0,31.25,-10.25391,1015.625,0.0391699008037331,0.0602204914449619,-0.0492956029921034,67.05,5.25,88.95,-901.85547,-1.46484,531.73828,-0.0041301471419193,-0.0002665117767795,-0.0936615235119489,56.7,21.15,16.95
-1020.99609,-18.06641,-53.71094,-0.0498284520127373,-0.1685375446859072,0.0269126279999021,4.2,26.55,34.2,25.39063,2.92969,1037.59766,0.0369049870334201,0.0426340303030914,-0.0556906639043358,66.75,5.55,88.95,-893.06641,-25.39063,506.34766,0.0478300500192038,-0.0511608363637097,-0.0679479367081668,57.15,21.6,15.6
-1010.25391,-18.06641,-55.17578,-0.0929953313364626,-0.1581455052536826,-0.0321086477160144,4.2,26.55,33.45,40.52734,23.4375,1025.39063,-0.0319754790940873,0.0198513749121835,-0.0738101485997654,66.3,3.3,88.65,-881.83594,-16.60156,502.44141,0.0997902471803269,-0.015055210127703,-0.0459648166475974,57.15,21.6,15.6
-994.62891,-21.97266,-65.91797,-0.0672817445326806,-0.2118375926315597,0.0071944217096458,4.2,24.75,33.45,54.6875,13.67187,1012.69531,-0.0928621627145355,0.0013323843509724,-0.0043966589186989,66.3,3.3,88.65,-884.27734,-13.67187,520.99609,0.0901975685455157,-0.0227824808579827,-0.0341072242424731,57.15,21.6,15.6
-995.60547,-31.73828,-58.10547,-0.0699463387017003,-0.176797838969746,-0.0039969785199922,4.5,25.05,34.8,46.38672,9.27734,1030.27344,-0.0610198522423753,-0.0318423104721601,-0.0013323843509724,66.75,6.0,88.65,-885.74219,-1.95312,493.65234,0.1271025555789358,-0.0327748398915007,-0.0578224090527217,58.35,20.7,16.5
-972.65625,-53.22266,-59.08203,-0.1073843492886795,-0.1477534658214579,-0.0213169278850831,4.5,25.05,34.8,39.0625,6.34766,1005.37109,-0.0763415741468579,-0.0652833425391471,0.004529827540626,66.0,5.25,88.95,-875.0,2.44141,529.78516,0.1183094122744632,-0.0699463387017003,-0.0759418937481512,55.8,21.0,16.5
-970.21484,-54.19922,-57.12891,-0.0815375938629702,-0.1167105161467112,0.0347734164179594,4.65,26.1,34.65,27.34375,-13.18359,1025.87891,-0.0704793622552594,-0.040235773377926,-0.0377045223637587,66.9,5.4,90.3,-876.95312,13.18359,510.74219,0.0802052095119978,-0.0542251109314362,-0.0811377389313384,57.6,20.7,15.75
-988.28125,-42.96875,-47.85156,-0.0277121633302407,-0.1401591891801802,0.0030642745677264,4.35,27.45,32.55,20.01953,-22.94922,1025.87891,-0.0279785005740951,-0.0559571756811154,0.0082602942838387,66.9,5.4,90.3,-884.76562,14.16016,496.09375,0.0758085505932989,-0.0361056262360067,-0.0544916227082157,57.45,20.1,15.9
-988.76953,-41.50391,-60.54688,-0.0548913031069224,-0.0796723604913639,0.032375159492794,5.25,26.55,35.25,42.96875,-11.23047,1007.32422,-0.0612863640191548,-0.0608866836204481,-0.0179861415405771,66.9,4.2,90.6,-875.0,11.71875,502.92969,0.0951270764848485,-0.050228132411444,-0.0369049870334201,58.35,19.95,16.05
-986.81641,-34.66797,-52.73438,0.0030642745677264,-0.0908637607210019,0.0263797789792682,4.65,26.7,33.9,45.89844,-3.90625,1001.46484,-0.0470306892217904,-0.023448673033469,-0.0133231453780239,66.15,3.9,90.9,-872.55859,4.39453,499.02344,0.0556906639043358,-0.0325085026476463,-0.0867336135790826,56.4,21.15,16.95
-995.11719,-32.22656,-55.66406,-0.0177198042967228,-0.1136462415789847,0.0181194846954295,4.65,26.7,33.9,52.73438,-5.85937,1013.18359,-0.0391699008037331,-0.0303767574992605,-0.0427671989250186,66.45,4.65,88.8,-866.69922,14.16016,499.02344,0.0772741035661985,-0.0147886983509235,-0.0901975685455157,56.4,21.15,16.95
-970.70312,-27.34375,-49.80469,-0.0442327518979182,-0.0706125308771865,-0.0101255276554451,3.75,27.3,33.15,43.94531,-17.57813,1019.04297,-0.0085268060606182,0.0197182062902563,-0.0671485759107534,67.05,4.05,88.95,-878.90625,6.83594,525.39062,0.0539585991546566,-0.0099923590335179,-0.0776737839649052,58.35,20.7,16.8
-975.58594,-13.18359,-66.40625,-0.0282450123508746,-0.1257703457608885,0.1000565844241813,4.2,25.8,35.55,37.10938,-6.83594,1025.39063,-0.0588882816269146,-0.022382800459276,-0.0253139064050753,66.3,4.5,87.6,-873.53516,-11.23047,513.18359,-0.0330413516682802,0.0058622118915985,-0.0976585020319411,55.5,21.45,16.5
-976.5625,-19.04297,-59.08203,-0.0398360929792193,-0.1048529237415869,-0.0006661921754862,4.2,25.5,33.75,28.32031,-19.04297,1013.18359,-0.0230489926347623,-0.0171867807431637,0.022382800459276,66.9,4.65,89.85,-877.92969,-19.04297,516.11328,0.0142556747973644,-0.0130566336012443,-0.0628850856139816,57.9,20.55,16.65
-1006.34766,-23.4375,-73.73047,-0.0999234158022541,-0.0310429496747467,0.0017320647496791,3.45,26.25,33.75,29.78516,-20.50781,1020.99609,-0.0646171503636608,-0.0369049870334201,-0.0069280844657914,66.9,4.65,89.85,-902.83203,-32.71484,516.11328,0.0091929982361045,0.0118575924051242,-0.0215834396618626,57.6,20.25,16.8
-1012.69531,-32.22656,-74.21875,-0.0933951862680945,-0.0350397536618137,-0.0253139064050753,3.45,26.25,33.75,28.32031,-29.29688,1048.33984,-0.0846018684306967,-0.0588882816269146,-0.0207840788644492,67.05,4.8,90.0,-906.25,-40.03906,526.36719,0.0195850376683291,-0.0475635382424242,-0.0448989440734045,55.65,20.85,16.65
-1029.78516,-20.50781,-68.35938,-0.0097258472567384,-0.0909969293429291,-0.0263797789792682,3.45,25.5,34.8,31.73828,-24.41406,1038.57422,-0.1330979360924615,-0.0003996803987067,-0.0191853572696224,66.15,4.65,90.6,-904.29687,-28.80859,521.97266,0.0041301471419193,-0.0732771250462063,-0.0532925815120956,57.0,21.0,17.55
-1014.64844,-13.67187,-51.26953,-0.1095160944370653,-0.0727442760255724,-0.1039203943222463,5.55,26.55,34.5,34.66797,-39.0625,1047.36328,-0.0932618431132422,-0.0762082309920056,-0.0263797789792682,66.9,4.65,90.6,-918.45703,-26.85547,530.76172,0.0492956029921034,-0.1000565844241813,-0.0911300979648563,57.0,21.0,17.55
-1004.39453,-32.71484,-65.42969,-0.1069846688899728,-0.0595542992694757,-0.0510274932088574,3.6,27.15,34.65,41.01563,-29.78516,1052.24609,-0.0410353087082646,-0.0762082309920056,-0.060753514998521,66.9,4.65,90.6,-871.09375,-10.25391,503.90625,0.0862005900255235,-0.1079173728422385,-0.0365053066347134,56.55,18.75,15.75
-998.53516,-40.52734,-60.05859,-0.0374380105869791,-0.1292343007273217,-0.064750318985588,4.65,26.7,36.0,20.99609,-19.53125,1000.97656,-0.0732771250462063,-0.0790061683158777,-0.0526263893366094,67.2,4.65,89.1,-851.5625,-5.37109,486.81641,0.1096492630589925,-0.0610198522423753,-0.0233155044115418,56.55,18.75,15.75
-1004.88281,-58.10547,-59.08203,-0.0682144484849463,-0.1217733672408963,-0.0331745202902074,4.65,26.7,36.0,20.01953,-61.52344,1022.46094,-0.0499617951675896,-0.0780734643636119,-0.0431668793237253,66.45,4.65,90.6,-863.76953,31.25,467.77344,0.0980581824306478,-0.0624854052152749,-0.0293108849250675,57.6,20.7,17.1
-1035.64453,-57.12891,-71.77734,-0.0722112524720134,-0.0896645449919567,-0.1088499022615791,3.75,27.0,35.55,30.27344,-44.92188,990.23437,-0.0405022851547056,-0.0086599746825454,-0.0185191650941362,66.15,4.2,89.55,-864.74609,62.5,460.9375,0.070346019100407,-0.0660827033365605,-0.0840688448771376,57.15,20.1,17.4
-1028.80859,-56.15234,-68.35938,-0.0153215473715574,-0.1358958734163337,-0.002264913770313,4.35,25.65,35.4,12.69531,-32.71484,978.02734,0.0094593354799588,0.013456313999951,-0.045165455850184,66.15,4.2,89.55,-882.32422,87.40234,478.51562,0.0059953805135257,-0.0307764378979672,-0.0527595579585365,57.0,20.25,17.1
-1028.80859,-76.17188,-69.33594,-0.0815375938629702,-0.1008561197545199,-0.0712787230526728,4.35,26.1,35.7,8.30078,-19.53125,1008.78906,-0.0019984019935335,0.0247810573844414,-0.0050628510941851,66.45,3.9,90.3,-880.37109,53.22266,434.57031,-0.0495619402359577,-0.0945942274642146,-0.0311761182966739,56.25,19.5,16.5
-1015.13672,-69.33594,-56.15234,-0.0309096065198943,-0.1065849884912661,-0.077540615342978,4.05,27.45,33.9,8.30078,-13.67187,1028.32031,-0.0482297304179105,0.0115910806283447,-0.0482297304179105,65.55,4.05,88.65,-891.11328,53.22266,447.75391,-0.1011224569983742,-0.0635512777894679,-0.0698131700797731,56.1,19.35,15.9
-1008.30078,-56.64063,-43.94531,0.0195850376683291,-0.1196416220925105,-0.0029311059457992,4.05,27.45,33.9,2.44141,-2.44141,1001.95312,-0.004529827540626,0.0492956029921034,0.0126569532025376,66.45,5.4,89.85,-896.97266,39.55078,459.47266,-0.0850015488294034,-0.0664823837352672,-0.0486294108166172,57.6,21.45,17.55
-995.60547,-57.12891,-58.59375,0.0219831200605693,-0.0343737360192527,-0.0794058487145844,4.05,27.45,33.9,-3.90625,-17.08984,980.46875,-0.0254472495599277,0.016787100344457,-0.0667488955120467,66.45,5.4,89.85,-898.92578,17.08984,451.17187,-0.1402925323350325,-0.0233155044115418,-0.0217166082837898,57.6,21.45,17.55
-982.42187,-63.47656,-55.17578,-0.0187856768709157,-0.042900542079871,-0.0731439564242791,4.65,26.4,34.95,2.44141,-21.48438,985.35156,-0.0177198042967228,0.0322419908708668,-0.0159877395470436,66.75,4.05,88.95,-892.08984,20.99609,460.9375,-0.1237717692344298,-0.050761155965003,-0.0255804181818548,57.6,21.45,17.55
-988.28125,-51.26953,-73.24219,-0.0026645941690197,-0.0458314734927451,-0.0277121633302407,5.1,26.4,36.0,-5.37109,-35.64453,998.53516,-0.0327748398915007,0.0178529729186499,0.0394364125805126,66.0,3.0,89.7,-884.76562,23.4375,471.67969,-0.152283293362084,-0.0666155523571943,-0.0243813769857347,57.6,20.7,17.55
-971.19141,-56.64063,-68.35938,-0.0197182062902563,0.0157212277702641,-0.0349065850398865,4.2,25.8,34.8,11.71875,-48.33984,1009.76562,-0.0029311059457992,0.0137228257767306,0.0141225061754373,67.05,3.75,89.4,-879.88281,27.34375,482.91016,-0.1460214010717788,-0.1145789455312505,-0.0560903443030425,56.4,20.55,15.9
-984.375,-63.96484,-65.91797,0.0083936374386911,0.0397029243572922,-0.0003996803987067,5.1,26.1,33.6,2.92969,-38.08594,999.51172,0.0275788201753884,0.0365053066347134,0.0027979373238721,67.05,3.75,89.4,-871.09375,19.53125,503.41797,-0.1417580853079322,-0.0979250138087206,-0.0415681577288985,57.3,20.25,16.8
-993.65234,-70.3125,-59.57031,0.0778071271197576,0.0307764378979672,-0.0488959225933967,5.1,26.1,33.6,6.34766,-8.30078,1019.04297,0.1279019163763492,0.0179861415405771,0.0390367321818059,66.45,4.2,89.55,-879.39453,19.04297,508.30078,-0.1513507639427435,-0.0895313763700295,0.0075941021083525,56.55,20.25,16.8
-1004.39453,-72.26563,-69.33594,0.0538254305327295,-0.0129234649793172,-0.0650168307623675,4.65,26.4,34.95,30.27344,13.18359,1022.94922,0.1713353074768541,0.0122572728038309,0.0381042027624654,66.75,4.8,90.0,-886.23047,8.78906,499.02344,-0.1314992144976347,-0.0961929490590414,0.0209172474863764,58.35,19.5,17.55
-1001.46484,-72.75391,-63.47656,0.0294440535469947,0.0163874199457503,-0.0834028272345766,5.1,26.4,34.95,47.85156,13.67187,1048.33984,0.059154618870769,0.0398360929792193,0.0434333911005048,66.75,4.8,90.0,-875.0,3.90625,509.27734,-0.1624088210175291,-0.0406354537766327,0.0065284040670847,57.0,19.5,15.0
-1012.69531,-74.70703,-69.82422,0.0567565364785288,-0.0554241521275563,-0.0619525561946411,4.65,26.7,36.0,34.66797,19.53125,1035.15625,0.0691469779042869,-0.0042633157638465,0.0298437339457014,65.55,4.8,90.45,-852.05078,-14.64844,524.90234,-0.1577458248549758,-0.057422728654015,0.0165205885676775,57.0,19.5,15.0
-1026.36719,-67.87109,-68.84766,0.0889985273493956,-0.0079939570399844,0.0471638578437175,5.4,26.4,34.65,41.50391,9.27734,1057.12891,0.0576890658978693,0.0684807857288007,0.0917962901403425,67.05,4.05,89.4,-854.49219,-8.78906,488.28125,-0.1291011321053945,-0.0325085026476463,0.0135896571548034,57.45,19.8,16.65
-1043.94531,-61.03516,-59.57031,-0.0222496318373489,-0.023981696587028,-0.0386370517830992,5.4,26.4,34.65,43.94531,4.39453,1016.11328,0.0043966589186989,0.0722112524720134,0.1374945950111605,66.9,3.9,90.3,-857.91016,-20.01953,509.76562,-0.1083170532409452,-0.0233155044115418,-0.046897346066938,57.45,19.8,16.65
-1044.92188,-61.03516,-44.43359,0.0438330714992115,-0.0699463387017003,-0.0005328490206338,4.95,26.25,34.8,37.59766,-18.06641,1008.78906,0.0082602942838387,0.0756753819713717,0.1301670046795875,66.9,3.9,90.3,-855.46875,-22.46094,477.05078,-0.049162259837251,-0.0194516945134768,-0.002264913770313,56.7,19.8,17.7
-1039.0625,-40.52734,-60.54688,-0.0073277648644981,-0.1045865864977326,0.0447657754514773,5.55,26.55,34.8,20.99609,-24.41406,994.62891,-0.0283781809728018,0.0612863640191548,0.1084502218628724,67.2,6.6,90.9,-847.65625,-19.04297,456.54297,-0.1117810082073784,-0.0119907610270514,0.0470306892217904,57.45,19.05,16.65
-1035.15625,-62.5,-50.29297,-0.0419678381276052,-0.1193751103157309,-0.0254472495599277,5.55,25.05,34.8,20.01953,-41.01563,968.75,-0.043566559722432,0.0965926294577481,0.1021883295725672,66.75,4.8,90.0,-870.60547,-20.99609,464.35547,-0.1025880099712739,-0.0222496318373489,-0.0225161436141284,58.2,19.35,18.0
-1034.66797,-59.08203,-46.38672,-0.018385996472209,-0.1092495826602858,0.0029311059457992,4.95,26.55,35.55,9.76562,-37.10938,965.82031,-0.0038636353651398,0.1438898304563181,0.0766079113907123,66.75,2.55,90.45,-877.44141,-27.34375,481.44531,-0.1105819670112583,-0.041301645952119,0.0452986244721112,57.45,20.1,17.7
-996.58203,-50.29297,-28.80859,-0.0586217698501351,-0.1476202971995308,0.0182526533173567,4.95,26.55,35.55,9.76562,-66.40625,991.69922,0.0462311538914518,0.1488193383956508,0.1055191159170731,67.65,3.45,90.9,-882.32422,-23.92578,486.81641,-0.1785299037194251,-0.0285115241276541,-0.0634181091675407,57.45,20.1,17.7
-1002.44141,-41.01563,-35.15625,-0.0587549384720623,-0.0780734643636119,0.0129234649793172,5.4,26.1,34.35,5.37109,-43.45703,996.58203,0.1193751103157309,0.2512741797449976,0.0474303696204971,66.9,5.7,90.3,-885.74219,-18.55469,494.62891,-0.1732005408484604,0.0237151848102485,-0.0155880591483369,57.6,19.95,16.8
-979.00391,-40.52734,-26.85547,-0.0430337107017981,-0.0767412545455646,-0.0171867807431637,5.25,25.8,35.25,6.34766,-22.94922,1031.25,0.1540153581117632,0.2198315496715442,0.0595542992694757,67.35,6.3,89.7,-909.17969,-5.37109,496.09375,-0.161209779821409,0.0083936374386911,-0.0143890179522168,57.6,19.95,16.8
-983.88672,-41.01563,-29.78516,-0.086467101802303,0.0023980823922402,0.046897346066938,6.3,27.0,34.5,-18.06641,-16.60156,1060.05859,0.1316323831195619,0.1989143021851677,0.0534257501340228,67.35,6.3,89.7,-904.29687,-35.64453,529.78516,-0.1177763887209041,0.0317089673173077,-0.0217166082837898,57.0,19.95,18.15
-1002.44141,-44.92188,-17.57813,-0.091529778363563,0.0279785005740951,-0.0474303696204971,5.55,28.05,34.5,20.99609,-8.78906,1034.66797,0.0738101485997654,0.1225727280383097,0.1077840296873862,67.65,4.65,90.3,-884.76562,-28.80859,540.52734,-0.1360290420382608,-0.0758085505932989,-0.0330413516682802,57.9,19.35,18.45
-1002.44141,-62.01172,-36.62109,-0.0936615235119489,0.04849624219469,-0.0430337107017981,5.55,28.05,34.5,18.55469,0.48828,1036.62109,0.0158545709251164,0.080871401687484,0.0943277156874351,66.75,4.05,89.7,-884.27734,-24.41406,513.18359,-0.1436233186795386,-0.0178529729186499,0.0026645941690197,57.0,20.25,16.5
-1019.04297,-59.57031,-33.69141,-0.0438330714992115,-0.0299770771005538,-0.0197182062902563,4.2,27.3,35.25,26.36719,-40.52734,1049.80469,0.0119907610270514,0.0571562168772355,0.1231057515918688,67.05,3.0,90.0,-892.08984,-46.38672,529.78516,-0.103787051167394,-0.0391699008037331,0.0377045223637587,56.7,19.35,18.0
-1028.32031,-63.47656,-46.38672,-0.0579555776746489,0.0612863640191548,-0.0339738810876208,4.2,27.0,36.3,32.71484,-57.12891,1014.64844,-0.0271791397766816,0.0779402957416847,0.0803383781339249,67.05,3.0,90.0,-875.0,-43.45703,510.25391,-0.1624088210175291,-0.0023980823922402,0.0347734164179594,57.15,20.1,18.75
-1028.32031,-54.19922,-38.57422,-0.0759418937481512,0.0154548905264097,0.015055210127703,5.1,25.35,34.35,22.46094,-76.17188,1008.30078,-0.0542251109314362,0.068614128883653,0.0623522365933478,67.2,5.4,89.1,-860.35156,-72.26563,507.8125,-0.0790061683158777,-0.018385996472209,0.0238483534321757,57.15,19.8,16.65
-1011.71875,-31.73828,-43.45703,-0.0270459711547545,-0.0411684773301918,0.0526263893366094,3.3,27.45,35.4,29.29688,-93.26172,995.60547,0.0219831200605693,0.0972588216332344,0.067015232755901,66.0,6.0,90.75,-860.83984,-48.33984,535.15625,-0.0968591412345277,-0.0403691165327784,0.0538254305327295,57.15,19.8,16.65
-1014.16016,-55.66406,-42.96875,-0.0655498543159266,-0.0177198042967228,-0.0373046674321268,3.3,27.45,35.4,30.27344,-49.80469,1009.27734,0.0660827033365605,0.1354961930176269,0.0338407124656936,68.55,4.5,88.35,-847.65625,-62.98828,511.71875,-0.0590214502488418,-0.0460979852695246,-0.0151883787496302,58.35,19.8,16.65
-996.58203,-64.94141,-45.41016,-0.0714118916745999,0.0095926786348112,-0.0374380105869791,4.95,25.8,35.25,41.99219,-44.92188,1042.96875,0.0241148652089552,0.114312433754471,0.0389035635598788,66.75,5.55,89.7,-865.23437,-53.22266,529.78516,-0.0571562168772355,0.0113245688515652,0.0635512777894679,58.35,21.0,17.55
-998.53516,-65.91797,-34.17969,-0.0407687969314851,-0.0254472495599277,0.0050628510941851,4.95,27.3,35.55,43.45703,-29.29688,1023.92578,0.0559571756811154,0.0999234158022541,0.031309286918601,67.95,5.7,90.6,-874.02344,-28.80859,542.48047,-0.0149218669728507,0.0103920394322246,0.0331745202902074,57.9,20.55,15.9
-1004.39453,-74.70703,-28.32031,-0.0727442760255724,0.0071944217096458,-0.0476967068643514,5.1,26.4,35.4,23.4375,-18.06641,1031.25,-0.0182526533173567,0.1284349399299083,0.04849624219469,68.25,5.7,89.1,-886.23047,-40.03906,536.13281,-0.0588882816269146,-0.0631515973907612,0.0763415741468579,57.45,19.05,17.4
-1009.76562,-70.80078,-24.90234,0.0059953805135257,0.0339738810876208,-0.0885988469506889,4.65,26.7,35.4,21.97266,-42.96875,1039.0625,-0.0101255276554451,0.0851347174513306,0.0604870032217414,68.25,5.7,89.1,-890.13672,-36.62109,549.31641,-0.0632847660126884,0.0075941021083525,0.0214502710399355,57.6,20.25,17.55
-1016.11328,-66.40625,-27.34375,0.039569755735365,0.0126569532025376,-0.0616860444178615,4.65,26.7,35.4,42.96875,-46.875,1043.94531,-0.0093261668580317,0.0820704428836041,0.0988575432280612,67.35,3.0,90.0,-869.14062,-53.71094,531.25,-0.1175098769441246,0.0299770771005538,0.0090596550812521,56.4,19.8,18.45
-1018.06641,-58.59375,-25.39063,0.011191400229638,-0.0215834396618626,-0.0908637607210019,4.2,26.25,35.85,48.33984,-62.98828,1036.13281,0.0245145456076619,0.0854012292281101,0.0936615235119489,68.7,5.4,89.1,-849.12109,-71.28906,522.94922,-0.0498284520127373,0.0583552580733556,0.0879326547752027,57.3,19.95,17.1
-1014.16016,-59.08203,-20.01953,0.006128723668378,-0.0089264864593249,-0.0854012292281101,4.35,26.4,34.65,45.41016,-81.54297,1011.23047,-0.0397029243572922,0.1035207139235396,0.0365053066347134,66.45,4.95,89.1,-859.375,-64.45313,543.45703,-0.0147886983509235,0.1031210335248329,0.0716784034513795,57.3,19.95,17.1
-1007.32422,-47.36328,-13.67187,0.0349065850398865,-0.0474303696204971,-0.0655498543159266,4.95,27.75,35.25,54.19922,-74.21875,1005.37109,-0.0278453319521679,0.0836691644784309,0.0552909835056291,66.45,4.95,89.1,-853.02734,-51.26953,516.11328,-0.0139893375535101,0.1061853080925594,0.1229724084370164,58.5,21.15,18.45
-1001.46484,-59.08203,-17.57813,0.0034639549664331,-0.0355727772153728,-0.037970859607613,5.25,26.25,34.5,43.45703,-58.59375,1000.0,0.0250473946282958,0.0840688448771376,0.0483628990398376,66.45,4.95,89.1,-847.16797,-49.31641,547.36328,0.0185191650941362,0.091529778363563,0.1637412053685016,58.5,21.15,18.45
-1015.13672,-60.05859,-24.90234,0.037970859607613,-0.0811377389313384,0.0456983048708179,5.25,26.25,34.5,40.52734,-56.64063,1034.17969,0.0067947413109391,0.0534257501340228,0.0572893854991626,69.0,5.4,89.55,-864.25781,-31.73828,546.875,0.0173201238980161,0.0839356762552105,0.1316323831195619,56.25,21.0,16.5
-1005.85937,-57.61719,-13.18359,0.0123904414257581,-0.0908637607210019,0.0390367321818059,5.55,25.5,34.5,29.78516,-26.36719,1036.62109,0.0019984019935335,0.1153783063286639,-0.0130566336012443,68.55,6.0,88.95,-854.98047,-31.25,542.96875,0.0106585512090041,0.0796723604913639,0.1145789455312505,58.05,19.95,17.1
-994.62891,-68.84766,-7.32422,0.0804717212887773,-0.0269126279999021,0.0334410320669869,5.1,25.35,35.4,19.04297,-19.53125,1024.90234,0.0059953805135257,0.0885988469506889,-0.0117244237831971,68.7,4.2,88.05,-873.53516,-25.87891,542.48047,0.0403691165327784,0.0941945470655079,0.0743429976203992,57.9,20.55,16.65
-1006.83594,-81.05469,-15.625,0.0278453319521679,-0.0155880591483369,-0.015055210127703,4.35,26.4,34.35,15.13672,-37.10938,1024.90234,0.0002665117767795,0.0556906639043358,0.0114579120064175,67.95,5.7,89.85,-870.60547,-23.4375,546.38672,0.0377045223637587,0.0816707624848974,0.0611531953972277,57.15,20.85,16.95
-988.28125,-60.54688,-4.39453,0.0908637607210019,-0.036238969390859,-0.0230489926347623,4.5,25.5,35.55,28.32031,-22.94922,1015.625,0.0298437339457014,0.0666155523571943,-0.0031976177225788,68.55,6.75,89.7,-882.32422,-13.18359,545.41016,0.0520933657830503,0.1533491659362769,0.1100489434576992,57.3,20.25,18.15
-986.32812,-60.05859,-11.23047,0.094860564708069,-0.0041301471419193,-0.0057288687367461,4.5,25.5,35.55,31.73828,-36.62109,1021.48437,0.0337075438437664,0.0389035635598788,-0.0013323843509724,66.45,5.7,89.85,-884.76562,-1.46484,547.85156,0.0409019655534123,0.1291011321053945,0.0531592383572432,57.45,21.15,18.45
-997.55859,-63.96484,-1.46484,0.0735436368229858,0.0371714988101996,-0.023981696587028,4.5,25.5,35.55,37.59766,-25.39063,1022.94922,0.036238969390859,0.0237151848102485,0.0514271736075641,66.45,5.7,89.85,-856.44531,-4.88281,525.87891,0.0531592383572432,0.1228392398150893,0.0684807857288007,57.45,21.15,18.45
-978.02734,-51.26953,-8.30078,0.0480965617959833,0.0305099261211876,-0.0141225061754373,4.5,26.25,35.25,42.96875,-10.25391,1012.69531,0.0414349891069713,-0.05475795995207,-0.0046631706954784,67.8,5.55,88.95,-846.19141,-5.85937,543.94531,0.0655498543159266,0.1425574461053456,0.0929953313364626,57.3,21.75,17.55
-977.53906,-35.15625,-20.50781,0.077540615342978,-0.0143890179522168,0.0754088701945922,4.65,25.35,36.0,31.25,7.32422,1008.30078,0.0231821612566894,-0.0065284040670847,0.0711455544307456,68.1,5.55,89.4,-844.72656,-27.83203,545.41016,-0.0113245688515652,0.1417580853079322,0.0952604196397009,59.1,21.45,16.8
-976.07422,-20.99609,-18.55469,0.0139893375535101,0.0105252080541518,0.0253139064050753,4.95,25.05,36.3,19.53125,-3.41797,1003.41797,-0.0351730968166661,-0.0006661921754862,0.0171867807431637,68.1,6.0,89.4,-839.84375,-16.60156,537.10937,-0.0010658725741929,0.1909203451451833,0.0985910314512816,58.35,20.25,16.05
-977.05078,-40.03906,-17.08984,0.0347734164179594,0.0253139064050753,0.0147886983509235,4.95,25.05,36.3,21.48438,-4.88281,1000.0,-0.014522186574144,-0.0035972981212855,0.0600873228230347,68.1,6.0,89.4,-874.02344,-42.96875,541.50391,-0.0325085026476463,0.19132002554389,0.0739433172216925,56.55,20.7,17.1
-983.39844,-29.29688,-18.55469,0.0109248884528585,-0.0127901218244648,-0.0141225061754373,4.95,25.05,36.3,31.25,-13.67187,1024.90234,-0.0295773967018471,-0.0648836621404404,0.0639509581881746,66.9,5.4,90.3,-866.21094,-31.73828,513.67187,-0.0820704428836041,0.1265697065583019,0.0567565364785288,57.6,21.45,15.75
-986.32812,-28.32031,-21.97266,-0.0283781809728018,0.0311761182966739,-0.0359724576140795,6.15,26.1,34.65,20.01953,-19.53125,1013.18359,-0.0510274932088574,-0.0006661921754862,0.0297105653237742,67.05,4.8,88.65,-860.83984,-34.66797,505.85937,-0.0113245688515652,0.1666723113143009,0.0650168307623675,56.7,20.55,16.65
-981.93359,-43.94531,-36.62109,0.0422343499043847,0.0038636353651398,0.0382373713843925,5.7,25.35,35.7,23.4375,-35.15625,1032.71484,-0.086467101802303,-0.0784731447623186,0.0933951862680945,67.05,4.8,88.65,-888.18359,-17.57813,518.06641,-0.0285115241276541,0.1107151356331855,0.0238483534321757,56.7,20.55,16.65
-980.46875,-47.36328,-34.17969,0.032375159492794,-0.0191853572696224,0.0091929982361045,4.95,25.5,34.2,8.78906,-33.20313,1014.64844,-0.1009892883764471,-0.0631515973907612,0.0943277156874351,68.1,4.5,89.4,-875.0,-12.69531,487.30469,-0.0157212277702641,0.0791393369378048,0.014522186574144,58.5,20.55,17.7
-970.21484,-71.77734,-38.08594,-0.0099923590335179,0.0410353087082646,-0.0455651362488907,4.95,25.5,34.2,18.55469,-36.62109,1005.37109,-0.0695466583029936,-0.0293108849250675,0.0575558972759422,67.8,5.55,90.45,-879.88281,6.34766,526.36719,-0.0119907610270514,0.1189754299170242,0.0508943245869302,58.5,20.55,17.7
-968.26172,-70.3125,-42.96875,0.0393032439585855,0.020117886688963,0.0294440535469947,4.95,25.5,34.2,22.46094,-38.57422,1010.25391,-0.0281118437289474,-0.0735436368229858,0.0391699008037331,68.55,5.25,88.95,-892.08984,-0.48828,528.80859,-0.0702128504784798,0.1040535629441735,0.063018428768834,58.5,20.55,17.7
-969.23828,-78.125,-58.10547,0.0572893854991626,0.03064326927604,0.0253139064050753,5.4,25.35,34.95,16.60156,-37.59766,1032.22656,0.0073277648644981,-0.0724777642487929,0.0599539796681824,68.55,5.25,88.95,-876.46484,7.8125,506.83594,-0.0526263893366094,0.1216401986189692,0.1057856276938527,58.5,21.15,16.65
-973.14453,-57.61719,-66.40625,0.0658161915597809,0.0446324322966249,-0.0322419908708668,6.0,25.8,36.3,27.83203,-33.20313,1003.90625,0.0059953805135257,-0.0668820641339739,0.0069280844657914,68.1,4.5,88.65,-867.67578,18.06641,511.71875,-0.0282450123508746,0.1119141768293056,0.1099157748357721,57.45,20.85,15.9
-1025.39063,-53.71094,-77.14844,0.0550244717288496,0.0430337107017981,0.016787100344457,4.65,24.9,34.65,10.25391,-13.67187,1030.27344,0.0237151848102485,-0.080871401687484,0.0221164632154217,68.55,5.25,90.45,-894.04297,2.92969,486.32812,-0.0059953805135257,0.0784731447623186,0.0812710820861907,58.05,21.0,16.8
-1037.10938,-43.94531,-87.40234,0.0940612039106556,0.0499617951675896,0.0258469299586344,4.65,24.9,34.65,-5.37109,-1.46484,1045.41016,0.0023980823922402,-0.0676814249313873,0.0365053066347134,66.9,4.95,89.1,-889.16016,10.25391,489.25781,-0.0218499514386422,0.0952604196397009,0.0816707624848974,58.2,21.6,16.65
-1046.875,-44.92188,-76.66016,0.0217166082837898,-0.0293108849250675,0.002264913770313,5.4,27.15,34.65,-24.90234,8.30078,1031.73828,0.0075941021083525,-0.0093261668580317,0.0381042027624654,67.2,4.65,90.3,-895.50781,6.83594,479.49219,-0.0126569532025376,0.1063184767144865,0.0646171503636608,58.2,21.6,16.65
-1029.78516,-38.57422,-81.05469,0.0186523337160634,-0.0138559943986577,0.032375159492794,4.65,26.4,34.95,-1.46484,8.78906,1040.03906,0.022382800459276,0.0191853572696224,0.0615528757959344,67.2,4.65,88.5,-891.60156,32.22656,480.46875,-0.0483628990398376,0.0941945470655079,0.0472970264656447,58.05,22.2,16.05
-1015.13672,-36.13281,-77.63672,0.0261132672024887,-0.0876661429984231,0.0455651362488907,5.1,26.1,36.0,12.20703,20.99609,1053.22266,0.0893982077481023,-0.0642174699649541,0.055823832526263,66.75,6.75,90.45,-901.85547,0.0,478.02734,-0.0528927265804637,0.1420244225517865,0.0488959225933967,58.05,22.2,16.05
-1004.39453,-37.59766,-64.45313,0.0246477142295891,-0.027312482931534,-0.0098591904115907,3.75,26.25,34.8,-0.48828,25.39063,1040.03906,0.0956601000384076,-0.0374380105869791,0.0285115241276541,66.75,6.75,90.45,-897.46094,12.20703,475.09766,-0.0546247913301429,0.2034441297257938,-0.0373046674321268,58.2,20.85,17.4
-1020.01953,-36.13281,-59.57031,0.0038636353651398,-0.0375711792089063,-0.0011990411961201,3.75,26.25,34.8,1.95312,42.48047,1025.87891,0.0955267568835552,-0.0582220894514284,0.087532974376496,68.1,4.8,90.0,-915.03906,-1.46484,491.69922,-0.0746095093971788,0.1292343007273217,-0.0539585991546566,58.2,23.1,17.4
-1039.0625,-31.25,-58.59375,0.0668820641339739,-0.0375711792089063,0.0576890658978693,6.0,26.25,35.85,-1.46484,-6.34766,1044.92188,0.1291011321053945,-0.0450321126953316,0.0371714988101996,68.25,5.4,88.5,-893.55469,-30.76172,457.51953,-0.0450321126953316,0.1003230962009608,-0.0042633157638465,59.7,21.15,16.95
-1043.94531,-25.87891,-66.89453,-0.0034639549664331,-0.055823832526263,-0.0263797789792682,5.1,26.7,36.0,-25.39063,58.10547,1017.08984,0.018385996472209,0.0174532925199432,0.0526263893366094,66.9,5.4,89.1,-912.59766,-37.59766,486.81641,0.0496952833908101,0.1011224569983742,-0.0255804181818548,56.25,21.45,16.05
-1046.38672,-7.8125,-63.96484,-0.041301645952119,-0.0535589187559499,-0.0013323843509724,5.4,25.65,34.65,20.01953,-46.38672,999.02344,0.0303767574992605,0.0546247913301429,0.0656830229378538,66.9,5.4,89.1,-902.83203,-49.80469,464.35547,0.0555574952824086,0.0262466103573411,0.0397029243572922,57.3,21.75,17.1
-1054.19922,-32.22656,-55.17578,-0.0351730968166661,-0.1013889687751538,0.0598208110462552,6.0,24.75,34.8,-15.13672,17.57813,999.02344,0.0393032439585855,0.0077274452632048,0.070346019100407,66.75,5.55,88.65,-895.99609,-47.85156,440.91797,0.1008561197545199,0.0317089673173077,0.0430337107017981,58.2,21.6,15.9
-1016.60156,-25.39063,-45.89844,-0.0783399761403914,-0.0884655037958365,-0.0194516945134768,6.0,24.75,34.8,-22.46094,-22.94922,984.375,-0.0258469299586344,-0.0182526533173567,0.098724374606134,66.3,4.5,90.75,-916.01562,-42.96875,445.80078,0.0307764378979672,-0.0127901218244648,-0.0431668793237253,58.2,21.6,15.9
-1011.23047,-39.0625,-40.03906,-0.077540615342978,-0.0819372742616769,-0.015055210127703,3.75,26.25,35.85,-11.23047,-21.48438,992.1875,-0.0720780838500862,0.0303767574992605,0.0683476171068735,66.9,4.95,89.85,-910.15625,-5.37109,453.125,0.0127901218244648,0.0314426300734534,-0.0021317451483858,56.7,19.8,16.2
-1003.41797,-42.96875,-34.66797,-0.0275788201753884,-0.0851347174513306,0.0322419908708668,4.5,26.55,35.25,-7.8125,-9.27734,1004.39453,0.0662158719584876,0.0600873228230347,0.0470306892217904,66.9,4.95,89.85,-905.76172,2.44141,452.63672,-0.0123904414257581,0.0050628510941851,-0.015055210127703,56.7,21.15,16.2
-1004.39453,-22.46094,-36.13281,-0.0403691165327784,-0.1227058966602369,-0.0003996803987067,4.95,27.0,34.2,-0.97656,-27.83203,1015.625,-0.0047963393174056,-0.0113245688515652,0.0675482563094601,67.65,4.2,89.85,-888.67187,0.97656,450.19531,-0.0066615726890119,-0.0482297304179105,-0.0351730968166661,57.0,21.45,15.75
-993.16406,-20.99609,-17.57813,-0.0759418937481512,0.0422343499043847,-0.0758085505932989,3.6,25.65,34.95,-3.90625,-32.71484,1002.44141,-0.0398360929792193,-0.0351730968166661,0.0840688448771376,68.25,5.4,89.1,-889.16016,5.85937,468.75,-0.0602204914449619,-0.0366386497895657,-0.0500949637895168,58.05,21.0,16.05
-979.49219,-24.90234,-22.46094,-0.0174532925199432,-0.0389035635598788,0.011191400229638,3.6,25.65,34.95,-4.39453,-50.29297,992.1875,-0.0187856768709157,0.0197182062902563,0.0211837592631559,68.1,6.3,89.7,-898.92578,-12.69531,476.07422,-0.0350397536618137,-0.050761155965003,-0.020117886688963,57.3,22.2,16.5
-970.21484,-20.99609,-15.13672,-0.0487625794385443,-0.0105252080541518,0.0142556747973644,5.25,25.8,34.8,-9.76562,-73.24219,1003.90625,0.0018652333716063,0.005595700114819,0.0186523337160634,68.1,6.3,89.7,-881.83594,-30.27344,472.16797,-0.0590214502488418,-0.0739433172216925,-0.0237151848102485,57.6,19.95,16.5
-964.35547,-24.41406,-22.94922,-0.1024548413493467,0.0230489926347623,0.089797888146809,5.1,26.4,36.0,-0.48828,-57.61719,987.79297,0.0271791397766816,0.0169204434993094,-0.0462311538914518,67.35,5.25,90.0,-878.90625,-51.75781,478.51562,-0.0349065850398865,-0.0161209081689708,-0.0113245688515652,57.6,19.95,16.5
-982.91016,-22.46094,-22.46094,-0.0698131700797731,0.0611531953972277,0.0656830229378538,6.15,23.85,34.95,3.41797,-31.73828,1011.71875,0.0195850376683291,0.0018652333716063,-0.042900542079871,67.8,6.3,90.0,-876.95312,-36.13281,512.20703,-0.0031976177225788,-0.050228132411444,0.0059953805135257,57.9,21.6,15.15
-985.35156,-28.80859,-25.87891,-0.0795390173365115,0.0862005900255235,0.1271025555789358,4.95,25.05,34.5,2.92969,-10.25391,1011.23047,0.0683476171068735,-0.0065284040670847,-0.0626187483701273,67.2,5.4,90.3,-900.87891,-43.45703,499.51172,0.0147886983509235,-0.0444992636746978,-0.0146553551960711,57.9,21.6,15.15
-993.65234,-11.23047,-11.71875,-0.0960597804371143,0.1605435876459228,0.0704793622552594,4.95,25.05,34.5,11.71875,7.8125,1026.85547,0.0522267089379027,0.0265129476011954,-0.1279019163763492,67.2,5.4,90.3,-898.4375,-35.15625,504.88281,0.0467641774450108,-0.0389035635598788,0.0242480338308824,57.9,21.6,15.15
-994.14062,-35.64453,-16.11328,-0.0409019655534123,0.0893982077481023,0.1071178375118999,4.5,25.05,36.3,28.32031,-4.39453,1033.20313,0.0215834396618626,0.0291777163031404,-0.0869999508229369,67.95,5.7,88.8,-873.53516,-25.39063,503.41797,0.0791393369378048,-0.0486294108166172,-0.0086599746825454,57.9,21.6,16.65
