IMU1_AccX,IMU1_AccY,IMU1_AccZ,IMU1_GyrX,IMU1_GyrY,IMU1_GyrZ,IMU1_MagX,IMU1_MagY,IMU1_MagZ,IMU2_AccX,IMU2_AccY,IMU2_AccZ,IMU2_GyrX,IMU2_GyrY,IMU2_GyrZ,IMU2_MagX,IMU2_MagY,IMU2_MagZ,IMU3_AccX,IMU3_AccY,IMU3_AccZ,IMU3_GyrX,IMU3_GyrY,IMU3_GyrZ,IMU3_MagX,IMU3_MagY,IMU3_MagZ
-933.59375,406.25,235.35156,-0.123238920213796,0.2478100502456393,0.1041869060990259,4.05,37.5,39.6,312.98828,13.18359,979.49219,0.0091929982361045,0.1067181571131932,0.2623322368197833,52.05,13.35,94.2,-564.94141,102.05078,869.14062,-0.3028345219744889,0.098724374606134,0.0333078634450597,50.25,25.65,38.4
-915.52734,392.08984,227.05078,-0.0707458740320389,0.187989239199384,0.1653399269633284,3.45,37.35,40.05,307.61719,31.73828,962.89062,0.1112481591867445,0.050228132411444,0.2600673230494703,51.6,13.2,93.3,-563.96484,95.70313,849.12109,-0.3209540066699184,0.1069846688899728,0.0594211306475485,50.1,25.5,37.95
-903.80859,394.53125,214.35547,-0.1111148160318922,0.2764547429952206,0.1240382810112094,4.05,36.0,39.6,292.48047,58.10547,964.84375,0.0438330714992115,0.0828698036810175,0.230356757725696,51.6,13.2,93.3,-546.38672,113.76953,892.08984,-0.2679279369346023,0.1175098769441246,0.0378376909856858,50.1,25.5,37.95
-910.15625,413.08594,214.35547,-0.1177763887209041,0.2892450393526107,0.1461547442266311,4.05,37.95,40.65,323.73047,58.10547,964.84375,0.0466310088230837,0.1163108357480045,0.1959831962393684,51.0,13.35,91.95,-554.19922,120.60547,906.25,-0.2955069316429159,0.1009892883764471,0.0566231933236764,51.45,26.7,38.4
-901.36719,424.31641,215.82031,-0.0634181091675407,0.2087733180638333,0.2466110090495192,3.45,37.65,39.45,352.05078,100.09766,1001.46484,0.0419678381276052,0.1225727280383097,0.2279586753334558,51.75,13.65,94.5,-539.0625,129.88281,893.55469,-0.2740566606029804,0.1191087730718766,-0.0106585512090041,51.9,26.25,40.05
-888.18359,392.08984,217.28516,-0.1179097318757565,0.2524732209411177,0.1858576685839233,3.45,37.65,39.45,385.74219,117.1875,1008.30078,-0.0098591904115907,0.1212403436873373,0.2458116482521058,52.05,12.6,94.2,-539.0625,128.90625,876.95312,-0.2669954075152617,0.1306998537002213,-0.0366386497895657,51.6,25.5,38.55
-902.34375,395.50781,199.70703,-0.0643506385868813,0.1953170040638822,0.167871352510421,3.6,39.0,38.55,372.07031,83.98438,1001.95312,-0.0258469299586344,0.0905972489442224,0.2443460952792061,52.05,11.85,95.55,-530.27344,120.11719,857.42187,-0.2603338348262498,0.1601439072472161,0.0274456515534612,51.45,26.7,40.2
-885.25391,397.94922,192.87109,-0.0347734164179594,0.2049096826986934,0.2224961438405639,2.55,39.3,38.85,352.53906,68.35938,950.19531,-0.0492956029921034,0.0896645449919567,0.266595727116555,52.05,13.35,94.8,-515.625,128.41797,862.79297,-0.2462113286508125,0.1694700741052478,0.018385996472209,51.45,26.7,40.2
-912.10937,435.54687,195.80078,-0.0159877395470436,0.1726676918278266,0.1396263401595463,3.6,38.55,40.65,341.30859,60.54688,932.12891,-0.0552909835056291,0.1063184767144865,0.3049662671228748,51.75,13.35,93.45,-517.57812,126.95313,859.375,-0.2391500755630938,0.2243613772121702,-0.0406354537766327,52.5,26.4,38.4
-888.18359,461.42578,197.26562,-0.0977916706538682,0.1919862177193762,0.2483430737991983,2.1,38.85,38.7,335.44922,25.87891,942.38281,-0.0261132672024887,0.1224395594163826,0.2141026809347979,51.75,13.35,93.45,-516.11328,123.04688,880.37109,-0.2027779375503076,0.2306232695024755,-0.0149218669728507,51.9,25.8,38.25
-905.27344,431.64062,195.3125,-0.0289112045263608,0.0804717212887773,0.2363521382392217,2.1,38.85,38.7,331.54297,12.69531,978.51562,-0.0381042027624654,0.2574027288804505,0.2717917468326674,51.75,13.35,93.45,-541.01562,109.86328,874.02344,-0.140026020558253,0.2578024092791572,-0.0017320647496791,52.05,26.4,38.4
-892.08984,440.42969,189.94141,-0.1041869060990259,0.1641408857672083,0.229290885151503,2.7,39.9,39.45,338.37891,26.36719,963.37891,-0.0151883787496302,0.1646737347878422,0.1680045211323481,52.2,13.5,93.3,-560.54687,62.5,858.39844,-0.069680001457846,0.2452787992314719,-0.0067947413109391,51.0,26.1,38.7
-878.90625,442.87109,189.94141,-0.0812710820861907,0.1680045211323481,0.2161010829283315,3.75,38.1,38.4,298.33984,-21.97266,966.79687,0.0277121633302407,0.1384272989634262,0.1986477904083882,52.95,12.0,93.6,-543.94531,68.35938,908.69141,-0.0271791397766816,0.2039769787464277,0.0038636353651398,51.0,24.6,38.4
-892.57812,456.54297,196.77734,-0.0460979852695246,0.1187090926731699,0.2683277918662342,2.25,39.3,39.15,296.38672,2.44141,959.96094,0.015055210127703,0.1621424837736748,0.2033109611038666,52.95,12.75,93.6,-565.91797,61.03516,841.79687,0.0235820161883213,0.2082404690431994,0.0425006871482391,51.0,24.15,36.6
-888.18359,451.17187,222.65625,-0.0285115241276541,0.1013889687751538,0.2701930252378405,1.5,38.55,38.1,289.55078,9.76562,951.66016,0.0604870032217414,0.1574793130781963,0.1448223598756587,52.5,13.35,94.2,-555.66406,109.375,869.14062,-0.0098591904115907,0.15561407970659,0.042900542079871,51.0,24.15,36.6
-868.65234,446.28906,219.72656,-0.0464976656682313,0.1121806886060851,0.1966493884148547,1.5,38.55,38.1,313.47656,19.53125,951.66016,0.0401026047559989,0.1649402465646217,0.1665389681594485,51.6,13.2,94.05,-549.80469,99.60938,877.44141,-0.0486294108166172,0.1592113778278755,0.0419678381276052,51.0,26.4,40.5
-858.39844,440.42969,215.33203,-0.0504946441882235,0.1016554805519333,0.279918872494579,2.1,37.35,37.65,316.40625,17.57813,931.15234,0.0795390173365115,0.1059187963157798,0.1372282577673061,52.05,13.65,94.8,-520.01953,103.02734,858.39844,-0.0095926786348112,0.1542816953556175,0.039569755735365,51.0,26.4,40.5
-823.73047,428.71094,229.98047,-0.0594211306475485,0.1289677889505422,0.2419480128869659,1.5,39.3,41.25,342.77344,47.36328,933.10547,0.0722112524720134,0.0795390173365115,0.0925956509377559,52.05,13.65,94.8,-506.34766,115.72266,897.46094,-0.0214502710399355,0.1075176924435318,0.0672817445326806,50.25,27.45,39.15
-829.10156,439.94141,260.74219,-0.0759418937481512,0.1958498530845161,0.1432236382808319,1.35,38.4,38.7,368.65234,53.22266,926.26953,0.1004564393558132,0.0977916706538682,0.1464210814704855,52.05,14.4,93.75,-513.18359,141.11328,863.28125,-0.0327748398915007,0.0991240550048407,0.0960597804371143,50.25,26.4,37.05
-817.87109,425.29297,252.92969,-0.016787100344457,0.1164441789028568,0.2038438101245005,1.2,39.3,38.7,379.39453,46.875,947.75391,0.0398360929792193,0.2167672751038177,0.1096492630589925,52.8,14.1,94.8,-496.09375,161.13281,876.46484,0.0161209081689708,0.0855343978500373,0.0070612530877186,51.15,26.55,36.45
-821.77734,429.19922,248.04687,-0.0217166082837898,0.1360290420382608,0.1871898784019706,1.2,39.3,39.6,374.02344,70.3125,909.17969,0.1317657262744143,0.0909969293429291,0.1128468807815713,52.8,12.6,93.45,-472.65625,178.71094,915.52734,-0.0542251109314362,0.0415681577288985,0.0702128504784798,52.5,25.65,38.4
-843.26172,458.98437,251.95312,-0.0342403928644003,0.1618759719968953,0.1381607871866467,1.2,39.3,39.6,392.57812,81.05469,938.96484,0.1096492630589925,0.1883889195980907,0.1135130729570576,51.75,12.9,95.25,-439.45312,167.48047,854.98047,-0.0687472975055802,0.1263031947815224,-0.0054625314928918,52.5,25.65,38.4
-847.16797,474.12109,236.81641,-0.0121241041819038,0.1357627047944065,0.1602772504020684,0.75,38.25,38.1,368.16406,94.72656,937.5,0.1280352595312016,0.3177565634802648,0.1484196579969441,53.1,14.4,93.45,-475.09766,152.83203,827.14844,-0.1060521394706322,0.2251607380095836,0.0389035635598788,51.45,26.7,38.1
-860.83984,481.44531,214.35547,-0.0227824808579827,0.0652833425391471,0.1677381838884938,1.05,40.35,37.65,354.49219,106.44531,904.29687,0.1546815502872494,0.2129034652057527,0.1847917960097304,52.05,14.1,94.2,-490.72266,112.79297,836.42578,-0.0892648645932499,0.172401180051047,0.0210505906412288,51.45,26.7,38.1
-862.30469,474.60937,210.9375,-0.0612863640191548,0.1584120170304621,0.1742664134226534,1.65,39.6,39.0,351.07422,98.14453,904.29687,0.0893982077481023,0.1444226794769519,0.1485528266188713,52.05,14.1,94.2,-491.69922,102.05078,825.19531,-0.0718115720733066,0.1716018192536337,0.0071944217096458,50.85,26.25,38.25
-860.83984,485.83984,211.42578,-0.0245145456076619,0.0939280352887284,0.1725345232058994,1.65,39.6,38.7,313.96484,77.63672,895.99609,0.0620857248165682,0.0880658233971298,0.1468207618691921,53.55,14.1,93.15,-500.97656,105.46875,881.83594,-0.0707458740320389,0.1152449631738115,-0.0241148652089552,51.45,26.4,37.65
-853.51562,470.70312,214.35547,-0.0555574952824086,0.1007227765996675,0.1396263401595463,1.65,39.6,38.7,320.80078,15.625,898.92578,-0.0013323843509724,0.082603291904238,0.1353630243956998,52.2,13.5,93.6,-496.09375,88.37891,812.5,-0.0494287716140306,0.0548913031069224,0.0668820641339739,51.45,26.4,37.65
-825.68359,474.12109,214.35547,-0.0321086477160144,0.0369049870334201,0.1124472003828646,1.65,39.15,39.75,319.82422,26.36719,905.27344,0.0381042027624654,0.0794058487145844,0.0784731447623186,52.2,13.95,92.25,-517.08984,93.75,860.35156,-0.0271791397766816,0.0991240550048407,0.0421010067495324,50.25,26.4,38.4
-784.17969,473.14453,191.40625,0.0029311059457992,0.0129234649793172,0.1937182824690554,1.2,38.55,37.8,328.125,11.23047,938.96484,0.0905972489442224,0.0714118916745999,0.1005896079777403,52.2,13.95,92.25,-534.17969,101.07422,863.28125,-0.0899310567687362,0.0559571756811154,0.0455651362488907,51.6,26.25,37.95
-781.25,463.37891,198.73047,-0.043566559722432,0.1207074946667034,0.1438898304563181,1.2,39.0,39.6,331.05469,21.97266,954.58984,0.0885988469506889,0.0650168307623675,0.0522267089379027,53.1,14.4,93.45,-530.27344,100.58594,826.17187,-0.0341072242424731,0.1167105161467112,0.0867336135790826,51.6,26.25,37.95
-843.26172,462.89062,210.44922,0.0002665117767795,0.1314992144976347,0.1167105161467112,1.2,40.5,39.6,312.5,50.78125,932.61719,0.0800720408900706,0.0335742006889141,0.0383705400063197,51.9,15.0,94.65,-540.03906,101.5625,869.62891,0.0151883787496302,0.0726111074036452,0.0851347174513306,52.5,26.1,38.7
-878.90625,467.28516,165.03906,0.057422728654015,0.0538254305327295,0.1801286253142519,1.2,40.5,39.6,301.26953,42.48047,931.64062,0.1208406632886305,0.0520933657830503,0.1017886491738605,51.9,15.0,94.65,-533.69141,111.81641,850.58594,0.0165205885676775,0.0357059458372999,0.0483628990398376,52.5,26.1,38.7
-833.98437,447.26562,158.69141,0.0442327518979182,0.0993905667816202,0.128834620328615,1.65,38.85,38.7,297.36328,45.89844,930.66406,0.0608866836204481,-0.0007993607974134,0.0221164632154217,51.15,14.25,93.3,-541.50391,117.1875,839.35547,0.037970859607613,0.0033307863445059,0.1077840296873862,52.35,25.8,37.5
-818.84766,448.73047,145.01953,0.0846018684306967,0.1196416220925105,0.0627519169920545,1.5,39.3,37.8,285.64453,44.43359,958.49609,0.0702128504784798,0.0213169278850831,0.039569755735365,53.4,13.5,93.3,-550.29297,103.51563,844.72656,0.0401026047559989,0.0488959225933967,0.0658161915597809,51.15,26.55,38.55
-798.82812,440.91797,177.24609,0.1809279861116653,0.0471638578437175,0.196915725658709,1.05,39.6,38.4,280.27344,42.96875,960.9375,0.089797888146809,-0.0283781809728018,0.0285115241276541,53.1,14.4,94.2,-565.42969,74.70703,822.75391,0.0421010067495324,0.0503614755662963,0.1147121141531777,51.15,27.3,37.5
-782.71484,438.47656,170.89844,0.2102388710367329,0.0921959705390492,0.2030444493270871,0.6,38.85,38.4,261.23047,36.13281,953.61328,0.0852680606061829,-0.0367718184114929,-0.0194516945134768,53.1,14.4,94.2,-581.54297,102.05078,853.51562,0.0171867807431637,-0.0091929982361045,0.0496952833908101,50.25,27.15,37.35
-813.96484,458.49609,153.32031,0.2556708386636965,0.1418912539298594,0.1320322380511938,0.6,38.85,38.4,264.64844,33.20313,976.07422,0.0623522365933478,-0.0804717212887773,-0.0166539317225298,54.75,13.5,93.3,-586.42578,83.49609,841.30859,0.0230489926347623,0.0305099261211876,0.0411684773301918,50.85,25.5,37.5
-858.88672,439.94141,152.83203,0.2747228527784666,0.0947273960861418,0.1937182824690554,1.2,40.5,38.1,255.85937,20.01953,975.09766,0.068614128883653,-0.0459648166475974,-0.0123904414257581,53.4,13.95,94.35,-590.82031,81.05469,865.23437,0.0339738810876208,-0.0178529729186499,0.0879326547752027,51.6,27.3,37.2
-873.04687,458.00781,149.90234,0.3334777912505289,0.0780734643636119,0.1802617939361791,0.3,38.1,36.9,265.13672,15.625,990.72266,0.0893982077481023,-0.0405022851547056,-0.0738101485997654,53.4,13.95,94.35,-592.77344,94.23828,862.79297,0.0963261176809686,-0.0710122112758932,0.085934078248744,51.6,27.3,37.2
-863.28125,445.3125,143.55469,0.2776539587242659,0.1428239578821251,0.1798621135374724,1.2,40.05,36.0,291.01562,50.78125,996.09375,0.1317657262744143,-0.0712787230526728,-0.0603538345998143,52.95,13.95,93.3,-588.37891,92.77344,836.42578,0.1245711300318432,-0.0632847660126884,0.0444992636746978,51.75,26.7,37.35
-887.20703,480.95703,151.85547,0.3887687747561581,0.0996569040254746,0.1793292645168386,1.2,40.05,37.8,310.05859,73.73047,978.02734,0.1113813278086717,-0.0866002704242302,-0.0802052095119978,52.05,15.15,93.15,-571.77734,110.83984,856.93359,0.1394931715376192,-0.0658161915597809,0.040235773377926,50.55,26.55,39.0
-909.66797,514.64844,154.29687,0.3555942544659507,0.0888651841945432,0.1882557509761635,1.2,40.05,37.8,316.89453,83.00781,979.98047,0.107650861065459,-0.0949939078629213,-0.0760750623700784,53.55,13.65,93.15,-569.33594,106.44531,844.72656,0.1478866344433851,-0.0816707624848974,0.0269126279999021,52.65,26.55,37.5
-903.32031,548.33984,147.94922,0.2964394610622565,0.0381042027624654,0.1492190187943576,2.1,39.6,37.65,291.01562,62.5,978.51562,0.0880658233971298,-0.1011224569983742,-0.0871332939777893,53.55,13.65,93.15,-558.10547,94.23828,826.66016,0.1743997565775057,-0.0227824808579827,0.0277121633302407,50.85,26.55,37.5
-878.41797,561.03516,141.11328,0.2869801255822976,-0.0463644970463041,0.2530060699617516,1.2,39.75,35.4,289.0625,46.875,979.00391,0.0928621627145355,-0.0303767574992605,-0.1502848913685505,53.55,13.65,93.15,-567.38281,94.23828,847.16797,0.1737335644020195,-0.0672817445326806,0.0085268060606182,51.0,26.4,37.65
-866.21094,570.3125,107.42188,0.2595344740288364,0.0455651362488907,0.2752557017991005,1.2,41.25,36.45,295.89844,65.42969,960.44922,0.1075176924435318,-0.0844685252758443,-0.1361623851931132,52.8,14.85,92.7,-565.42969,110.83984,798.33984,0.1596110582265822,-0.0464976656682313,-0.0074609334864253,51.0,26.4,37.05
-901.85547,609.86328,107.42188,0.1664057995375213,0.145621720673072,0.221430271266371,1.5,40.5,36.0,288.57422,73.73047,964.84375,0.0941945470655079,-0.0526263893366094,-0.1565467836588557,53.7,14.25,93.3,-579.58984,126.95313,824.70703,0.2370183304147079,-0.0478300500192038,-0.0135896571548034,51.0,26.4,37.05
-938.47656,616.21094,111.81641,0.1285681085518354,0.0266462907560478,0.2949739080893568,1.5,40.5,36.0,289.55078,91.79688,962.40234,0.0839356762552105,-0.0074609334864253,-0.1967825570367818,53.7,14.25,93.3,-569.82422,130.85937,828.61328,0.2243613772121702,-0.0776737839649052,-0.0073277648644981,51.6,27.75,39.0
-915.03906,605.95703,89.84375,0.1056524590719255,0.0747426780191059,0.2312894616779617,0.15,39.3,36.45,271.48437,90.33203,962.89062,0.0782068075184643,-0.0318423104721601,-0.1915865373206695,53.85,14.4,93.15,-581.54297,151.85547,781.73828,0.267661599690748,-0.002264913770313,0.0143890179522168,51.6,27.75,39.0
-893.06641,562.01172,123.53516,-0.0214502710399355,0.0552909835056291,0.1320322380511938,0.3,41.1,36.9,248.04687,96.67969,956.54297,0.0794058487145844,-0.023448673033469,-0.2119709357864121,53.55,14.4,93.75,-586.42578,149.41406,827.14844,0.2340872244689086,-0.0357059458372999,0.059154618870769,51.75,27.45,37.35
-880.85937,536.13281,114.74609,0.1017886491738605,-0.0041301471419193,0.1119141768293056,0.0,39.15,35.55,259.76562,106.44531,963.37891,0.0956601000384076,-0.0002665117767795,-0.1991806394290221,52.2,14.25,93.3,-583.00781,174.80469,816.89453,0.1775971997671594,-0.0450321126953316,-0.0015987215948268,52.05,26.4,38.4
-853.51562,522.94922,133.78906,0.0410353087082646,-0.0026645941690197,0.073676805444913,0.3,39.9,37.35,257.8125,104.00391,971.67969,0.0868667822010097,-0.0031976177225788,-0.2194318692728375,52.2,14.25,93.3,-589.84375,183.10547,775.87891,0.2149020417322114,-0.0386370517830992,-0.0038636353651398,52.05,26.4,38.4
-850.09766,509.76562,138.67187,0.0866002704242302,0.0331745202902074,0.0198513749121835,0.3,39.9,37.35,263.18359,109.375,983.39844,0.0219831200605693,-0.0175864611418704,-0.1743997565775057,55.2,14.25,92.85,-589.35547,154.78516,826.66016,0.2187656770973512,-0.0397029243572922,0.0029311059457992,51.75,27.9,36.6
-866.21094,503.90625,146.48437,0.1139127533557643,0.1225727280383097,-0.0043966589186989,0.0,39.6,36.6,270.99609,102.05078,977.05078,0.0988575432280612,-0.0595542992694757,-0.1552143993078833,51.75,14.85,93.75,-570.3125,171.38672,818.35937,0.2322219910973023,-0.0480965617959833,0.0245145456076619,51.45,28.2,38.1
-888.18359,529.78516,140.13672,0.1629418445710882,0.0911300979648563,0.0269126279999021,1.2,40.05,36.0,286.62109,105.95703,974.12109,0.0927289940926083,-0.0604870032217414,-0.218632508475424,53.1,15.15,93.45,-569.33594,182.61719,838.86719,0.2820506176429648,-0.0618192130397887,0.0113245688515652,51.45,28.2,38.1
-838.86719,525.39062,127.92969,0.0840688448771376,0.1179097318757565,-0.0552909835056291,0.0,40.35,37.35,292.96875,105.95703,984.86328,0.0772741035661985,-0.0301102457224809,-0.1917197059425967,51.75,14.1,93.45,-583.49609,187.01172,818.84766,0.2316891420766684,-0.0430337107017981,0.0279785005740951,51.75,27.45,37.35
-784.17969,554.19922,116.21094,0.0866002704242302,0.0559571756811154,-0.0980581824306478,0.0,40.35,37.35,288.08594,119.62891,983.39844,0.0812710820861907,-0.040235773377926,-0.2026447689283804,52.95,15.45,92.85,-586.42578,195.3125,810.05859,0.2468775208262987,-0.0616860444178615,0.0339738810876208,51.75,27.45,37.35
-797.85156,550.78125,128.41797,0.1469541050240445,0.1039203943222463,-0.0526263893366094,0.0,40.35,37.35,267.57812,126.46484,968.26172,0.1312327027208552,-0.0600873228230347,-0.1749326055981396,52.05,14.4,93.45,-582.03125,188.47656,876.95312,0.2833828274610121,-0.0905972489442224,-0.0030642745677264,50.85,28.5,37.2
-848.14453,556.64062,113.76953,0.0235820161883213,0.1358958734163337,-0.0756753819713717,0.0,40.35,37.35,291.01562,146.97266,968.75,0.107650861065459,-0.1179097318757565,-0.2026447689283804,52.05,14.4,93.45,-568.84766,196.77734,835.9375,0.2687274722649409,-0.0548913031069224,0.0399694361340717,51.15,27.75,37.5
-886.23047,549.31641,112.79297,-0.0077274452632048,0.2098391906380262,-0.1251041535854023,-1.2,39.0,37.5,312.5,166.01562,974.12109,0.0654165111610742,-0.1167105161467112,-0.201845408130967,53.7,13.95,95.1,-562.5,190.91797,845.21484,0.3060321396970677,-0.022382800459276,-0.0371714988101996,51.15,27.75,39.3
-916.01562,519.04297,133.78906,-0.0019984019935335,0.1396263401595463,-0.0583552580733556,0.6,39.9,36.6,319.82422,138.67187,960.44922,0.0632847660126884,-0.1249709849634751,-0.2021117453748213,52.95,15.75,93.6,-548.82812,211.91406,872.55859,0.2919096335216304,-0.0570230482553083,0.0289112045263608,50.55,27.75,37.2
-939.94141,506.34766,149.90234,0.0293108849250675,0.1176432200989769,-0.0666155523571943,1.2,39.0,36.45,320.3125,155.76172,965.82031,0.0406354537766327,-0.0488959225933967,-0.1783965605645728,52.95,13.95,93.3,-538.08594,206.54297,813.96484,0.3085635652441603,-0.0682144484849463,-0.0142556747973644,50.55,27.75,37.2
-921.875,505.85937,126.46484,0.0439662401211387,0.0163874199457503,-0.0259800985805615,1.2,39.0,36.45,311.03516,136.23047,959.96094,0.0564900247017492,-0.0695466583029936,-0.1934517706922759,52.2,14.7,93.6,-528.80859,210.9375,805.66406,0.3261500263860307,-0.0594211306475485,-0.0520933657830503,50.7,27.45,37.35
-906.25,534.17969,118.16406,0.0744763407752516,0.0385038831611721,-0.0153215473715574,-0.6,41.1,35.85,321.28906,150.39062,949.70703,0.0365053066347134,-0.0824701232823108,-0.1977150864561224,53.55,14.1,92.7,-535.15625,214.35547,843.26172,0.3349433442234286,-0.0618192130397887,-0.0291777163031404,50.7,27.45,37.35
-910.64453,562.5,127.92969,0.0041301471419193,0.1091164140383586,0.0194516945134768,0.0,37.35,35.85,324.21875,124.02344,931.15234,0.0646171503636608,-0.0706125308771865,-0.2238285281915364,54.6,14.4,93.45,-541.50391,216.79687,847.65625,0.3194884536970188,-0.0551578148837019,-0.0021317451483858,51.75,27.9,38.7
-864.74609,547.36328,155.76172,-0.0247810573844414,-0.0070612530877186,0.0027979373238721,0.75,39.0,36.75,311.03516,155.27344,928.71094,0.0963261176809686,-0.0595542992694757,-0.2174334672793039,54.6,14.4,93.45,-541.99219,225.09766,830.56641,0.2264931223605561,-0.0303767574992605,-0.0123904414257581,51.0,26.7,38.1
-853.02734,550.29297,173.33984,0.0035972981212855,0.0447657754514773,0.0221164632154217,0.3,39.6,35.55,312.5,159.66797,937.01172,0.0640843013430269,-0.0707458740320389,-0.1560137601052967,51.75,14.4,93.45,-531.25,230.95703,832.03125,0.2689938095087952,-0.0031976177225788,-0.0337075438437664,50.7,28.65,39.15
-822.75391,528.32031,170.89844,-0.0862005900255235,0.0868667822010097,-0.0350397536618137,0.3,39.6,35.55,324.21875,161.62109,959.47266,0.0566231933236764,-0.0758085505932989,-0.177330862523305,53.85,13.35,91.95,-543.94531,245.11719,841.79687,0.2867136138055181,0.023448673033469,-0.0766079113907123,51.9,27.3,38.55
-851.07422,530.76172,162.59766,-0.0905972489442224,0.1103154552344788,0.015055210127703,0.45,37.95,36.75,314.45312,164.0625,968.75,0.0594211306475485,-0.085934078248744,-0.1736002212471671,53.4,12.45,92.25,-547.36328,260.74219,858.88672,0.2631317721501219,-0.0191853572696224,-0.0277121633302407,51.15,28.05,38.25
-825.19531,541.99219,176.26953,-0.0366386497895657,0.0919296332951949,0.007860613885132,0.6,40.35,35.25,323.24219,163.08594,965.82031,0.0265129476011954,-0.110981647409965,-0.1793292645168386,52.5,14.4,93.75,-557.12891,236.32812,812.98828,0.2123706161851188,-0.0063950609122324,-0.0203843984657425,51.75,27.45,38.1
-852.05078,532.22656,171.38672,-0.0827366350590903,0.1520167815853045,-0.0286446927495813,0.15,39.3,35.4,307.12891,191.89453,974.60937,-0.0046631706954784,-0.0495619402359577,-0.184658452854878,52.8,14.1,93.45,-559.08203,250.0,817.87109,0.2230291673941229,-0.0394364125805126,-0.0779402957416847,51.75,27.45,38.1
-860.35156,509.27734,182.61719,-0.0534257501340228,0.1450888716524382,-0.0338407124656936,0.45,38.55,35.7,311.03516,209.47266,971.19141,-0.025713586803782,-0.0735436368229858,-0.1354961930176269,52.5,12.15,93.45,-561.03516,265.13672,858.88672,0.1269693869570086,-0.0242480338308824,-0.0695466583029936,50.7,27.9,37.35
-841.79687,516.60156,176.75781,0.0077274452632048,0.1498852109698438,0.0436999028772844,0.45,38.55,35.7,309.08203,176.75781,957.51953,-0.0603538345998143,-0.0971256530113072,-0.1470872736459717,52.5,12.15,93.45,-559.57031,266.11328,857.91016,0.1585451856523893,-0.0267794593779749,-0.0707458740320389,50.85,29.25,39.3
-802.73437,490.23437,160.15625,-0.0073277648644981,0.2677947683126752,0.041301645952119,-0.45,40.05,34.35,298.82812,162.10937,970.70312,-0.0266462907560478,-0.1568131209027101,-0.089797888146809,53.1,13.65,92.7,-546.38672,258.78906,825.19531,0.0814042507081179,-0.0099923590335179,-0.0534257501340228,50.7,28.2,37.35
-815.91797,490.72266,159.17969,0.0087933178373978,0.3332112794737494,-0.0483628990398376,0.15,40.05,36.0,348.63281,155.27344,976.5625,-0.0539585991546566,-0.0644839817417337,-0.1173767083221974,54.6,13.65,93.75,-525.39062,257.8125,828.61328,0.1248376418086228,-0.0310429496747467,-0.0578224090527217,51.0,28.65,37.65
-832.03125,492.1875,154.78516,0.0830031468358699,0.2991042297642014,0.0146553551960711,-1.2,38.55,35.4,327.14844,149.41406,940.91797,-0.0374380105869791,-0.0961929490590414,-0.0941945470655079,52.8,14.85,94.2,-524.41406,262.69531,858.88672,0.1300336615247351,-0.057422728654015,-0.050228132411444,51.0,28.65,37.65
-902.83203,526.36719,156.73828,0.0241148652089552,0.3276155793589304,0.050228132411444,-0.15,40.05,36.45,326.17187,157.22656,937.98828,-0.0768744231674918,-0.1156446435725182,-0.1049862668964393,52.8,14.85,94.2,-524.41406,248.04687,820.3125,0.0504946441882235,-0.0387702204050264,-0.0433002224785777,50.55,27.0,38.25
-899.90234,538.08594,142.57812,0.0147886983509235,0.3472006170272596,0.0664823837352672,-0.15,40.05,36.45,324.70703,145.50781,917.96875,-0.0508943245869302,-0.1283017713079811,-0.0586217698501351,52.2,14.25,92.85,-526.36719,233.39844,840.82031,0.1484196579969441,-0.0957932686603347,-0.0542251109314362,52.05,27.15,37.35
-898.92578,529.78516,146.97266,0.0562235129249697,0.3158913301086585,0.0995237354035474,0.0,39.6,35.85,327.14844,143.06641,920.41016,-0.091529778363563,-0.171202138854927,-0.1127137121596442,52.95,13.5,95.1,-518.55469,241.21094,852.05078,0.0995237354035474,-0.0570230482553083,-0.1023216727274195,52.05,27.15,37.35
-867.67578,522.94922,177.73437,0.0810045703094112,0.3575926564594842,0.0716784034513795,-2.25,39.75,35.7,311.52344,107.42188,928.22266,-0.0421010067495324,-0.1983812786316086,-0.0818039311068246,52.95,13.5,95.1,-518.55469,194.82422,801.75781,0.0731439564242791,-0.0917962901403425,-0.0530260697353161,51.6,28.8,37.5
-826.66016,507.32422,200.19531,0.0798055291132911,0.3943644748709771,0.0301102457224809,-1.05,39.6,35.25,352.53906,94.23828,941.40625,-0.0442327518979182,-0.2366186500160012,-0.1055191159170731,52.95,13.5,95.1,-502.92969,209.47266,847.65625,0.1498852109698438,-0.0863337586474507,-0.0940612039106556,51.6,28.8,37.5
-843.75,495.60547,208.98437,0.1473537854227512,0.4060888986541742,0.0924624823158288,-1.65,39.9,34.5,301.75781,87.89063,932.12891,-0.0089264864593249,-0.2484762424211255,-0.1582786738756097,52.5,14.85,94.2,-509.27734,208.98437,813.47656,0.1092495826602858,-0.1341638086666545,-0.0724777642487929,51.6,28.05,36.45
-819.33594,477.53906,211.42578,0.1425574461053456,0.4577825840385179,0.1171101965454179,-1.65,39.9,34.5,331.54297,88.37891,911.13281,0.0370383301882724,-0.241548157955334,-0.1330979360924615,52.65,13.95,93.6,-472.16797,187.01172,815.42969,0.1749326055981396,-0.1067181571131932,-0.1346968322202135,51.15,28.5,37.95
-834.47266,482.42187,170.89844,0.1608100994227023,0.5298606678886041,0.0634181091675407,0.6,39.6,34.2,350.58594,129.88281,914.55078,0.0522267089379027,-0.1528161423827179,-0.1261700261595952,52.8,14.4,91.95,-486.32812,222.65625,842.28516,0.187989239199384,-0.069680001457846,-0.0971256530113072,50.55,29.25,38.55
-832.51953,485.35156,170.89844,0.2244947203670226,0.6256539365489389,0.0683476171068735,-1.8,39.75,34.35,375.97656,123.53516,926.26953,0.0073277648644981,-0.0847350370526239,-0.1386936362072806,52.8,14.4,91.95,-489.74609,194.82422,806.64062,0.1401591891801802,-0.0819372742616769,-0.123238920213796,50.25,28.2,37.05
-876.46484,526.85547,199.21875,0.2387503951643871,0.5760918217800559,0.0880658233971298,-2.55,39.75,33.6,390.625,126.95313,936.52344,0.0235820161883213,-0.1116478395854512,-0.1203078142679967,51.3,15.15,92.7,-486.32812,198.24219,827.63672,0.1652067583414012,-0.0434333911005048,-0.1139127533557643,50.25,28.2,37.05
-868.16406,502.92969,111.32813,0.1791960958949114,0.6111317499747949,0.1153783063286639,-0.75,39.0,33.9,356.93359,137.69531,908.20312,-0.0030642745677264,-0.1692037368613934,-0.1713353074768541,51.3,14.4,92.7,-498.53516,202.63672,832.51953,0.1180429004976836,-0.0671485759107534,-0.1560137601052967,51.75,26.1,38.7
-804.6875,502.92969,85.44922,0.2183659966986445,0.6436400780895161,0.1191087730718766,-0.75,39.0,33.9,383.78906,130.37109,908.20312,-0.0207840788644492,-0.1855911568071438,-0.1532159973143498,51.3,14.4,92.7,-492.1875,209.96094,798.82812,0.1017886491738605,-0.0515605167624164,-0.1352296812408474,51.75,26.1,38.7
-833.98437,526.85547,104.00391,0.2334212068263476,0.6311164680418307,0.1573461444562691,-2.1,39.15,33.45,363.28125,119.14063,923.33984,-0.0515605167624164,-0.1164441789028568,-0.1027213531261262,51.6,12.75,92.85,-501.95312,233.39844,872.07031,0.1103154552344788,-0.0532925815120956,-0.1576124817001235,51.45,26.7,39.15
-814.94141,508.78906,98.14453,0.1263031947815224,0.6062022420354621,0.0711455544307456,-3.3,39.75,33.0,372.55859,118.16406,962.89062,-0.0347734164179594,-0.1672051603349347,-0.1501515482136981,53.1,12.9,91.65,-529.78516,228.51562,833.98437,0.0940612039106556,-0.0751423584178126,-0.1696034172601001,51.45,28.65,37.05
-808.10547,508.78906,96.19141,0.1677381838884938,0.6387105701501832,0.1065849884912661,-2.1,38.85,32.4,366.69922,92.77344,971.67969,-0.0683476171068735,-0.0967257980796753,-0.1264363634034496,51.6,13.5,92.55,-531.25,239.74609,838.37891,0.0780734643636119,-0.0334410320669869,-0.1156446435725182,51.45,27.9,37.65
-845.70312,493.65234,39.55078,0.1229724084370164,0.5724946981916956,0.0868667822010097,-2.1,38.85,31.65,342.28516,99.12109,969.23828,-0.0458314734927451,-0.1454885520511449,-0.1394931715376192,51.6,13.5,92.55,-528.32031,259.76562,863.76953,0.1103154552344788,-0.0803383781339249,-0.1268362183350815,51.15,28.8,38.25
-816.89453,477.53906,12.20703,0.1045865864977326,0.6232556796237735,0.0704793622552594,-2.1,38.85,31.65,358.39844,81.54297,973.63281,-0.045165455850184,-0.0929953313364626,-0.0798055291132911,51.6,14.7,94.65,-547.36328,242.67578,823.73047,0.0718115720733066,0.0007993607974134,-0.0584886012282079,51.15,28.8,38.25
-845.70312,483.88672,1.95312,0.184658452854878,0.5943446496303378,0.0917962901403425,-3.15,39.9,32.1,334.96094,102.05078,964.84375,0.0066615726890119,-0.0715452348294523,-0.1187090926731699,50.85,12.45,92.55,-538.08594,251.95312,858.39844,0.0639509581881746,0.0182526533173567,-0.0635512777894679,51.45,27.15,39.15
-868.16406,507.8125,-20.99609,0.1446891912537315,0.4756355569571678,-0.015055210127703,-2.55,39.0,32.25,339.84375,106.93359,946.77734,0.0094593354799588,-0.0923293136939016,-0.0976585020319411,52.2,13.5,92.85,-527.34375,268.55469,826.17187,0.0339738810876208,-0.011191400229638,-0.0778071271197576,51.45,27.15,39.15
-871.58203,510.25391,-57.61719,0.0818039311068246,0.4881593415377784,-0.0496952833908101,-2.7,40.35,31.05,354.98047,142.08984,955.56641,0.0436999028772844,-0.0722112524720134,-0.0447657754514773,50.85,13.5,92.85,-531.25,274.41406,843.75,-0.0023980823922402,-0.0526263893366094,-0.0146553551960711,51.15,28.05,38.55
-887.20703,486.32812,-68.35938,0.0446324322966249,0.4298039089314976,-0.0462311538914518,-3.3,39.75,31.95,362.79297,150.87891,951.17187,-0.0003996803987067,-0.0756753819713717,0.0067947413109391,51.9,13.5,93.3,-541.01562,294.43359,833.49609,-0.0114579120064175,-0.0090596550812521,-0.0365053066347134,51.0,27.45,40.2
-893.06641,470.21484,-67.87109,0.0616860444178615,0.340272532561468,-0.0496952833908101,-3.3,39.75,31.95,342.77344,148.92578,938.47656,0.059687642424328,-0.0951270764848485,0.0298437339457014,51.3,13.35,92.7,-513.67187,280.76172,819.33594,-0.0015987215948268,0.0162542513238231,0.0225161436141284,51.6,28.05,37.5
-888.67187,471.67969,-100.09766,0.0031976177225788,0.3043000749473886,-0.1133797298022052,-3.3,39.75,31.95,359.86328,153.80859,922.36328,0.0619525561946411,-0.074209828998472,0.0506278128101507,51.3,13.35,92.7,-529.29687,293.45703,825.68359,-0.0371714988101996,-0.0081271256619115,0.0247810573844414,51.15,28.8,37.5
-874.51172,462.40234,-85.9375,-0.0130566336012443,0.3296141558853891,-0.1338974714228001,-3.3,39.3,31.5,352.53906,167.48047,916.50391,0.0655498543159266,-0.05475795995207,0.1041869060990259,51.9,13.95,93.6,-512.20703,287.59766,817.87109,-0.0945942274642146,-0.0377045223637587,0.0277121633302407,50.85,28.05,37.5
-885.25391,496.58203,-86.42578,0.0592879620256213,0.1581455052536826,-0.1919862177193762,-2.7,39.6,32.4,331.54297,192.87109,923.82812,0.0447657754514773,-0.0648836621404404,0.0971256530113072,51.6,12.75,93.3,-529.29687,258.78906,837.40234,-0.1265697065583019,0.007860613885132,0.063018428768834,51.15,27.0,37.5
-885.25391,520.99609,-86.91406,-0.0722112524720134,0.17346705262524,-0.2105053828135125,-4.5,39.9,31.65,339.84375,148.4375,915.52734,0.0399694361340717,-0.0378376909856858,0.1434899755246862,51.6,13.95,92.85,-523.92578,273.92578,840.82031,-0.2077074454896403,-0.0198513749121835,0.0512940049856369,51.15,27.0,39.3
-895.01953,525.87891,-93.75,-0.0991240550048407,0.158944866051096,-0.1548147189091766,-3.3,39.75,31.2,326.66016,149.90234,958.00781,0.0205175670876697,-0.0097258472567384,0.1308330223221485,51.75,12.6,92.7,-526.85547,248.53516,824.21875,-0.1799954566923248,0.0125237845806105,0.0074609334864253,51.15,27.0,39.3
-895.01953,513.67187,-67.38281,-0.087532974376496,0.0373046674321268,-0.1065849884912661,-3.3,39.75,31.2,334.47266,130.37109,947.75391,0.0496952833908101,0.0205175670876697,0.1793292645168386,51.75,12.9,93.15,-535.64453,236.81641,820.80078,-0.2162342515502586,-0.0081271256619115,0.0293108849250675,49.95,25.65,38.4
-860.83984,487.30469,-62.98828,-0.22196329481993,-0.0559571756811154,-0.1448223598756587,-3.45,40.35,31.35,322.75391,145.01953,944.33594,-0.0126569532025376,-0.0227824808579827,0.2139693377799456,52.2,13.2,94.05,-532.71484,240.23437,837.40234,-0.209706022016099,0.0190520141147701,0.041301645952119,52.05,28.65,37.35
-851.5625,472.16797,-49.31641,-0.2704593624816949,0.0141225061754373,-0.2030444493270871,-3.0,40.5,31.2,333.49609,124.51172,930.17578,0.0037304667432126,0.0179861415405771,0.1751991173749191,52.2,13.2,94.05,-531.25,226.07422,851.07422,-0.2503414757927318,0.0006661921754862,0.0225161436141284,52.05,28.2,38.4
-864.25781,469.23828,-41.01563,-0.1914533686987423,-0.0955267568835552,-0.1081837100860929,-2.55,39.3,31.2,349.12109,124.51172,949.70703,-0.0191853572696224,0.0656830229378538,0.2166339319489653,52.05,14.1,92.7,-521.97266,206.05469,861.32812,-0.1700030976588069,-0.0314426300734534,0.0500949637895168,51.6,27.3,39.3
-830.07812,460.44922,-36.62109,-0.2612665387785156,-0.1115144964305989,-0.1267028751802291,-3.3,39.3,30.45,356.44531,104.49219,956.05469,-0.0237151848102485,0.0500949637895168,0.2232955046379773,50.4,14.7,92.85,-529.29687,203.125,831.05469,-0.2372848421914875,0.0089264864593249,0.0671485759107534,49.65,27.45,38.4
-838.37891,475.09766,-49.80469,-0.2836493392377916,-0.128834620328615,-0.1709356270781474,-3.3,39.3,30.45,355.95703,106.44531,966.30859,-0.0211837592631559,0.037970859607613,0.2430137109282336,51.0,12.9,94.2,-525.39062,211.91406,835.9375,-0.2212971026444438,-0.0159877395470436,-0.0127901218244648,49.95,27.15,39.15
-848.14453,474.12109,-34.17969,-0.229290885151503,-0.1986477904083882,-0.0852680606061829,-4.35,39.0,31.95,340.33203,101.5625,969.23828,0.0015987215948268,0.0377045223637587,0.1937182824690554,51.0,13.35,93.15,-548.33984,211.91406,848.14453,-0.2552709837320646,0.0174532925199432,0.0431668793237253,49.95,27.15,39.15
-887.69531,491.69922,-39.0625,-0.2729907880287874,-0.2003798551580673,-0.1236386006125027,-3.15,39.9,32.7,344.72656,104.00391,958.00781,0.0114579120064175,0.1071178375118999,0.2014455531993351,52.5,14.1,94.2,-542.48047,205.56641,844.23828,-0.2133031456044594,0.0246477142295891,0.0334410320669869,50.85,28.05,38.25
-903.80859,513.67187,-35.15625,-0.2833828274610121,-0.1770643507465255,-0.1052526041402936,-3.45,40.65,31.35,324.70703,94.23828,964.84375,0.0218499514386422,0.0125237845806105,0.2435467344817927,52.2,13.95,92.25,-546.875,202.14844,846.67969,-0.1803951370910315,0.0146553551960711,0.1113813278086717,50.85,28.05,38.25
-903.80859,520.50781,-33.20313,-0.2929755060958233,-0.2364854813940741,-0.1015221373970809,-2.7,39.15,33.75,337.40234,92.28516,966.30859,0.0015987215948268,0.0487625794385443,0.2194318692728375,52.2,13.95,92.25,-542.96875,197.75391,865.23437,-0.2239616968134635,0.0170536121212365,0.0127901218244648,50.55,28.5,37.95
-884.76562,505.37109,-20.01953,-0.3098959495951328,-0.2785864881436065,-0.0374380105869791,-2.7,39.15,33.75,340.82031,79.58984,991.69922,0.0023980823922402,0.0884655037958365,0.1917197059425967,51.3,14.1,94.8,-555.17578,198.24219,838.86719,-0.2299570773269893,0.0560903443030425,0.0840688448771376,51.6,28.5,39.3
-897.94922,502.44141,-10.25391,-0.3236186008389382,-0.212503784807046,-0.118842261295097,-2.4,39.6,31.65,325.19531,80.07813,986.81641,-0.0077274452632048,0.0442327518979182,0.2034441297257938,50.4,14.25,93.6,-545.41016,201.17187,859.86328,-0.2498086267720979,0.0695466583029936,0.0478300500192038,51.6,26.25,39.3
-888.67187,488.28125,1.95312,-0.3270827303382965,-0.2366186500160012,-0.0760750623700784,-2.7,39.15,32.7,332.51953,110.83984,979.49219,0.0179861415405771,0.0895313763700295,0.1919862177193762,51.15,13.95,93.3,-547.85156,205.07812,868.16406,-0.2723245958533012,0.0762082309920056,0.0587549384720623,51.0,27.15,38.4
-899.41406,499.51172,14.64844,-0.2831163156842325,-0.3348101756015014,-0.1019218177957876,-2.55,39.75,33.0,341.79687,112.79297,976.07422,0.029044373148288,0.0909969293429291,0.2251607380095836,51.15,13.95,93.3,-546.875,204.10156,833.49609,-0.2985712062106423,0.0582220894514284,0.0528927265804637,51.0,27.15,38.4
-900.39062,513.18359,36.13281,-0.3865038609858451,-0.3385406423447141,-0.1097826062138449,-2.4,40.35,31.35,339.84375,130.37109,957.03125,0.0251807377831481,0.0403691165327784,0.2462113286508125,51.15,13.95,93.3,-540.03906,200.19531,841.30859,-0.3161576673525128,0.0624854052152749,0.0107917198309313,51.15,28.5,40.05
-899.41406,518.06641,35.64453,-0.3110949907912528,-0.2787198312984588,-0.0928621627145355,-2.4,40.35,31.35,334.96094,130.85937,949.21875,-0.0254472495599277,0.0679479367081668,0.228624867508942,51.15,13.95,94.05,-553.22266,197.26562,843.26172,-0.2900444001500241,0.0559571756811154,0.0247810573844414,51.15,28.5,40.05
-928.22266,529.29687,42.48047,-0.3158913301086585,-0.3054992906764339,-0.1075176924435318,-3.75,41.4,32.4,333.98437,108.88672,935.54687,-0.020117886688963,0.0702128504784798,0.2957734434196954,52.65,13.95,93.3,-533.69141,185.05859,809.08203,-0.337341601148594,0.0065284040670847,0.0643506385868813,50.25,27.15,38.7
-887.20703,539.0625,61.52344,-0.3579923368581909,-0.2335543754482748,-0.1582786738756097,-1.35,40.35,33.75,328.125,108.39844,943.35937,-0.0475635382424242,0.0776737839649052,0.2620658995759289,52.65,13.95,93.3,-532.71484,175.78125,870.11719,-0.2833828274610121,0.0456983048708179,0.037970859607613,51.9,26.55,37.95
-927.73437,550.78125,86.42578,-0.3160244987305857,-0.3811744981148804,-0.20917299846254,-3.75,39.9,33.45,337.40234,94.23828,946.28906,-0.0427671989250186,0.0687472975055802,0.2785864881436065,51.75,13.65,93.45,-534.66797,166.01562,836.42578,-0.3633215251962304,0.0399694361340717,0.0385038831611721,51.0,27.15,38.1
-893.55469,544.43359,82.03125,-0.4047565143032018,-0.3181562438789715,-0.2575358975023777,-2.25,40.5,33.3,319.33594,73.73047,948.73047,-0.0610198522423753,0.1245711300318432,0.2713920664339607,51.9,13.5,94.35,-528.32031,168.94531,837.40234,-0.3389403227434208,0.0748760211739583,0.0475635382424242,50.25,26.4,38.4
-843.75,494.14062,77.63672,-0.4186125087018595,-0.1838590920574646,-0.2502083071708046,-2.25,40.5,33.3,332.03125,85.44922,963.86719,-0.0536922619108023,0.0568897051004559,0.2208974222457371,51.9,14.7,95.1,-558.59375,149.90234,878.90625,-0.3631883565743032,0.0612863640191548,0.051827028539196,51.0,27.9,39.45
-863.28125,454.10156,107.42188,-0.3073645240480402,-0.2169004437257448,-0.2327550146508613,-2.4,41.7,33.75,328.61328,79.10156,955.07812,-0.0245145456076619,0.0294440535469947,0.2661960467178483,51.9,14.7,95.1,-561.03516,160.15625,854.00391,-0.3749127803575003,0.0595542992694757,0.0319754790940873,50.7,26.7,38.4
-873.53516,457.51953,111.32813,-0.3470674484053324,-0.2729907880287874,-0.2387503951643871,-2.55,39.75,33.3,322.75391,71.77734,963.86719,-0.0534257501340228,0.0143890179522168,0.2070414278470793,51.15,14.25,92.25,-556.64062,138.67187,838.86719,-0.3204211576492846,0.0483628990398376,0.0664823837352672,50.7,26.7,38.4
-869.14062,452.14844,118.65234,-0.3270827303382965,-0.1160443239712249,-0.2835159960829392,-1.35,41.1,34.5,317.87109,69.82422,983.39844,-0.0638177895662474,0.03064326927604,0.2243613772121702,51.15,13.5,94.05,-565.91797,130.37109,870.11719,-0.2632649407720491,0.0548913031069224,0.0584886012282079,50.7,26.7,38.4
-920.41016,452.14844,100.58594,-0.2903109119268036,-0.0860674214035963,-0.2608666838468836,-2.1,39.15,34.5,336.91406,54.19922,967.28516,-0.063018428768834,0.0456983048708179,0.218099484921865,51.15,13.5,94.05,-548.82812,136.23047,839.35547,-0.2893782079745378,0.032375159492794,0.1049862668964393,51.9,27.0,38.55
-961.42578,450.68359,104.00391,-0.2194318692728375,-0.1156446435725182,-0.2475437130017849,-2.1,39.15,34.5,356.44531,25.39063,977.05078,-0.0337075438437664,0.1083170532409452,0.243147054083086,50.1,13.5,94.35,-532.22656,137.69531,844.72656,-0.255404326886917,0.0359724576140795,0.0766079113907123,50.85,28.05,39.3
-972.65625,460.44922,106.93359,-0.2244947203670226,-0.1518836129633773,-0.2912434413461441,-2.4,39.6,35.25,341.79687,32.22656,955.07812,0.002264913770313,0.0881991665519822,0.192918921671642,49.8,12.75,93.6,-515.13672,141.60156,874.51172,-0.230356757725696,0.080871401687484,0.0836691644784309,50.55,27.75,39.0
-958.00781,479.00391,78.125,-0.2556708386636965,-0.164540566165915,-0.3438698306827536,0.0,39.6,34.5,346.19141,26.85547,949.70703,0.0460979852695246,0.0712787230526728,0.203577298347721,50.1,13.5,94.05,-533.20312,132.32422,864.74609,-0.2119709357864121,0.1013889687751538,0.1028545217480534,51.15,26.55,39.3
-926.75781,450.19531,104.00391,-0.2051760199425478,-0.2531394131166039,-0.3555942544659507,-1.05,40.65,35.25,361.81641,33.20313,950.19531,0.0654165111610742,0.1095160944370653,0.1809279861116653,50.1,13.5,94.05,-528.32031,150.39062,872.55859,-0.215301722130918,0.0606201718436686,0.1252373222073295,51.0,26.4,39.9
-898.4375,444.82422,124.51172,-0.229290885151503,-0.2137030005360913,-0.3847717962361659,-1.05,40.65,35.25,388.18359,63.47656,952.14844,0.0707458740320389,0.2119709357864121,0.1915865373206695,52.2,15.75,95.4,-529.78516,147.46094,867.1875,-0.1476202971995308,0.0843353566539172,0.093128674491315,49.8,26.55,39.3
-856.44531,436.03516,132.32422,-0.2311562930560345,-0.1915865373206695,-0.3416049169124405,-1.05,40.65,35.25,355.95703,84.96094,947.26562,0.182393539084565,0.1457548892949992,0.1765313271929664,51.0,14.1,94.5,-521.97266,149.41406,872.07031,-0.1442895108550248,0.0989908863829135,0.1389601479840601,49.8,26.55,39.3
-876.46484,442.87109,160.15625,-0.182926562638124,-0.1354961930176269,-0.2957734434196954,-0.15,39.75,35.7,367.1875,116.21094,960.44922,0.1665389681594485,0.1518836129633773,0.0925956509377559,52.2,14.25,94.05,-527.83203,160.64453,891.60156,-0.1633415249697949,0.0869999508229369,0.132165406673121,52.35,27.0,38.55
-909.17969,448.24219,165.52734,-0.2171669555025244,-0.0904640803222952,-0.3292143009537572,-0.6,38.4,35.25,366.21094,118.65234,972.16797,0.1247044731866956,0.1604104190239956,0.1314992144976347,51.3,15.15,93.75,-530.76172,165.52734,869.14062,-0.1741332448007262,0.1528161423827179,0.0474303696204971,50.25,26.1,39.45
-934.08203,443.35937,148.92578,-0.2284915243540896,-0.0231821612566894,-0.2843155314132778,0.45,39.3,36.0,354.00391,126.95313,960.44922,0.1291011321053945,0.1079173728422385,0.189588135327136,51.15,14.25,94.05,-525.39062,164.0625,870.60547,-0.1633415249697949,0.1793292645168386,0.1000565844241813,50.55,27.3,39.0
-939.45312,459.96094,160.64453,-0.1625421641723815,-0.0936615235119489,-0.2811179136906991,0.45,39.3,36.0,374.02344,105.95703,968.75,0.078606487917171,0.1089830708835063,0.1728008604497538,51.6,14.7,94.65,-526.85547,152.83203,855.46875,-0.1506845717672572,0.1541485267336904,0.0179861415405771,50.85,27.0,38.25
-915.03906,459.47266,148.4375,-0.208107125888347,-0.1045865864977326,-0.3141592653589793,0.45,39.3,36.0,364.25781,93.26172,947.26562,0.0838025076332833,0.1572128013014168,0.2079739572664199,51.6,14.7,94.65,-511.23047,135.74219,852.53906,-0.1838590920574646,0.1761316467942597,0.0758085505932989,51.9,26.55,39.3
-899.41406,462.89062,139.64844,-0.196249708016148,-0.1085833904847996,-0.3582588486349705,-0.3,39.9,36.3,341.30859,97.65625,946.28906,0.0690138092823597,0.1273690673557154,0.1450888716524382,51.9,14.25,94.05,-508.78906,142.57812,897.94922,-0.2015788963541875,0.1530826541594974,0.0627519169920545,50.7,26.7,38.4
-854.98047,440.42969,156.25,-0.1914533686987423,-0.1213736868421896,-0.2995039101629081,-0.3,40.35,35.85,369.62891,79.10156,939.94141,0.0523598775598298,0.1418912539298594,0.1815941782871516,51.75,15.6,92.4,-508.78906,147.46094,863.28125,-0.2184991653205717,0.1601439072472161,0.077540615342978,50.7,26.7,38.4
-826.66016,405.27344,151.85547,-0.2496752836172456,-0.025713586803782,-0.3102956299938395,0.6,38.85,35.85,346.19141,77.14844,930.66406,0.1012558001532266,0.1240382810112094,0.1584120170304621,51.3,15.6,94.5,-519.53125,143.55469,867.67578,-0.2146355299554318,0.2050428513206206,0.041834669505678,49.95,26.1,39.45
-837.40234,401.36719,147.94922,-0.207441108245786,-0.004529827540626,-0.2875129746029314,0.0,38.1,35.85,363.76953,92.28516,939.45312,0.0900643999235885,0.0683476171068735,0.17346705262524,52.2,15.0,93.3,-505.85937,132.32422,876.46484,-0.2384838833876076,0.1566799522807829,0.0452986244721112,49.95,26.1,39.45
-881.34766,413.57422,150.87891,-0.134430320443434,-0.0091929982361045,-0.2244947203670226,0.0,38.1,35.85,336.91406,97.16797,939.45312,0.0366386497895657,0.0855343978500373,0.1769310075916731,51.3,14.85,94.8,-500.48828,145.01953,846.67969,-0.2797855293397265,0.1608100994227023,0.016787100344457,51.45,26.7,37.35
-869.62891,414.0625,152.34375,-0.1385604675853534,-0.059687642424328,-0.2427473736843793,-0.3,38.4,36.9,333.98437,110.35156,924.31641,0.0872664625997164,0.074209828998472,0.1797289449155452,52.95,14.7,93.6,-500.97656,192.38281,896.48437,-0.2980383571900085,0.1572128013014168,0.0158545709251164,51.0,26.4,38.7
-879.88281,441.40625,156.25,-0.1640077171452811,-0.0242480338308824,-0.2756553821978072,-0.15,39.75,36.75,357.42187,115.72266,906.25,0.0827366350590903,0.1007227765996675,0.1482863148420918,52.95,14.7,93.6,-496.09375,156.25,871.09375,-0.3266830499395898,0.1632081818149425,0.0025314255470925,49.95,26.7,39.15
-884.27734,432.12891,134.76562,-0.1296339811260284,-0.0671485759107534,-0.1608100994227023,-0.15,39.0,37.5,358.88672,109.86328,920.41016,0.0409019655534123,0.1444226794769519,0.189588135327136,52.5,14.4,93.15,-516.60156,137.69531,850.09766,-0.2689938095087952,0.1360290420382608,0.0443659205198454,51.45,26.4,37.35
-872.55859,449.70703,137.69531,-0.1057856276938527,-0.0893982077481023,-0.1849249646316576,-1.2,39.75,36.45,363.28125,90.82031,950.19531,0.0623522365933478,0.1281684281531288,0.1617428033749681,51.6,13.95,91.8,-516.60156,112.30469,899.90234,-0.2939080355151639,0.1251041535854023,0.0301102457224809,51.45,26.4,37.35
-876.46484,425.29297,142.08984,-0.1550812306859561,-0.0778071271197576,-0.2299570773269893,-1.2,39.75,36.45,380.85937,73.73047,948.24219,-0.020117886688963,0.1089830708835063,0.1528161423827179,51.75,14.85,94.5,-503.90625,101.5625,865.72266,-0.2169004437257448,0.1380276185647195,0.0341072242424731,51.45,25.65,38.4
-879.39453,423.82812,134.27734,-0.0783399761403914,-0.0623522365933478,-0.1950504922871027,1.2,40.5,36.75,367.67578,50.78125,954.58984,-0.0277121633302407,0.080871401687484,0.1353630243956998,51.75,14.85,94.5,-503.41797,82.51953,853.02734,-0.1661392877607418,0.1208406632886305,0.0644839817417337,51.45,25.65,38.4
-878.90625,408.69141,138.18359,-0.0819372742616769,-0.0516936853843436,-0.2200980614483237,2.1,39.6,36.3,358.39844,53.71094,938.96484,0.0025314255470925,0.0271791397766816,0.1197749652473628,51.6,13.95,93.6,-508.30078,95.70313,883.78906,-0.1949173236651755,0.1665389681594485,0.0090596550812521,51.45,25.65,38.4
