IMU1_AccX,IMU1_AccY,IMU1_AccZ,IMU1_GyrX,IMU1_GyrY,IMU1_GyrZ,IMU1_MagX,IMU1_MagY,IMU1_MagZ,IMU2_AccX,IMU2_AccY,IMU2_AccZ,IMU2_GyrX,IMU2_GyrY,IMU2_GyrZ,IMU2_MagX,IMU2_MagY,IMU2_MagZ,IMU3_AccX,IMU3_AccY,IMU3_AccZ,IMU3_GyrX,IMU3_GyrY,IMU3_GyrZ,IMU3_MagX,IMU3_MagY,IMU3_MagZ
-913.08594,45.41016,389.64844,-0.2066415729154474,-0.0877993116203503,-0.1279019163763492,10.2,32.55,49.2,262.69531,88.86719,950.19531,-0.0426340303030914,0.0051960197161123,0.3140260967370522,54.3,10.35,94.2,-550.78125,190.91797,833.98437,-0.3310797088582887,0.023448673033469,0.1049862668964393,51.0,24.9,39.15
-919.43359,60.54688,403.80859,-0.205842212118034,-0.0182526533173567,-0.0715452348294523,10.2,30.6,49.5,263.67187,71.28906,973.14453,-0.0235820161883213,0.0042633157638465,0.3698499292633152,54.9,10.35,95.55,-544.43359,192.38281,810.05859,-0.3559939348646574,0.0554241521275563,0.0619525561946411,51.0,24.9,39.15
-942.38281,80.56641,396.97266,-0.1390934911389125,-0.0305099261211876,-0.0211837592631559,10.05,30.9,48.6,260.25391,38.08594,960.44922,-0.0427671989250186,0.0534257501340228,0.388235751202599,54.9,10.35,95.55,-545.41016,159.17969,784.66797,-0.3438698306827536,0.0687472975055802,0.098724374606134,51.6,26.55,40.05
-951.17187,79.58984,375.0,-0.162275652395602,0.0093261668580317,0.0253139064050753,10.05,30.9,48.6,249.51172,32.22656,936.52344,-0.034640073263107,0.0251807377831481,0.3626555075536694,53.55,9.9,93.75,-552.73437,158.69141,843.26172,-0.3162910105073652,0.020117886688963,0.0933951862680945,51.6,26.55,40.05
-972.16797,114.25781,383.30078,-0.1334976164911682,0.0511608363637097,0.1048529237415869,9.0,33.45,50.1,269.53125,27.34375,946.77734,0.0118575924051242,0.0191853572696224,0.3449357032569465,52.2,9.75,95.4,-551.26953,149.41406,814.45312,-0.3677181841149293,0.0674150876875329,0.1585451856523893,50.55,25.8,39.3
-969.23828,125.48828,382.32422,-0.1608100994227023,-0.0393032439585855,0.2061087238948135,10.95,32.1,50.55,272.94922,27.83203,975.09766,0.0161209081689708,0.0443659205198454,0.3137595849602726,53.7,10.8,93.3,-558.10547,126.95313,825.19531,-0.3072311808931878,0.0295773967018471,0.1632081818149425,52.05,26.7,39.15
-957.51953,122.07031,369.62891,-0.1224395594163826,-0.0961929490590414,0.1722680114291199,8.55,32.4,50.1,279.29687,41.50391,987.30469,0.0291777163031404,0.0631515973907612,0.3674516723381497,54.0,10.8,95.4,-560.05859,151.85547,860.35156,-0.3117610084338139,0.0357059458372999,0.1726676918278266,50.7,26.1,39.45
-932.12891,116.69922,373.04687,-0.1477534658214579,0.0207840788644492,0.1530826541594974,9.6,33.0,49.05,291.01562,42.48047,986.32812,0.0546247913301429,0.0508943245869302,0.2757887253526596,54.3,8.85,93.75,-553.71094,158.20312,852.53906,-0.3146921143796131,0.0018652333716063,0.1502848913685505,50.7,27.15,38.7
-964.84375,140.13672,374.02344,-0.1217733672408963,-0.0748760211739583,0.2262266105837766,9.6,33.0,49.05,296.875,18.55469,998.53516,0.0722112524720134,0.0229158240128351,0.3118943515886662,54.45,10.5,94.05,-556.15234,139.64844,851.5625,-0.31122815941318,0.0311761182966739,0.1087167336396519,50.7,27.15,38.7
-959.96094,130.37109,384.76562,-0.0844685252758443,-0.0751423584178126,0.2664625584946278,10.2,32.1,49.8,307.61719,41.01563,1018.55469,0.0267794593779749,0.0403691165327784,0.3341439834260152,54.45,10.5,94.05,-551.26953,132.8125,871.58203,-0.3184225811228259,0.060753514998521,0.0695466583029936,51.15,26.55,39.3
-950.68359,138.67187,396.97266,-0.0981913510525749,-0.0482297304179105,0.2065084042935202,9.45,33.3,50.55,264.16016,39.0625,978.51562,0.0173201238980161,0.0674150876875329,0.3061653083189948,53.85,11.4,94.5,-554.19922,123.53516,866.69922,-0.3182894125008987,0.0343737360192527,0.0807380585326316,51.15,26.55,39.3
-939.45312,160.64453,396.97266,-0.059687642424328,-0.1120475199841579,0.2407487971579206,10.5,33.6,49.8,310.05859,16.60156,989.25781,0.0584886012282079,0.0297105653237742,0.3049662671228748,53.85,8.85,94.8,-558.59375,102.53906,883.78906,-0.2668622388933346,0.039569755735365,0.059154618870769,51.15,26.55,39.3
-912.10937,154.29687,407.71484,-0.1052526041402936,-0.1320322380511938,0.2386172265424599,9.45,33.3,50.85,299.31641,23.92578,989.74609,0.0069280844657914,0.064750318985588,0.2560705190624032,54.0,10.5,93.6,-550.29297,81.54297,887.20703,-0.2306232695024755,0.041834669505678,0.0743429976203992,51.9,26.25,39.3
-891.60156,146.48437,425.78125,-0.0957932686603347,-0.0778071271197576,0.2043766591451344,9.45,33.3,50.85,312.98828,6.34766,985.83984,0.0149218669728507,0.0788728251610253,0.2266262909824833,53.4,9.75,94.35,-538.57422,86.91406,909.66797,-0.1686707133078344,0.0099923590335179,0.1009892883764471,51.0,24.9,38.7
-889.64844,175.29297,427.24609,-0.0548913031069224,-0.0668820641339739,0.2362189696172945,9.0,33.45,50.7,315.42969,-5.37109,988.76953,0.0307764378979672,0.0937948666668012,0.2242282085902431,53.55,10.35,94.2,-519.53125,86.42578,889.64844,-0.1698697545039545,0.0241148652089552,0.0691469779042869,51.15,26.25,39.3
-905.27344,187.01172,429.19922,-0.0916631215184153,-0.0595542992694757,0.1999801747593606,9.3,33.45,50.7,334.96094,-26.85547,984.375,0.0651499993842947,0.0405022851547056,0.1825268822394173,53.7,10.05,94.35,-507.32422,96.19141,875.0,-0.1398928519363259,0.0029311059457992,0.0579555776746489,50.1,25.5,38.25
-912.10937,174.31641,427.73437,-0.0976585020319411,-0.0206509102425221,0.2031776179490143,10.35,33.0,50.1,333.00781,-13.67187,971.67969,0.0760750623700784,0.0555574952824086,0.1815941782871516,53.7,10.05,94.35,-503.90625,89.35547,923.33984,-0.0911300979648563,0.0778071271197576,0.0743429976203992,51.75,24.9,38.7
-918.45703,165.52734,426.26953,-0.0366386497895657,-0.0471638578437175,0.2649970055217283,9.3,33.0,49.35,349.12109,2.44141,983.39844,0.1044532433428802,0.0644839817417337,0.1769310075916731,54.0,10.5,93.6,-501.46484,84.96094,875.0,-0.0844685252758443,0.1141790905996186,0.0712787230526728,50.55,26.25,39.3
-913.08594,161.13281,445.3125,-0.0263797789792682,-0.06634921511334,0.1851914764084371,9.3,33.0,49.35,335.9375,-3.90625,986.32812,0.1028545217480534,0.1092495826602858,0.11990813386929,53.4,10.5,94.65,-496.58203,60.54688,861.81641,-0.0807380585326316,0.1338974714228001,0.0286446927495813,50.55,26.25,39.3
-930.66406,157.22656,453.125,-0.0552909835056291,-0.0479632186411309,0.1397595087814735,9.3,33.0,49.35,351.07422,15.625,976.07422,0.1446891912537315,0.0989908863829135,0.1012558001532266,53.1,10.65,94.5,-494.14062,101.5625,913.57422,-0.0154548905264097,0.1135130729570576,0.0877993116203503,50.55,25.5,39.3
-947.26562,155.27344,446.28906,0.0194516945134768,-0.1393598283827668,0.1059187963157798,9.45,31.05,50.85,341.79687,30.76172,959.47266,0.1077840296873862,0.148952507017578,0.0996569040254746,53.1,10.65,94.5,-498.53516,116.21094,861.32812,-0.051827028539196,0.1137794102009119,0.1051194355183664,50.55,24.75,39.0
-927.24609,168.45703,445.80078,0.0503614755662963,-0.1179097318757565,0.1488193383956508,9.6,33.45,49.65,341.79687,45.41016,974.60937,0.1088499022615791,0.1544150385104699,0.0590214502488418,53.1,10.65,94.5,-512.69531,135.25391,848.63281,-0.0007993607974134,0.1637412053685016,0.0961929490590414,50.7,26.1,39.15
-935.05859,176.75781,429.6875,0.0274456515534612,-0.1123138572280122,0.0819372742616769,8.7,33.3,50.55,322.26562,54.19922,987.79297,0.1237717692344298,0.2038438101245005,0.1316323831195619,53.7,11.55,93.6,-529.78516,159.66797,870.60547,-0.0319754790940873,0.1834594116587579,0.0210505906412288,51.45,26.7,38.1
-928.71094,186.52344,441.40625,0.0146553551960711,-0.0997902471803269,0.0699463387017003,9.15,32.85,50.85,309.08203,43.94531,977.53906,0.1056524590719255,0.1759984781723326,0.0920628019171221,54.3,11.4,92.4,-537.59766,137.20703,835.44922,-0.1244379614099161,0.2077074454896403,0.0042633157638465,50.55,26.25,38.55
-895.01953,206.54297,428.71094,0.0975253334100139,-0.1263031947815224,0.1524164619840112,9.15,32.85,50.85,295.41016,30.27344,978.02734,0.122173047639603,0.1688040564626867,0.1065849884912661,54.3,11.4,92.4,-560.05859,173.82812,844.72656,-0.0908637607210019,0.2218299516650776,0.0119907610270514,51.15,25.8,38.55
-909.66797,199.21875,421.875,0.0347734164179594,-0.0917962901403425,0.0405022851547056,10.35,34.2,51.75,263.18359,26.85547,959.96094,0.1281684281531288,0.1989143021851677,0.1032542021467601,53.85,10.35,94.5,-560.05859,156.25,840.82031,-0.1151117945518844,0.2382175461437532,-0.0006661921754862,51.15,25.8,38.55
-895.01953,185.05859,421.875,-0.0033307863445059,-0.0342403928644003,0.0700796818565527,9.6,33.75,50.4,261.71875,66.40625,981.93359,0.166805479936228,0.1897213039490632,0.091529778363563,54.6,12.15,95.25,-565.91797,160.15625,887.20703,-0.1460214010717788,0.1930520902935692,0.0105252080541518,51.15,25.5,39.0
-869.14062,163.57422,430.66406,0.0863337586474507,-0.0598208110462552,0.1209740064434829,10.95,34.8,49.8,186.03516,58.59375,948.24219,0.2912434413461441,0.3478668092027458,0.0616860444178615,54.9,11.4,94.8,-567.87109,165.52734,872.55859,-0.1099157748357721,0.1045865864977326,0.0642174699649541,51.15,25.5,39.0
-871.58203,171.38672,433.59375,0.0519601971611231,0.0101255276554451,0.0475635382424242,9.0,34.2,50.1,250.48828,92.77344,1025.87891,0.172401180051047,0.1394931715376192,0.0683476171068735,54.9,11.4,94.8,-555.66406,159.17969,862.79297,-0.0774072721881257,0.0885988469506889,0.050761155965003,52.05,27.15,39.45
-863.76953,166.99219,425.78125,0.060753514998521,-0.0027979373238721,0.0386370517830992,9.0,34.2,50.1,290.52734,95.70313,1019.04297,0.1524164619840112,0.1718683310304132,0.11990813386929,54.3,10.35,95.25,-527.83203,175.78125,895.50781,-0.0672817445326806,0.080871401687484,0.063684446411395,50.25,26.4,38.4
-872.07031,123.53516,416.50391,0.1081837100860929,0.0054625314928918,0.0170536121212365,9.45,35.1,51.9,316.40625,113.76953,963.86719,0.0726111074036452,0.0704793622552594,0.148952507017578,53.4,12.0,93.3,-512.20703,188.96484,893.06641,-0.1293674693492489,0.075275701572665,0.0807380585326316,50.25,24.15,38.7
-903.32031,105.95703,418.94531,0.0895313763700295,0.1501515482136981,-0.0230489926347623,9.45,34.35,50.55,346.67969,128.41797,956.54297,0.0803383781339249,0.0869999508229369,0.1441561677001724,53.4,12.0,93.3,-500.97656,193.35937,872.55859,-0.1626753327943086,0.0382373713843925,0.0916631215184153,52.35,25.5,37.95
-929.19922,106.93359,436.03516,0.1506845717672572,0.10205516095064,-0.032375159492794,10.2,34.05,50.85,353.51562,124.02344,927.24609,0.0337075438437664,0.1516171011865978,0.1741332448007262,54.0,10.8,94.65,-477.53906,188.96484,880.37109,-0.214768698577359,0.059687642424328,0.0536922619108023,52.35,25.5,37.95
-940.91797,136.23047,463.86719,0.2010458728006284,-0.0598208110462552,0.0370383301882724,8.7,34.8,51.3,343.75,124.51172,928.22266,0.0010658725741929,0.0912634411197086,0.2033109611038666,55.65,11.85,94.2,-442.87109,159.66797,850.58594,-0.2295573969282826,0.1176432200989769,0.0397029243572922,51.75,24.9,38.1
-919.43359,153.80859,460.9375,0.1133797298022052,-0.0436999028772844,0.0311761182966739,8.7,34.8,51.3,359.375,111.32813,910.15625,-0.0411684773301918,0.1183094122744632,0.2839158510145712,53.85,11.85,92.7,-445.80078,166.99219,893.06641,-0.2324885028740818,0.1338974714228001,0.0712787230526728,51.75,24.9,38.1
-893.55469,174.80469,484.375,0.0542251109314362,-0.069680001457846,0.0658161915597809,9.45,32.85,49.2,368.16406,104.49219,921.38672,-0.1123138572280122,0.1632081818149425,0.2311562930560345,53.85,11.85,92.7,-447.75391,157.71484,844.72656,-0.2825834666635987,0.1259035143828157,0.0415681577288985,51.75,24.9,38.1
-849.60937,187.01172,478.02734,0.0303767574992605,-0.0832694840797242,0.0940612039106556,9.6,34.2,51.45,348.14453,84.47266,940.42969,-0.1252373222073295,0.1782633919426456,0.2700596820829882,53.85,12.6,93.75,-464.84375,127.92969,878.90625,-0.2220964634418572,0.171202138854927,0.0503614755662963,50.55,26.25,38.25
-847.65625,183.10547,462.89062,0.0341072242424731,-0.0754088701945922,0.1015221373970809,8.7,33.6,50.55,336.42578,80.07813,948.73047,-0.1091164140383586,0.1236386006125027,0.2371516735695603,55.35,11.4,94.2,-482.91016,131.34766,878.41797,-0.2801852097384332,0.1149786259299572,0.0114579120064175,51.75,25.65,37.65
-849.12109,217.77344,463.86719,-0.0832694840797242,-0.0385038831611721,0.1610766111994818,9.15,32.85,50.55,341.79687,57.61719,933.59375,-0.1012558001532266,0.1421577657066389,0.2486095855759778,55.35,11.4,94.2,-498.53516,100.09766,863.28125,-0.2122374475631916,0.1641408857672083,-0.0207840788644492,52.95,26.25,37.95
-880.37109,202.63672,441.89453,-0.0840688448771376,-0.0523598775598298,0.2226293124624911,9.15,32.85,50.55,281.25,18.06641,956.54297,-0.1156446435725182,0.1033873707686873,0.2131699769825322,53.4,12.45,94.05,-526.36719,73.24219,862.79297,-0.2404824599140662,0.1975819178341952,-0.0672817445326806,52.05,25.35,38.7
-869.62891,218.26172,431.64062,-0.0832694840797242,-0.0812710820861907,0.2167672751038177,10.2,34.05,50.25,271.48437,4.39453,965.82031,-0.0794058487145844,0.1248376418086228,0.1798621135374724,53.85,11.1,93.75,-554.19922,63.47656,862.79297,-0.1966493884148547,0.1818606900639311,-0.057422728654015,52.05,25.35,38.7
-847.16797,219.72656,412.59766,-0.161209779821409,0.0191853572696224,0.1987809590303153,10.35,35.25,51.15,247.07031,-20.01953,966.30859,-0.0668820641339739,0.0880658233971298,0.1564134405040034,54.45,12.45,93.6,-560.05859,82.03125,864.25781,-0.1229724084370164,0.2122374475631916,-0.0754088701945922,50.1,25.05,40.35
-863.28125,224.12109,396.97266,-0.0943277156874351,0.0640843013430269,0.239283244185021,8.4,34.35,51.3,232.42187,-17.57813,1005.37109,-0.0514271736075641,0.0981913510525749,0.1508177403891844,54.45,12.45,93.6,-591.30859,90.82031,859.375,-0.1001899275790336,0.1536156777130565,0.0269126279999021,50.1,25.05,40.35
-879.88281,229.49219,400.39062,-0.1394931715376192,0.0307764378979672,0.2482097306443459,8.1,34.8,50.55,213.86719,2.92969,1002.44141,-0.0515605167624164,0.1320322380511938,0.1095160944370653,53.85,11.85,93.75,-607.91016,101.5625,843.26172,-0.0795390173365115,0.1016554805519333,0.0358392889921523,51.0,26.1,38.7
-892.08984,243.65234,376.46484,-0.158944866051096,0.1099157748357721,0.1536156777130565,8.1,34.8,50.55,234.375,4.39453,997.07031,-0.0206509102425221,0.0919296332951949,0.0815375938629702,54.3,11.4,93.75,-600.09766,101.5625,836.91406,-0.0787396565390981,0.0839356762552105,-0.0225161436141284,50.7,24.9,39.15
-868.65234,245.60547,380.85937,-0.1264363634034496,0.0289112045263608,0.2334212068263476,10.05,34.95,51.75,235.83984,17.08984,987.30469,0.0158545709251164,0.0872664625997164,0.025713586803782,54.6,11.85,95.25,-594.23828,94.72656,831.05469,-0.0466310088230837,0.0455651362488907,0.0131899767560967,50.7,25.35,38.1
-890.13672,231.44531,360.35156,-0.1115144964305989,0.0495619402359577,0.1758653095504054,9.0,34.95,50.7,212.40234,36.62109,958.49609,0.0398360929792193,0.0646171503636608,0.082603291904238,54.6,10.65,94.8,-575.19531,75.19531,798.33984,-0.0322419908708668,0.037970859607613,0.0013323843509724,52.5,24.6,39.45
-879.39453,249.51172,368.65234,-0.1284349399299083,0.0940612039106556,0.1437564873014657,10.95,36.9,51.3,221.67969,13.18359,940.91797,0.0595542992694757,0.0810045703094112,0.0187856768709157,54.9,12.15,95.25,-562.98828,75.68359,830.56641,0.0138559943986577,0.0410353087082646,0.0195850376683291,51.0,23.85,38.4
-881.34766,240.72266,371.09375,-0.0482297304179105,0.0554241521275563,0.1480199775982374,9.9,35.55,50.85,209.47266,9.76562,936.03516,0.0163874199457503,0.0102588708102974,0.0202512298438154,54.0,11.55,94.65,-562.98828,62.98828,800.29297,0.0622190679714206,0.0030642745677264,-0.0077274452632048,51.75,25.65,37.35
-899.90234,252.92969,357.42187,-0.0386370517830992,0.0618192130397887,0.1244379614099161,9.9,35.55,50.85,211.42578,-13.18359,935.54687,0.0285115241276541,-0.0030642745677264,-0.0026645941690197,54.0,11.55,94.65,-555.66406,42.48047,830.07812,0.1325650870718277,-0.0253139064050753,0.0459648166475974,51.75,25.65,37.35
-888.18359,243.65234,375.48828,-0.0439662401211387,0.0884655037958365,0.1080505414641657,8.25,35.25,50.1,227.05078,-17.08984,944.33594,0.0341072242424731,-0.0205175670876697,0.0146553551960711,54.75,11.25,93.6,-552.24609,45.41016,828.61328,0.1275022359776425,-0.0419678381276052,0.022382800459276,51.0,26.1,38.1
-876.95312,220.21484,386.23047,0.0349065850398865,0.004529827540626,0.0999234158022541,8.55,34.95,49.65,237.30469,-29.78516,934.57031,0.0811377389313384,0.0229158240128351,-0.0582220894514284,55.5,10.8,94.05,-561.03516,37.10938,831.54297,0.1661392877607418,-0.0387702204050264,-0.0174532925199432,51.0,24.9,38.1
-866.69922,218.26172,373.04687,0.0503614755662963,0.0173201238980161,0.0534257501340228,7.95,35.25,50.4,234.375,-31.73828,964.84375,0.0739433172216925,-0.0211837592631559,-0.0603538345998143,54.0,11.25,93.3,-563.96484,44.92188,867.67578,0.1670719917130076,-0.0738101485997654,-0.0001331686219271,51.9,27.0,38.25
-850.09766,203.61328,382.8125,0.0317089673173077,0.0422343499043847,-0.0286446927495813,9.6,36.45,49.35,253.90625,-31.25,976.5625,0.0787396565390981,-0.0575558972759422,-0.0800720408900706,54.0,11.25,93.3,-554.19922,42.48047,826.66016,0.1953170040638822,-0.0638177895662474,-0.0190520141147701,52.05,25.65,38.1
-864.74609,219.72656,394.53125,0.0536922619108023,0.0909969293429291,-0.0154548905264097,9.6,36.45,49.35,241.69922,-23.4375,977.53906,0.0763415741468579,-0.0855343978500373,-0.1215068554641168,54.75,11.25,93.6,-567.87109,32.22656,846.19141,0.2507411561914385,-0.1084502218628724,0.0382373713843925,50.85,26.55,39.3
-882.8125,229.98047,367.67578,0.143356806902759,0.0937948666668012,-0.0230489926347623,7.5,34.5,50.7,250.48828,-6.83594,986.32812,0.1147121141531777,-0.0783399761403914,-0.1684043760639801,53.7,10.8,93.6,-571.77734,54.6875,849.60937,0.2426140305295269,-0.0960597804371143,0.0053291883380394,51.75,26.4,38.1
-915.52734,238.76953,385.25391,0.0848683802074762,0.0608866836204481,-0.1304333419234418,9.9,34.8,49.5,243.65234,6.83594,985.83984,0.1064518198693389,-0.1516171011865978,-0.1881225823542364,54.0,11.55,93.6,-580.07812,55.66406,835.9375,0.255404326886917,-0.1229724084370164,-0.0595542992694757,51.75,26.4,38.1
-913.57422,234.375,370.60547,0.0803383781339249,0.0560903443030425,-0.0940612039106556,8.7,35.1,50.55,241.69922,19.04297,990.72266,0.1185757495183175,-0.0969923098564548,-0.2133031456044594,54.0,11.55,93.6,-572.75391,79.10156,860.83984,0.3372082579937416,-0.0921959705390492,-0.0165205885676775,51.75,25.35,38.7
-937.5,255.37109,360.35156,0.1346968322202135,-0.0245145456076619,-0.0913966097416358,9.45,34.05,50.25,250.97656,29.29688,996.09375,0.0562235129249697,-0.1320322380511938,-0.2444792639011333,54.0,13.95,93.6,-565.91797,83.49609,864.25781,0.3300138362840958,-0.1192419416938038,0.0209172474863764,51.15,27.0,37.2
-941.89453,231.93359,364.25781,0.0627519169920545,-0.0382373713843925,-0.069680001457846,9.45,34.05,50.25,258.30078,40.03906,992.1875,0.067015232755901,-0.1055191159170731,-0.175731966395553,52.8,13.65,95.25,-569.82422,122.07031,849.12109,0.3444026797033874,-0.1144456023763981,-0.0367718184114929,51.15,27.0,37.2
-955.07812,221.67969,370.11719,0.0317089673173077,-0.0427671989250186,-0.0783399761403914,9.45,34.05,50.25,265.625,39.0625,1009.27734,0.0764747427687851,-0.0743429976203992,-0.2600673230494703,54.0,12.0,94.05,-562.5,137.20703,864.74609,0.3182894125008987,-0.1049862668964393,-0.0285115241276541,51.45,26.7,38.4
-953.61328,225.58594,367.67578,0.1077840296873862,-0.0844685252758443,-0.0576890658978693,8.55,34.95,50.4,276.85547,37.10938,987.79297,0.070346019100407,-0.0548913031069224,-0.2613997074004427,54.45,12.0,93.6,-556.15234,128.41797,836.42578,0.3438698306827536,-0.0868667822010097,-0.0401026047559989,51.45,25.35,39.15
-946.28906,229.98047,384.76562,0.0197182062902563,-0.1528161423827179,-0.1021883295725672,9.15,34.8,49.2,280.27344,55.66406,985.83984,0.104320074720953,-0.1191087730718766,-0.2287580361308692,56.25,10.8,93.6,-560.54687,130.37109,875.48828,0.389301623776792,-0.0566231933236764,-0.0162542513238231,51.75,24.6,39.45
-937.98828,204.10156,412.59766,0.043566559722432,-0.1204409828899239,-0.162275652395602,8.7,34.05,50.85,290.52734,65.91797,979.49219,0.0892648645932499,-0.1024548413493467,-0.2332878636714952,54.3,12.15,94.5,-546.875,157.71484,855.95703,0.3725145234323349,-0.0888651841945432,-0.0003996803987067,51.0,25.35,38.1
-945.3125,201.17187,417.48047,0.0903307371674429,-0.1814610096652244,-0.0822036115055313,8.1,34.8,50.25,291.99219,47.36328,974.12109,0.0514271736075641,-0.0504946441882235,-0.2508744993462909,54.3,12.15,94.5,-547.36328,145.50781,822.26562,0.3778438863032995,-0.0110582316077108,-0.0159877395470436,51.0,25.35,38.1
-934.57031,192.38281,413.08594,0.0500949637895168,-0.0941945470655079,-0.123238920213796,8.1,34.8,50.25,280.27344,51.26953,980.46875,0.0988575432280612,-0.0337075438437664,-0.2459448168740329,54.75,11.25,94.35,-560.54687,165.52734,843.75,0.4038239848838612,-0.0858009096268168,-0.0083936374386911,51.9,26.55,39.3
-946.77734,197.26562,421.38672,0.0535589187559499,-0.1861240058277777,-0.13776110678794,7.65,34.35,50.25,285.15625,57.12891,985.83984,0.0992572236267679,-0.0993905667816202,-0.2227626556173434,54.45,10.8,94.65,-551.75781,166.50391,801.26953,0.3328115990750427,-0.0005328490206338,-0.0107917198309313,51.9,26.55,39.3
-926.75781,175.78125,414.55078,0.0771409349442713,-0.1838590920574646,-0.1152449631738115,10.05,34.2,49.35,254.39453,83.98438,952.63672,0.1362955538150403,-0.0923293136939016,-0.2238285281915364,55.5,12.0,92.85,-539.0625,183.10547,821.28906,0.3854379884116521,-0.005595700114819,-0.098724374606134,50.85,26.55,38.55
-914.0625,179.19922,418.45703,0.1047197551196597,-0.1069846688899728,-0.1369617459905266,9.0,35.25,49.05,264.64844,84.96094,954.58984,0.1193751103157309,-0.0711455544307456,-0.2567365367049642,55.5,12.0,92.85,-557.61719,191.89453,836.42578,0.3490658503988659,-0.042900542079871,0.0133231453780239,51.0,26.7,39.9
-902.83203,173.33984,428.22266,0.077007591789419,-0.0758085505932989,-0.1449555284975858,10.5,34.8,50.25,253.41797,106.44531,959.96094,0.1585451856523893,-0.0782068075184643,-0.2741898292249076,53.55,9.9,93.75,-542.96875,203.125,824.21875,0.3354761932440624,-0.0800720408900706,0.0135896571548034,50.7,26.7,38.1
-898.92578,177.73437,445.80078,0.1077840296873862,-0.0899310567687362,-0.0937948666668012,10.5,34.8,50.25,281.25,101.07422,955.07812,0.105385947295146,-0.051827028539196,-0.2113047436109259,55.2,10.8,92.25,-546.38672,223.63281,838.37891,0.3109616476364005,-0.0952604196397009,-0.0081271256619115,52.95,27.0,37.95
-887.69531,189.45312,447.26562,0.1140459219776914,-0.1264363634034496,-0.1157779867273706,9.45,33.3,51.3,266.11328,114.74609,986.81641,0.0908637607210019,-0.0941945470655079,-0.2010458728006284,55.2,10.8,92.25,-536.13281,231.93359,794.43359,0.2797855293397265,-0.0479632186411309,0.0129234649793172,52.95,27.0,37.95
-897.94922,206.05469,447.26562,0.0648836621404404,0.0057288687367461,-0.1596110582265822,9.6,33.45,51.45,265.13672,115.72266,970.70312,0.0855343978500373,-0.0743429976203992,-0.1925190667400101,54.75,11.25,95.1,-555.17578,219.23828,854.00391,0.3032343769061208,-0.0748760211739583,0.0026645941690197,51.45,27.15,37.05
-883.30078,188.96484,442.38281,0.0788728251610253,-0.0242480338308824,-0.0678147680862396,9.45,34.35,50.25,278.80859,122.07031,975.58594,0.1520167815853045,-0.0935283548900217,-0.1514839325646706,54.0,12.0,93.3,-544.43359,240.23437,855.46875,0.2527397327178972,-0.1040535629441735,-0.0674150876875329,51.45,27.15,37.05
-887.20703,184.57031,426.75781,0.0776737839649052,0.0103920394322246,-0.0718115720733066,9.0,34.95,51.45,267.57812,116.69922,962.40234,0.1337641282679478,-0.1088499022615791,-0.1432236382808319,54.45,10.8,93.6,-546.38672,209.96094,812.5,0.2183659966986445,-0.0543582795533633,-0.0178529729186499,51.45,26.1,38.1
-909.17969,204.10156,421.875,0.0664823837352672,0.0947273960861418,-0.0254472495599277,9.0,34.95,51.45,266.60156,125.97656,958.49609,0.1104486238564059,-0.1024548413493467,-0.1947841550432483,54.45,10.8,93.6,-541.99219,232.91016,866.21094,0.2880459981564905,-0.116577347524784,-0.0157212277702641,51.9,27.3,37.95
-924.31641,213.37891,421.38672,0.0834028272345766,0.0692803210591393,0.0446324322966249,8.4,34.8,50.25,272.46094,125.48828,958.49609,0.1185757495183175,-0.0695466583029936,-0.1512174207878911,54.6,11.1,94.5,-535.64453,221.19141,864.74609,0.2616662191772222,-0.0651499993842947,-0.0592879620256213,50.55,27.3,39.6
-909.17969,220.21484,432.12891,0.0672817445326806,0.0486294108166172,-0.0179861415405771,8.55,35.25,49.65,299.80469,130.37109,970.70312,0.1322985752950481,-0.1279019163763492,-0.1700030976588069,52.5,12.6,93.15,-520.01953,218.75,856.44531,0.2740566606029804,-0.1127137121596442,-0.0242480338308824,50.7,27.9,37.65
-910.15625,236.81641,428.22266,-0.0021317451483858,0.0772741035661985,0.0089264864593249,11.4,32.7,50.1,322.75391,133.78906,955.56641,0.1045865864977326,-0.067015232755901,-0.1774640311452322,52.5,12.6,93.15,-514.16016,222.65625,864.25781,0.3015023121564416,-0.0810045703094112,-0.0639509581881746,50.7,27.9,37.65
-901.85547,222.65625,452.63672,-0.0185191650941362,0.0271791397766816,0.0523598775598298,8.55,35.25,49.35,321.28906,143.55469,971.19141,0.0812710820861907,-0.0788728251610253,-0.1494855305711371,54.6,11.85,93.75,-490.72266,219.23828,859.86328,0.2925758256971166,-0.0858009096268168,-0.0634181091675407,50.7,26.7,37.65
-898.4375,231.44531,449.21875,0.0155880591483369,0.0247810573844414,0.0311761182966739,8.55,35.25,49.35,364.25781,163.57422,957.51953,0.0330413516682802,-0.0587549384720623,-0.1295008125041012,55.8,12.0,95.1,-473.14453,234.86328,844.72656,0.2723245958533012,-0.0844685252758443,-0.093128674491315,50.7,26.7,37.65
-893.06641,233.39844,446.77734,-0.0382373713843925,0.0202512298438154,-0.0009327039522657,9.9,35.55,49.2,356.44531,157.22656,959.96094,-0.0193185258915496,-0.0909969293429291,-0.0989908863829135,54.75,13.2,94.05,-478.02734,259.76562,836.42578,0.2379510343669737,-0.0675482563094601,-0.0963261176809686,51.15,27.0,40.05
-910.15625,221.67969,440.42969,-0.0125237845806105,-0.058088746296576,0.0410353087082646,7.65,34.05,50.55,341.79687,163.57422,937.01172,0.0,-0.0656830229378538,-0.077007591789419,54.75,13.2,94.05,-477.53906,270.50781,842.28516,0.2396829245837277,-0.0470306892217904,-0.140026020558253,52.65,28.05,37.5
-901.36719,217.28516,434.57031,-0.0355727772153728,-0.0021317451483858,0.0102588708102974,9.0,34.95,50.4,330.56641,161.62109,939.94141,0.006128723668378,-0.0155880591483369,-0.1028545217480534,54.75,12.0,94.35,-512.20703,292.96875,826.17187,0.1558805914833695,-0.0434333911005048,-0.0909969293429291,52.65,28.05,37.5
-892.08984,224.12109,436.03516,-0.1153783063286639,-0.0074609334864253,-0.0109248884528585,7.95,34.5,51.15,310.54687,157.71484,950.68359,0.0070612530877186,-0.1417580853079322,-0.0570230482553083,54.75,9.3,92.25,-509.27734,293.45703,831.54297,0.1291011321053945,-0.059687642424328,-0.0788728251610253,51.15,27.3,38.55
-881.34766,229.49219,431.64062,-0.0945942274642146,0.0226493122360556,0.0057288687367461,7.95,34.5,51.15,303.22266,140.625,972.65625,-0.0487625794385443,-0.0583552580733556,-0.0850015488294034,53.4,12.75,94.05,-530.27344,281.25,858.88672,0.1191087730718766,-0.0162542513238231,-0.0555574952824086,51.15,28.05,39.3
-881.83594,228.02734,429.19922,-0.061419532641082,-0.0202512298438154,0.0135896571548034,10.05,34.5,50.1,298.82812,142.08984,973.63281,0.029044373148288,-0.1140459219776914,-0.0610198522423753,53.4,11.55,93.3,-544.43359,311.52344,842.28516,0.1019218177957876,-0.0358392889921523,-0.0487625794385443,51.0,27.9,38.4
-885.74219,216.30859,416.01562,-0.1120475199841579,0.0361056262360067,0.0563568560798221,8.25,33.0,49.05,297.36328,160.64453,1006.83594,-0.0503614755662963,-0.0976585020319411,-0.0398360929792193,53.7,12.0,93.6,-545.41016,300.29297,857.91016,0.1047197551196597,-0.0227824808579827,-0.0365053066347134,50.55,27.75,39.0
-909.17969,195.3125,411.13281,-0.152283293362084,0.0684807857288007,0.0458314734927451,8.25,34.95,49.65,329.10156,157.22656,1015.625,-0.0139893375535101,-0.0735436368229858,0.0247810573844414,52.8,12.9,93.45,-542.48047,293.45703,859.86328,0.0421010067495324,-0.0177198042967228,-0.0475635382424242,50.55,27.75,39.0
-903.80859,167.48047,412.59766,-0.050228132411444,-0.0050628510941851,-0.0030642745677264,8.25,34.95,49.65,291.01562,152.83203,965.82031,-0.0576890658978693,-0.0298437339457014,-0.006128723668378,52.8,12.9,93.45,-538.57422,264.64844,854.00391,0.0811377389313384,-0.0506278128101507,-0.055823832526263,52.8,26.7,39.45
-914.0625,174.80469,399.90234,-0.0927289940926083,0.0393032439585855,-0.0929953313364626,8.25,34.95,49.65,299.31641,130.85937,960.9375,-0.0917962901403425,-0.0305099261211876,0.0237151848102485,52.8,12.9,93.45,-537.59766,254.39453,893.55469,0.0608866836204481,-0.0427671989250186,-0.070346019100407,52.05,28.65,38.4
-893.06641,168.94531,420.41016,-0.0907304175661496,0.0373046674321268,-0.0676814249313873,9.3,34.2,49.65,301.75781,95.70313,988.28125,-0.0243813769857347,-0.0178529729186499,0.0447657754514773,52.5,12.6,92.7,-528.32031,220.21484,891.11328,0.015055210127703,-0.0606201718436686,0.0189188454928429,50.85,27.3,39.0
-882.8125,170.41016,437.5,-0.0590214502488418,-0.039569755735365,0.0018652333716063,9.45,35.1,48.75,310.54687,59.57031,1003.90625,-0.0508943245869302,-0.045165455850184,0.0947273960861418,54.75,10.8,93.3,-527.83203,182.12891,866.69922,0.0474303696204971,-0.0921959705390492,-0.0262466103573411,51.45,26.1,38.1
-880.85937,156.73828,427.24609,-0.122173047639603,0.016787100344457,-0.0275788201753884,9.6,34.5,49.65,338.86719,15.13672,973.14453,-0.0478300500192038,-0.0968591412345277,0.0113245688515652,53.85,10.65,94.5,-502.44141,169.92187,849.60937,0.0646171503636608,-0.0450321126953316,-0.0397029243572922,49.65,27.15,38.4
-899.90234,175.29297,425.78125,-0.0876661429984231,0.0151883787496302,0.0186523337160634,9.6,34.5,49.65,330.56641,11.71875,960.44922,-0.0335742006889141,-0.0664823837352672,-0.0250473946282958,53.7,11.55,91.8,-470.21484,168.94531,842.77344,0.0671485759107534,-0.086467101802303,-0.0385038831611721,51.9,27.75,39.6
-942.87109,199.21875,427.73437,-0.0267794593779749,-0.0480965617959833,0.0333078634450597,9.6,34.5,49.65,314.45312,31.73828,926.75781,-0.0062618922903052,-0.0001331686219271,0.0221164632154217,54.0,12.75,92.85,-463.37891,180.17578,825.68359,0.063018428768834,-0.0003996803987067,-0.0815375938629702,51.9,27.75,39.6
-951.66016,202.63672,426.26953,-0.0944608843093623,0.0030642745677264,0.0227824808579827,9.6,34.2,51.15,341.30859,78.61328,905.27344,-0.0023980823922402,0.0448989440734045,-0.03064326927604,54.3,11.4,93.45,-470.21484,179.19922,802.24609,-0.0391699008037331,-0.0179861415405771,-0.0928621627145355,51.6,28.05,38.55
-923.82812,216.79687,441.89453,-0.110981647409965,-0.0747426780191059,0.0018652333716063,10.65,33.0,49.65,316.89453,87.40234,907.71484,0.0013323843509724,0.1028545217480534,-0.0595542992694757,54.3,11.4,93.45,-479.98047,191.89453,823.73047,0.0163874199457503,0.0106585512090041,-0.1277687477544221,50.85,27.3,39.0
-913.57422,201.17187,447.75391,-0.0342403928644003,-0.1352296812408474,0.1000565844241813,8.1,34.05,50.25,330.07812,82.51953,924.31641,-0.0166539317225298,0.0479632186411309,0.0138559943986577,55.5,10.05,92.85,-473.14453,212.40234,830.56641,-0.0520933657830503,0.0294440535469947,-0.1167105161467112,51.0,26.4,39.9
-885.25391,206.05469,452.14844,-0.1212403436873373,-0.0867336135790826,0.0169204434993094,8.1,34.05,50.25,309.08203,101.5625,947.26562,-0.0470306892217904,0.0588882816269146,0.0075941021083525,54.3,11.4,93.15,-485.83984,211.91406,815.42969,-0.0855343978500373,-0.0137228257767306,-0.1717349878755608,52.95,28.05,38.25
-869.14062,205.56641,454.58984,-0.1710689702329998,-0.0227824808579827,0.0285115241276541,8.1,34.05,50.25,298.82812,97.65625,950.68359,-0.0676814249313873,0.0361056262360067,0.0097258472567384,54.0,11.55,92.25,-518.06641,213.86719,857.42187,-0.0247810573844414,-0.0095926786348112,-0.1105819670112583,50.85,27.0,39.6
-845.21484,194.33594,442.38281,-0.0576890658978693,-0.0249142260063686,0.1685375446859072,9.45,33.6,51.9,294.92187,78.125,953.61328,-0.1081837100860929,0.0003996803987067,0.0226493122360556,53.7,12.45,93.6,-520.01953,195.3125,858.88672,-0.1016554805519333,-0.0287778613715085,-0.1381607871866467,51.45,26.7,39.45
-842.77344,203.61328,432.12891,-0.043566559722432,-0.0161209081689708,0.0411684773301918,10.05,34.95,51.45,281.73828,62.98828,949.21875,-0.0947273960861418,0.0027979373238721,-0.0101255276554451,53.85,9.6,95.25,-533.69141,191.89453,863.28125,-0.0177198042967228,-0.0748760211739583,-0.1401591891801802,51.45,26.7,39.45
-841.79687,198.73047,426.75781,-0.0726111074036452,0.0155880591483369,0.0460979852695246,9.45,34.35,50.85,291.99219,53.22266,986.32812,-0.1011224569983742,-0.037970859607613,-0.0103920394322246,54.9,11.1,94.5,-540.03906,191.89453,861.81641,-0.1049862668964393,-0.0193185258915496,-0.1354961930176269,51.0,27.15,40.95
-852.05078,215.82031,410.64453,-0.0231821612566894,0.0474303696204971,0.0563568560798221,8.7,34.8,50.25,299.31641,28.32031,986.81641,-0.0694134896810664,-0.0487625794385443,-0.0049295079393327,54.9,11.1,94.5,-548.33984,184.57031,867.1875,0.018385996472209,-0.0157212277702641,-0.1248376418086228,51.0,27.15,40.95
-888.18359,225.58594,408.69141,0.0073277648644981,0.073676805444913,0.049162259837251,8.7,34.8,50.25,281.73828,8.30078,994.14062,-0.0776737839649052,-0.0586217698501351,-0.040235773377926,53.4,12.0,93.6,-556.15234,197.26562,857.42187,-0.0030642745677264,0.0085268060606182,-0.0800720408900706,49.65,26.1,38.7
-900.87891,225.09766,390.625,-0.0671485759107534,0.1714686506317065,-0.0087933178373978,8.1,35.1,50.85,289.0625,27.34375,985.83984,-0.0374380105869791,-0.0927289940926083,-0.0499617951675896,53.7,11.25,92.55,-548.82812,200.68359,863.76953,0.0398360929792193,-0.0539585991546566,-0.0318423104721601,50.85,26.25,39.3
-918.45703,201.17187,384.27734,-0.060753514998521,0.104320074720953,0.0294440535469947,8.7,35.55,50.25,297.85156,50.78125,986.81641,0.0262466103573411,-0.0724777642487929,-0.0169204434993094,52.8,11.1,92.7,-546.38672,230.95703,852.05078,0.0433002224785777,-0.0407687969314851,0.0147886983509235,50.85,26.25,39.3
-920.41016,187.5,385.25391,-0.0555574952824086,0.0106585512090041,-0.0598208110462552,9.45,35.85,50.55,304.19922,62.5,983.39844,0.0450321126953316,-0.1191087730718766,0.0017320647496791,52.8,11.1,92.7,-520.99609,223.14453,841.79687,-0.03064326927604,-0.0382373713843925,-0.0249142260063686,51.9,26.55,38.55
-907.71484,168.94531,381.83594,-0.0353062654385932,0.0141225061754373,-0.0774072721881257,9.0,34.2,50.1,295.89844,82.51953,969.23828,-0.0169204434993094,-0.0551578148837019,-0.0102588708102974,54.45,12.0,93.6,-523.4375,250.48828,857.42187,0.0063950609122324,-0.0555574952824086,0.0171867807431637,50.85,26.55,40.05
-909.17969,173.33984,381.83594,0.0054625314928918,-0.0182526533173567,-0.0676814249313873,9.0,34.2,50.1,313.96484,106.93359,954.58984,0.0301102457224809,-0.0800720408900706,0.0345069046411798,52.65,11.55,94.35,-508.30078,236.81641,831.05469,-0.0762082309920056,-0.0423675185263119,-0.0077274452632048,50.85,26.55,40.05
-913.08594,172.85156,388.18359,0.0154548905264097,-0.0430337107017981,-0.018385996472209,8.55,34.95,51.45,330.07812,120.11719,948.24219,-0.031309286918601,-0.0608866836204481,0.0334410320669869,52.65,11.55,94.35,-509.76562,241.21094,858.88672,-0.1000565844241813,-0.0369049870334201,-0.0191853572696224,51.0,26.4,38.7
-913.57422,183.10547,412.10937,-0.0265129476011954,0.0210505906412288,-0.1309663654770009,9.6,35.25,50.7,321.28906,104.49219,966.30859,-0.0519601971611231,-0.049162259837251,0.045165455850184,53.1,10.65,92.7,-510.74219,255.37109,833.00781,-0.1364287224369675,0.0009327039522657,0.0018652333716063,51.0,26.4,38.7
-923.82812,167.48047,404.78516,0.0383705400063197,-0.0622190679714206,-0.0590214502488418,8.55,35.7,51.45,322.26562,116.69922,979.49219,-0.0423675185263119,-0.071944915228159,0.1490856756395052,52.65,10.05,94.05,-526.36719,237.79297,825.19531,-0.1883889195980907,-0.0345069046411798,-0.0568897051004559,51.15,26.25,40.05
-922.85156,174.31641,408.69141,-0.0237151848102485,-0.0957932686603347,-0.0309096065198943,10.35,35.25,49.05,306.64062,104.98047,958.98437,-0.0807380585326316,-0.068081105330094,0.1341638086666545,54.0,11.25,93.3,-535.64453,243.65234,836.42578,-0.1728008604497538,-0.0355727772153728,-0.0119907610270514,51.75,25.35,39.15
-897.46094,156.25,407.22656,0.0066615726890119,-0.061419532641082,-0.0699463387017003,10.35,35.25,49.05,290.52734,85.44922,959.47266,-0.1061853080925594,-0.0806048899107045,0.1630750131930153,54.0,11.25,93.3,-544.92187,224.60937,812.5,-0.2495421149953184,-0.0031976177225788,0.0075941021083525,52.5,25.65,38.4
-894.53125,150.39062,402.34375,0.0129234649793172,-0.0716784034513795,-0.089797888146809,7.95,34.95,51.15,289.0625,74.21875,960.44922,-0.0971256530113072,-0.0281118437289474,0.1361623851931132,52.95,10.8,95.7,-519.53125,198.73047,859.86328,-0.225294081164436,0.0138559943986577,0.0351730968166661,50.55,26.25,37.5
-922.85156,178.71094,406.73828,-0.0153215473715574,-0.0508943245869302,-0.0744763407752516,8.55,35.25,50.4,278.32031,54.6875,951.66016,-0.0952604196397009,-0.0247810573844414,0.1496186991930643,52.95,12.0,94.05,-536.13281,203.61328,841.79687,-0.2835159960829392,0.013456313999951,0.0373046674321268,50.55,26.25,37.5
-925.78125,165.03906,393.06641,-0.0149218669728507,0.0194516945134768,-0.0975253334100139,9.15,34.35,50.85,290.03906,46.38672,965.82031,-0.1068515002680456,-0.0285115241276541,0.13776110678794,52.95,12.0,94.05,-544.43359,179.6875,811.03516,-0.268860640886868,0.0094593354799588,0.0127901218244648,51.9,25.5,39.0
-932.12891,152.34375,404.29687,0.0516936853843436,-0.060753514998521,0.0007993607974134,9.15,34.35,49.8,281.25,37.59766,967.28516,-0.04849624219469,-0.0083936374386911,0.1696034172601001,53.4,10.5,93.6,-540.52734,179.6875,826.66016,-0.1958498530845161,0.0522267089379027,0.0463644970463041,51.9,25.5,39.0
-928.71094,157.71484,408.20312,0.023981696587028,-0.0615528757959344,0.0274456515534612,9.15,34.35,49.8,278.80859,44.43359,960.44922,-0.0475635382424242,-0.0235820161883213,0.1276355791324949,51.9,11.25,94.05,-556.64062,186.03516,817.87109,-0.2178331476780106,0.0125237845806105,0.1096492630589925,49.8,26.25,39.3
-941.40625,160.15625,406.73828,-0.0047963393174056,-0.0115910806283447,-0.0079939570399844,8.25,34.5,51.15,261.71875,49.80469,964.35547,-0.0258469299586344,-0.069680001457846,0.1093829258151382,54.3,12.9,95.55,-548.82812,183.59375,823.24219,-0.2228958242392706,0.0401026047559989,0.096459460835821,50.55,26.55,37.95
-935.54687,161.13281,410.64453,0.0796723604913639,-0.0299770771005538,0.0366386497895657,10.35,33.45,51.15,259.27734,42.96875,968.75,0.0062618922903052,-0.049162259837251,0.17346705262524,54.3,12.9,95.55,-545.41016,188.96484,819.33594,-0.2568698798598167,0.0198513749121835,0.0824701232823108,50.55,27.0,40.35
-921.38672,167.96875,407.22656,0.0093261668580317,0.045165455850184,0.0222496318373489,9.45,34.35,51.9,280.76172,61.03516,954.10156,0.0101255276554451,-0.023981696587028,0.1835925802806851,53.85,11.4,94.8,-539.0625,197.26562,831.05469,-0.3182894125008987,0.0331745202902074,0.0530260697353161,50.55,25.8,39.6
-935.05859,184.08203,402.83203,0.031309286918601,0.1013889687751538,0.0371714988101996,9.3,33.75,49.65,297.36328,62.5,976.5625,0.023448673033469,-0.0253139064050753,0.1889219431516497,52.95,9.0,95.4,-545.89844,185.05859,830.07812,-0.3102956299938395,0.060753514998521,0.0979250138087206,51.0,25.65,40.2
-960.44922,187.01172,407.22656,0.0452986244721112,0.0353062654385932,0.0555574952824086,9.3,33.75,49.65,299.80469,66.40625,969.72656,0.0676814249313873,-0.0619525561946411,0.1849249646316576,52.95,9.0,95.4,-537.59766,205.07812,810.54687,-0.323485432217011,0.0603538345998143,0.1211071750654101,51.0,24.9,39.15
-839.84375,433.59375,204.58984,0.175731966395553,-0.0119907610270514,-0.039569755735365,3.6,38.55,39.9,325.68359,102.53906,968.26172,-0.0289112045263608,-0.0199847180670358,-0.2280918439553829,52.65,15.75,95.4,-538.08594,154.78516,871.09375,0.342404277709854,-0.1420244225517865,-0.1229724084370164,51.15,26.55,36.45
-890.13672,427.73437,208.49609,0.1534823345582041,0.0520933657830503,-0.1116478395854512,4.05,39.3,40.2,327.63672,102.53906,978.02734,-0.0391699008037331,-0.0891316959713228,-0.2435467344817927,52.65,14.7,93.3,-551.26953,153.32031,862.30469,0.2885788471771244,-0.1847917960097304,-0.074209828998472,51.45,26.7,37.65
-936.03516,455.07812,214.84375,0.1656064387401079,-0.0366386497895657,-0.0981913510525749,2.7,38.4,38.7,336.42578,98.63281,977.05078,-0.0199847180670358,0.007860613885132,-0.2684609604881613,53.1,14.4,93.45,-537.59766,183.10547,836.91406,0.3218867106221842,-0.1249709849634751,-0.0911300979648563,51.9,28.5,39.0
-935.54687,455.56641,226.07422,0.1931852589154963,-0.1426906147272728,-0.0678147680862396,2.7,38.4,38.7,343.75,131.34766,980.46875,0.0133231453780239,0.0202512298438154,-0.300036759183542,52.8,14.4,93.15,-539.55078,176.26953,895.01953,0.3212205184466979,-0.0848683802074762,-0.0723445956268657,50.85,28.8,37.5
-906.73828,464.84375,212.89062,0.1481531462201646,-0.1171101965454179,-0.0522267089379027,2.1,38.85,39.45,333.00781,138.18359,992.1875,0.0229158240128351,0.0015987215948268,-0.2867136138055181,53.7,14.25,93.3,-541.50391,201.17187,853.51562,0.3202878144944322,-0.0973919902551615,-0.0666155523571943,49.65,26.1,37.35
-899.90234,453.61328,192.38281,0.0883323351739094,-0.1185757495183175,-0.0940612039106556,0.3,37.35,39.75,328.125,151.36719,982.42187,-0.0373046674321268,-0.0198513749121835,-0.2455451364753262,53.7,14.25,93.3,-540.03906,204.58984,839.84375,0.3705161214388014,-0.1292343007273217,-0.0944608843093623,52.35,27.0,37.95
-924.31641,453.125,206.54297,0.1402925323350325,-0.162275652395602,-0.0679479367081668,1.8,38.55,38.55,312.98828,170.41016,957.03125,0.0083936374386911,-0.0454317930940384,-0.2424808619075998,53.7,14.25,93.3,-548.33984,215.33203,873.53516,0.3449357032569465,-0.1033873707686873,-0.0494287716140306,52.35,27.0,37.95
-934.08203,443.35937,215.82031,0.1664057995375213,-0.1893216235503565,-0.0546247913301429,2.7,37.65,39.45,319.82422,154.78516,930.66406,-0.0182526533173567,-0.0472970264656447,-0.279918872494579,53.4,15.0,93.6,-543.45703,181.15234,823.73047,0.3897014787084239,-0.1061853080925594,-0.0977916706538682,50.7,27.9,38.7
-925.78125,423.82812,216.79687,0.1889219431516497,-0.200779535556774,-0.1016554805519333,2.7,37.65,39.45,305.17578,154.78516,973.63281,-0.037970859607613,-0.0126569532025376,-0.2113047436109259,53.4,15.75,91.8,-536.62109,205.56641,869.14062,0.4094196849986802,-0.1243047927879889,-0.0559571756811154,51.15,29.25,37.5
-916.50391,441.40625,239.74609,0.1200413024912172,-0.1289677889505422,-0.1116478395854512,2.7,37.65,39.45,322.26562,141.11328,972.16797,-0.0604870032217414,-0.0023980823922402,-0.2474103698469326,51.9,13.95,93.3,-522.94922,231.44531,846.67969,0.3679846958917088,-0.1287014517066878,-0.082603291904238,50.85,27.3,37.5
-936.52344,454.58984,232.91016,0.1713353074768541,-0.2280918439553829,-0.0747426780191059,3.0,38.55,38.85,319.82422,153.32031,975.09766,-0.06634921511334,0.0271791397766816,-0.2664625584946278,51.3,13.65,93.75,-514.64844,228.51562,829.10156,0.3947641552696838,-0.0903307371674429,-0.0538254305327295,51.0,27.15,38.1
-896.97266,448.73047,235.83984,0.1421577657066389,-0.2752557017991005,-0.0712787230526728,3.6,37.95,39.9,340.33203,159.66797,971.67969,-0.0311761182966739,0.0763415741468579,-0.2512741797449976,52.5,14.4,93.75,-513.18359,246.58203,854.49219,0.3198883086286507,-0.0751423584178126,-0.0583552580733556,52.35,28.8,38.25
-901.85547,474.60937,227.53906,0.0992572236267679,-0.1562802718820762,-0.1197749652473628,2.25,38.25,38.85,332.51953,152.34375,947.26562,-0.1073843492886795,0.0397029243572922,-0.2143690181786523,51.9,13.95,92.85,-513.67187,243.16406,800.78125,0.3004364395822487,-0.0956601000384076,-0.0758085505932989,50.55,28.05,38.55
-887.69531,465.82031,260.25391,0.0229158240128351,-0.1849249646316576,0.0015987215948268,3.6,37.95,39.9,322.26562,170.89844,935.05859,-0.095393588261628,-0.0179861415405771,-0.213036808360605,51.9,13.95,92.85,-526.85547,270.01953,875.48828,0.3458682326762871,-0.0391699008037331,-0.0879326547752027,50.55,28.05,38.55
-867.67578,431.64062,266.11328,0.0438330714992115,-0.2498086267720979,-0.0365053066347134,3.6,37.95,39.9,333.49609,175.78125,936.03516,-0.091529778363563,-0.015055210127703,-0.2430137109282336,52.8,15.15,93.75,-517.57812,286.62109,823.24219,0.212503784807046,-0.0981913510525749,-0.0735436368229858,50.85,27.3,37.95
-857.91016,436.03516,269.53125,0.0425006871482391,-0.1593445464498027,-0.0640843013430269,2.4,38.1,41.55,342.28516,177.73437,945.80078,-0.0668820641339739,-0.0165205885676775,-0.2215636144212233,53.55,14.1,92.4,-509.27734,273.4375,848.14453,0.2771209351707068,-0.0566231933236764,-0.1469541050240445,50.1,28.5,38.25
-874.02344,441.89453,258.30078,0.0499617951675896,-0.1303001733015146,-0.0130566336012443,4.5,38.1,41.1,315.42969,184.57031,952.63672,-0.0583552580733556,0.0422343499043847,-0.2175666359012311,52.65,13.95,94.05,-522.46094,272.94922,840.33203,0.2199647182934713,-0.0534257501340228,-0.077540615342978,50.85,28.05,38.55
-892.08984,426.75781,252.44141,0.0743429976203992,-0.1629418445710882,0.0222496318373489,3.3,38.25,40.2,315.42969,194.33594,930.66406,-0.0756753819713717,0.0130566336012443,-0.1887885999967974,52.65,13.95,94.05,-526.85547,269.04297,819.82422,0.2238285281915364,-0.0977916706538682,-0.0643506385868813,49.8,29.25,37.5
-895.50781,436.03516,238.76953,0.116577347524784,-0.1354961930176269,-0.0173201238980161,3.15,36.15,39.0,324.21875,173.33984,957.51953,-0.1291011321053945,0.0448989440734045,-0.1434899755246862,54.0,13.2,93.6,-496.58203,285.64453,842.28516,0.2315559734547413,-0.0730107878023519,-0.1405590441118121,51.45,27.45,38.4
-887.69531,416.99219,240.72266,0.0722112524720134,-0.1204409828899239,-0.0668820641339739,3.15,36.15,39.0,342.77344,162.10937,973.14453,-0.1059187963157798,-0.0051960197161123,-0.1336309596460206,53.55,13.65,92.7,-503.90625,275.87891,827.63672,0.1225727280383097,-0.0531592383572432,-0.1287014517066878,50.85,29.55,39.3
-898.92578,407.71484,236.32812,0.1405590441118121,-0.1580123366317554,0.0109248884528585,3.75,37.65,40.05,326.66016,173.82812,952.63672,-0.1609432680446295,0.0206509102425221,-0.1163108357480045,53.55,13.65,92.7,-497.07031,275.87891,816.89453,0.1693369054833206,-0.0464976656682313,-0.1012558001532266,50.85,29.55,39.3
-899.90234,412.10937,260.25391,0.1714686506317065,-0.164540566165915,0.0141225061754373,2.4,37.35,40.05,312.98828,153.32031,926.26953,-0.1195084534705833,-0.0154548905264097,-0.1346968322202135,55.35,12.9,93.75,-510.74219,240.72266,849.60937,0.1478866344433851,-0.0872664625997164,-0.0995237354035474,50.85,29.55,39.3
-839.35547,382.8125,261.23047,0.1147121141531777,-0.1481531462201646,-0.0784731447623186,2.7,37.65,39.0,305.66406,151.36719,890.625,-0.0891316959713228,-0.0536922619108023,-0.1277687477544221,53.4,14.7,92.85,-507.32422,236.81641,846.67969,0.1257703457608885,-0.039569755735365,-0.067015232755901,51.45,28.65,38.4
-808.10547,372.55859,265.625,0.2320888224753751,-0.1713353074768541,-0.0151883787496302,2.25,37.5,39.9,324.21875,134.76562,918.45703,-0.0928621627145355,-0.0194516945134768,-0.1136462415789847,53.1,12.6,93.45,-485.35156,257.32422,860.83984,0.1532159973143498,-0.0923293136939016,-0.0883323351739094,51.45,28.65,38.4
