IMU1_AccX,IMU1_AccY,IMU1_AccZ,IMU1_GyrX,IMU1_GyrY,IMU1_GyrZ,IMU1_MagX,IMU1_MagY,IMU1_MagZ,IMU2_AccX,IMU2_AccY,IMU2_AccZ,IMU2_GyrX,IMU2_GyrY,IMU2_GyrZ,IMU2_MagX,IMU2_MagY,IMU2_MagZ,IMU3_AccX,IMU3_AccY,IMU3_AccZ,IMU3_GyrX,IMU3_GyrY,IMU3_GyrZ,IMU3_MagX,IMU3_MagY,IMU3_MagZ
-1038.08594,412.59766,-181.64062,-0.0716784034513795,0.1175098769441246,0.4075542770941487,-3.0,33.75,27.3,373.04687,-72.26563,980.46875,-0.1786630723413523,-0.1983812786316086,-0.1540153581117632,47.4,16.35,93.15,-571.28906,-98.14453,888.18359,0.0716784034513795,-0.1881225823542364,-0.1003230962009608,52.5,24.15,40.2
-998.04687,432.61719,-161.62109,0.0427671989250186,0.0029311059457992,0.4721714274578095,-4.5,34.8,28.2,394.04297,-85.44922,996.58203,-0.1524164619840112,-0.2011792159554807,-0.2390169069411666,47.55,16.2,95.1,-587.40234,-108.88672,876.46484,0.1588116974291688,-0.1573461444562691,-0.1075176924435318,52.5,24.15,40.2
-970.21484,450.68359,-150.87891,0.0744763407752516,-0.0039969785199922,0.463511452775264,-3.45,36.9,27.15,369.14062,-45.41016,1017.08984,-0.0839356762552105,-0.3174900517034853,-0.284448700035205,47.7,17.1,93.75,-587.89062,-79.10156,875.48828,0.2583354328327162,-0.1941179628677621,-0.0912634411197086,51.9,25.5,39.6
-965.33203,456.05469,-140.625,0.0535589187559499,0.0357059458372999,0.4159479145328398,-2.7,35.85,27.9,363.28125,-40.52734,963.37891,-0.050761155965003,-0.194650811888396,-0.3583920172568976,45.9,15.9,93.45,-587.40234,-30.27344,895.99609,0.305632459298361,-0.1642740543891354,-0.0382373713843925,50.85,25.05,38.55
-967.28516,451.17187,-134.76562,0.1449555284975858,-0.0903307371674429,0.4676415999171834,-2.7,35.85,27.9,406.25,9.27734,984.375,-0.0676814249313873,-0.2542052856907969,-0.4103522144180208,47.4,15.9,94.8,-589.35547,31.25,861.32812,0.3264165381628103,-0.0818039311068246,-0.1081837100860929,51.15,24.0,39.6
-920.41016,436.03516,-117.67578,0.1334976164911682,-0.0430337107017981,0.4736371549636343,-2.4,34.35,27.9,406.73828,29.78516,991.21094,-0.0452986244721112,-0.1859908372058505,-0.380908160871026,46.65,17.4,94.5,-576.66016,71.77734,887.20703,0.3911668571483984,-0.128834620328615,-0.0944608843093623,52.35,23.25,39.3
-931.15234,434.57031,-110.83984,0.13776110678794,-0.0674150876875329,0.4038239848838612,-3.0,35.25,27.75,374.51172,86.42578,934.08203,-0.018385996472209,-0.170136266280734,-0.4588484566127108,46.65,17.4,94.5,-565.42969,61.03516,850.09766,0.3642542291484961,-0.0892648645932499,-0.0744763407752516,52.35,23.25,39.3
-939.45312,463.37891,-88.86719,0.1858576685839233,-0.0542251109314362,0.3490658503988659,-2.7,35.1,27.9,427.73437,88.37891,939.94141,-0.0397029243572922,-0.1558805914833695,-0.460180666430758,48.3,16.95,94.65,-545.89844,91.30859,905.76172,0.3841056040606797,-0.1573461444562691,-0.0712787230526728,51.6,24.3,39.6
-956.05469,500.48828,-88.86719,0.2045100022999867,-0.0940612039106556,0.3505314033717656,-3.0,35.25,27.0,425.29297,109.86328,957.03125,-0.0425006871482391,-0.196249708016148,-0.4569832232411044,46.65,16.35,94.2,-528.80859,111.32813,871.09375,0.3689173998439746,-0.1120475199841579,-0.0755420388165193,50.85,25.8,39.0
-964.35547,496.09375,-67.87109,0.1843921156110237,-0.1624088210175291,0.2434133913269403,-3.0,35.25,27.0,447.26562,114.74609,940.91797,-0.0289112045263608,-0.1348300008421407,-0.4608468586062443,47.1,15.15,94.8,-518.55469,76.17188,815.42969,0.3863706923639179,-0.1830597312600512,-0.0503614755662963,50.25,26.1,40.2
-935.05859,454.58984,-71.28906,0.2119709357864121,-0.1562802718820762,0.1802617939361791,-3.0,35.25,27.0,456.54297,77.14844,900.87891,-0.0215834396618626,-0.2162342515502586,-0.4435267347082282,48.45,16.35,94.8,-502.44141,107.42188,891.11328,0.4050230260799813,-0.1264363634034496,-0.1354961930176269,51.45,25.35,40.2
-930.66406,453.61328,-58.59375,0.2372848421914875,-0.1753322859968463,0.1381607871866467,-1.8,36.45,27.75,451.66016,69.82422,917.96875,0.0214502710399355,-0.1677381838884938,-0.4731041314100753,46.5,15.45,94.05,-518.55469,125.0,859.86328,0.3916998807019574,-0.0768744231674918,-0.0723445956268657,49.8,25.8,37.5
-935.05859,463.86719,-61.52344,0.2137030005360913,-0.1107151356331855,0.1009892883764471,-3.0,36.45,28.05,432.12891,66.40625,889.16016,0.0297105653237742,-0.1609432680446295,-0.430603269728911,46.5,15.0,95.1,-522.94922,117.67578,907.22656,0.4266064657418439,-0.0682144484849463,-0.0921959705390492,51.75,24.9,39.45
-939.45312,443.35937,-42.96875,0.2053093630974001,-0.1404257009569597,0.0624854052152749,-3.45,35.1,28.5,436.52344,90.82031,913.08594,0.0559571756811154,-0.1656064387401079,-0.4608468586062443,46.5,15.0,95.1,-562.98828,130.37109,819.33594,0.3666523115407363,-0.0274456515534612,-0.014522186574144,51.75,24.9,39.45
-918.45703,451.66016,-39.0625,0.2330213518947157,-0.1390934911389125,0.0425006871482391,-2.4,35.55,27.45,397.94922,130.85937,898.4375,0.0345069046411798,-0.0891316959713228,-0.433934056073417,48.0,15.45,94.05,-556.15234,149.41406,834.47266,0.4018254083574025,-0.0233155044115418,-0.0869999508229369,51.0,24.9,38.7
-912.59766,466.30859,-30.76172,0.2442129266572789,-0.0091929982361045,-0.0193185258915496,-2.4,35.55,27.45,370.60547,162.59766,880.37109,0.0258469299586344,-0.2320888224753751,-0.4455253112346869,47.25,15.75,94.35,-565.91797,155.27344,855.95703,0.4290045481340842,-0.071944915228159,-0.0876661429984231,51.0,24.9,38.7
-905.27344,465.82031,-36.62109,0.1982481100096814,-0.0091929982361045,-0.036238969390859,-3.3,35.25,29.4,376.95312,189.94141,872.07031,0.0460979852695246,-0.2288912047527963,-0.4736371549636343,46.2,15.75,94.35,-532.71484,166.99219,855.46875,0.3301470049060229,-0.1008561197545199,-0.0866002704242302,52.35,24.3,40.05
-894.04297,479.98047,-24.90234,0.193584939314203,-0.0109248884528585,-0.0019984019935335,-4.5,32.85,29.55,401.36719,190.42969,935.54687,0.0427671989250186,-0.2082404690431994,-0.4621792429572168,46.2,15.75,94.35,-550.29297,162.10937,868.16406,0.2928423374738961,-0.1496186991930643,-0.1041869060990259,51.15,25.5,39.6
-883.30078,475.58594,-15.13672,0.0944608843093623,0.0527595579585365,-0.0322419908708668,-3.6,36.0,28.05,406.25,182.61719,928.22266,0.0355727772153728,-0.2199647182934713,-0.4320689972347358,45.15,14.85,93.75,-520.99609,145.99609,854.98047,0.2927089943190438,-0.161209779821409,-0.0824701232823108,52.8,26.7,38.7
-867.67578,472.65625,-10.25391,0.0827366350590903,0.0478300500192038,-0.0479632186411309,-4.2,33.6,27.45,470.21484,158.69141,956.54297,0.0071944217096458,-0.2355527774418083,-0.4084869810464144,47.4,16.65,94.2,-508.78906,158.20312,895.01953,0.3398728521627613,-0.1738667330239467,-0.1506845717672572,51.45,24.6,40.2
-879.39453,446.77734,-20.01953,0.0760750623700784,0.0211837592631559,0.0025314255470925,-4.2,33.6,27.45,476.07422,139.16016,923.82812,-0.027312482931534,-0.2580689210559367,-0.3947641552696838,47.4,16.65,94.2,-483.88672,156.25,849.12109,0.2816509372442581,-0.0992572236267679,-0.1219065358628235,51.45,24.6,40.2
-889.64844,451.17187,-23.4375,0.0322419908708668,0.0929953313364626,0.0482297304179105,-2.7,34.05,28.2,478.51562,146.97266,899.90234,-0.051827028539196,-0.2065084042935202,-0.3766446705742543,47.7,17.1,94.5,-469.72656,168.94531,858.39844,0.3464012562298461,-0.1428239578821251,-0.219698381049617,52.05,26.7,38.7
-919.92187,449.21875,-54.6875,0.0510274932088574,0.1509510835440367,0.0702128504784798,-3.75,34.05,26.4,485.35156,178.22266,863.76953,-0.005595700114819,-0.2150352103541385,-0.3562602721085117,47.25,15.45,92.55,-461.91406,191.40625,882.32422,0.2669954075152617,-0.1183094122744632,-0.1421577657066389,52.05,26.7,38.7
-934.08203,484.375,-51.26953,0.0393032439585855,0.0678147680862396,0.1370949146124538,-3.75,35.85,28.5,490.23437,166.99219,862.30469,-0.0710122112758932,-0.2131699769825322,-0.369183737087829,47.7,16.35,94.2,-463.37891,187.98828,817.87109,0.2708590428804016,-0.0522267089379027,-0.0907304175661496,52.05,24.9,39.15
-943.35937,472.16797,-71.28906,0.0267794593779749,0.0758085505932989,0.2015788963541875,-4.2,34.35,27.15,475.09766,194.82422,862.79297,-0.0640843013430269,-0.1630750131930153,-0.3603905937833563,47.7,16.35,94.2,-479.49219,205.56641,833.98437,0.2424808619075998,-0.0141225061754373,-0.1580123366317554,51.6,25.5,39.0
-923.82812,451.66016,-77.63672,-0.0455651362488907,0.1149786259299572,0.1830597312600512,-4.2,34.35,27.15,480.46875,205.56641,871.09375,-0.0893982077481023,-0.1677381838884938,-0.3317457265008497,47.7,16.35,94.2,-501.46484,206.05469,835.44922,0.1841256038342442,0.0089264864593249,-0.0901975685455157,51.6,25.5,39.0
-870.60547,431.64062,-94.72656,0.0051960197161123,0.1208406632886305,0.3337443030273085,-3.45,35.85,27.45,434.08203,191.89453,850.09766,-0.0287778613715085,-0.1598775700033617,-0.3396065149189071,45.9,16.35,94.5,-536.13281,208.98437,889.64844,0.1393598283827668,0.0037304667432126,-0.1452220402743654,52.05,25.65,40.2
-865.72266,409.17969,-101.07422,0.0086599746825454,0.1208406632886305,0.3885022629793786,-5.1,35.25,28.8,440.91797,191.89453,920.41016,-0.1099157748357721,-0.1398928519363259,-0.3682512076684884,48.0,15.45,95.1,-541.50391,187.5,861.32812,0.1000565844241813,-0.0089264864593249,-0.1833262430368307,51.9,25.05,39.3
-902.34375,430.66406,-98.14453,-0.0519601971611231,0.1448223598756587,0.5200014774770134,-3.6,34.5,26.25,450.68359,151.36719,961.91406,-0.1741332448007262,-0.1999801747593606,-0.2812510823126262,47.1,15.9,94.2,-545.89844,178.71094,870.60547,0.1223062162615302,-0.0515605167624164,-0.1328315988486072,51.9,24.3,40.35
-944.33594,456.54297,-91.79688,-0.0860674214035963,0.1652067583414012,0.5786232473271485,-4.35,35.25,27.0,428.71094,116.21094,965.33203,-0.1240382810112094,-0.2444792639011333,-0.2853812294545456,47.25,15.0,94.35,-541.50391,161.62109,876.46484,0.1538820149569108,-0.0731439564242791,-0.1019218177957876,50.85,25.05,39.6
-1011.71875,473.63281,-132.32422,-0.2479433934004916,0.1963828766380752,0.6280520189411791,-4.35,35.25,27.0,433.59375,90.82031,943.84766,-0.0527595579585365,-0.2470106894482258,-0.2514073483669248,46.8,14.7,94.35,-538.57422,188.47656,871.58203,0.1601439072472161,-0.078606487917171,-0.0798055291132911,50.85,25.05,39.6
-995.60547,504.39453,-154.78516,-0.3847717962361659,0.0652833425391471,0.70545946566223,-4.05,34.95,27.75,418.94531,116.69922,895.99609,-0.0997902471803269,-0.2087733180638333,-0.2993705670080557,46.8,15.0,94.35,-515.13672,179.6875,833.49609,0.1778637115439389,-0.0568897051004559,-0.1068515002680456,50.55,24.75,39.6
-892.08984,437.01172,-125.97656,-0.4139495125393063,-0.0579555776746489,0.6981317007977318,-4.2,35.85,27.45,420.89844,133.78906,869.62891,-0.0584886012282079,-0.1898544725709904,-0.278852999920386,46.8,15.0,94.35,-518.06641,183.10547,848.63281,0.1200413024912172,-0.0153215473715574,-0.0660827033365605,51.15,25.05,40.35
-863.28125,367.67578,-100.58594,-0.4767014295313608,-0.0342403928644003,0.697198996845466,-4.5,36.6,26.85,419.43359,163.57422,838.86719,-0.0353062654385932,-0.1552143993078833,-0.2901775687719512,46.35,14.85,94.8,-531.73828,194.33594,850.58594,0.1348300008421407,-0.0118575924051242,-0.1016554805519333,52.05,24.9,39.9
-832.51953,356.93359,-74.21875,-0.3721148430336282,0.0374380105869791,0.6662893903255717,-4.05,36.45,27.75,430.66406,193.35937,892.08984,-0.0576890658978693,-0.1361623851931132,-0.2183659966986445,47.25,14.7,95.1,-520.01953,201.17187,845.70312,0.1528161423827179,-0.0155880591483369,-0.1529494855375703,50.55,24.0,40.35
-857.42187,382.8125,-73.73047,-0.2346202480224677,0.0114579120064175,0.65190054690628,-4.05,36.45,27.75,424.80469,199.21875,873.53516,-0.0178529729186499,-0.1358958734163337,-0.1806614743348858,47.25,14.7,93.6,-498.53516,187.98828,793.94531,0.1009892883764471,-0.0499617951675896,-0.0936615235119489,50.85,24.3,40.35
-885.25391,411.13281,-81.54297,-0.2134364887593117,0.0546247913301429,0.5577059998407721,-5.4,36.75,27.0,427.24609,187.5,878.41797,-0.0397029243572922,-0.0542251109314362,-0.1108484787880378,47.25,14.7,93.6,-534.66797,185.54687,815.42969,0.0289112045263608,-0.085934078248744,-0.1140459219776914,51.75,25.35,39.9
-935.05859,344.72656,-12.20703,-0.050228132411444,-0.0571562168772355,-0.0610198522423753,-0.6,35.1,29.55,416.99219,171.38672,889.16016,-0.1320322380511938,-0.0788728251610253,0.0249142260063686,47.4,15.6,95.55,-515.625,185.54687,872.55859,-0.1112481591867445,-0.0628850856139816,-0.0985910314512816,53.85,25.65,38.1
-926.75781,347.65625,-26.85547,-0.0699463387017003,0.004529827540626,-0.213036808360605,-0.6,35.1,29.55,414.0625,159.17969,901.85547,-0.1958498530845161,-0.1496186991930643,0.0202512298438154,48.3,15.0,95.7,-508.30078,165.52734,827.14844,-0.2085068062870538,0.0075941021083525,-0.1810613292665177,52.35,27.0,39.6
-912.59766,345.21484,-20.99609,-0.0764747427687851,-0.0083936374386911,-0.1306998537002213,0.0,34.35,29.25,452.14844,133.78906,865.72266,-0.1263031947815224,-0.1766646703478188,0.0175864611418704,48.15,15.15,95.25,-500.0,167.48047,858.88672,-0.1021883295725672,-0.0411684773301918,-0.055823832526263,52.35,27.0,39.6
-893.55469,342.28516,-0.97656,-0.050761155965003,-0.0847350370526239,-0.1103154552344788,0.15,33.0,31.95,436.52344,118.65234,860.83984,-0.1669388230910804,-0.1303001733015146,0.0405022851547056,48.15,15.15,95.25,-489.74609,154.29687,829.58984,-0.1670719917130076,-0.0631515973907612,-0.1287014517066878,52.5,26.4,39.6
-882.8125,337.40234,-1.46484,-0.0550244717288496,-0.0480965617959833,-0.0794058487145844,-0.45,32.7,30.15,443.84766,124.51172,865.23437,-0.1113813278086717,-0.2023782571516009,0.0386370517830992,48.0,14.7,94.35,-512.20703,137.20703,849.60937,-0.1051194355183664,0.0017320647496791,-0.1117810082073784,52.65,26.4,38.4
-915.03906,307.12891,2.44141,-0.073676805444913,-0.0618192130397887,-0.1785299037194251,-1.35,34.35,29.55,448.73047,124.02344,913.08594,-0.2356861205966606,-0.1275022359776425,0.0762082309920056,49.05,14.25,94.05,-499.51172,140.625,854.00391,-0.1179097318757565,-0.043566559722432,-0.1352296812408474,52.65,25.8,39.3
-927.24609,304.19922,2.44141,-0.1051194355183664,-0.032908183046353,-0.2260934419618494,-1.35,34.35,29.55,445.3125,85.44922,883.78906,-0.18625734898263,-0.1514839325646706,0.0258469299586344,49.05,14.25,94.05,-494.14062,120.11719,815.42969,-0.1055191159170731,0.0450321126953316,-0.095393588261628,51.9,24.3,39.6
-930.66406,344.72656,-4.88281,-0.0421010067495324,-0.0771409349442713,-0.164540566165915,0.45,34.5,31.2,411.62109,77.63672,843.75,-0.15561407970659,-0.061419532641082,0.0163874199457503,48.6,14.7,95.1,-534.17969,124.02344,863.76953,-0.0542251109314362,-0.0343737360192527,-0.0971256530113072,52.8,25.65,39.15
-935.05859,327.14844,-4.88281,-0.0563568560798221,-0.0407687969314851,-0.1448223598756587,-0.45,34.2,30.15,391.60156,58.10547,892.57812,-0.0957932686603347,-0.0891316959713228,0.0039969785199922,47.4,14.1,94.2,-517.57812,131.83594,840.33203,-0.0884655037958365,0.0054625314928918,-0.10205516095064,52.05,23.85,38.7
-943.35937,298.33984,-11.71875,-0.1161776671260773,-0.0255804181818548,-0.2284915243540896,0.0,34.8,30.6,395.01953,94.72656,888.67187,-0.1289677889505422,-0.0335742006889141,0.0169204434993094,48.0,12.75,94.35,-522.46094,132.8125,829.58984,-0.0608866836204481,-0.0030642745677264,-0.1542816953556175,51.9,24.3,39.0
-951.66016,298.33984,-13.18359,-0.0531592383572432,-0.0266462907560478,-0.1283017713079811,-1.05,34.35,32.1,409.17969,87.89063,892.57812,-0.0772741035661985,-0.0017320647496791,-0.0423675185263119,48.0,12.75,94.35,-535.64453,153.32031,858.39844,-0.0386370517830992,0.0193185258915496,-0.0487625794385443,51.9,24.3,39.0
-942.38281,300.78125,-22.46094,-0.0652833425391471,0.0021317451483858,-0.1283017713079811,-1.05,34.35,32.1,416.99219,99.12109,906.25,-0.0603538345998143,0.0309096065198943,-0.0097258472567384,48.15,14.85,95.25,-542.96875,147.94922,837.40234,-0.0483628990398376,-0.0381042027624654,-0.0883323351739094,52.05,24.6,38.1
-955.07812,303.71094,-38.57422,-0.0584886012282079,-0.0010658725741929,-0.1496186991930643,0.0,32.85,31.35,417.96875,100.58594,922.36328,-0.0691469779042869,0.0611531953972277,0.0081271256619115,47.25,13.95,94.65,-552.24609,155.76172,856.93359,-0.0666155523571943,-0.0321086477160144,-0.1008561197545199,52.05,24.6,38.1
-945.80078,297.36328,-41.50391,-0.029044373148288,-0.0355727772153728,-0.1156446435725182,-0.75,33.45,30.45,416.99219,94.23828,949.70703,-0.058088746296576,0.0047963393174056,0.0374380105869791,49.35,14.7,94.35,-573.24219,143.55469,868.16406,-0.0676814249313873,-0.0122572728038309,-0.0527595579585365,52.65,24.3,40.05
-950.19531,266.11328,-32.71484,-0.0131899767560967,-0.0628850856139816,-0.1189754299170242,1.05,33.6,28.95,422.36328,83.98438,948.24219,-0.0674150876875329,0.0001331686219271,0.0214502710399355,47.7,14.4,94.5,-568.35937,137.69531,839.35547,-0.0804717212887773,-0.0411684773301918,-0.0855343978500373,50.85,25.5,39.3
-946.28906,268.55469,-47.85156,-0.0417013263508257,0.0031976177225788,-0.1352296812408474,0.45,34.95,30.9,399.90234,93.26172,919.92187,-0.0411684773301918,0.0047963393174056,0.0283781809728018,48.6,13.5,94.65,-561.52344,141.11328,858.88672,-0.0342403928644003,-0.0706125308771865,0.0151883787496302,52.35,24.3,40.05
-955.07812,291.99219,-48.82813,-0.0125237845806105,-0.0025314255470925,-0.1633415249697949,0.45,34.95,30.9,392.08984,102.53906,916.50391,-0.0654165111610742,-0.0027979373238721,0.0289112045263608,47.25,14.25,94.05,-574.21875,145.50781,838.86719,-0.0419678381276052,-0.0399694361340717,-0.0037304667432126,52.5,25.65,38.7
-975.09766,285.64453,-44.92188,0.034640073263107,-0.0755420388165193,-0.1217733672408963,-0.75,34.5,30.9,396.97266,117.1875,913.57422,-0.0151883787496302,0.0021317451483858,0.0247810573844414,47.25,14.25,94.05,-549.80469,171.875,847.65625,-0.0694134896810664,-0.050228132411444,0.0191853572696224,52.5,25.65,38.7
-969.23828,304.19922,-43.94531,-0.0070612530877186,-0.0471638578437175,-0.0743429976203992,0.15,33.45,31.2,417.48047,128.41797,932.61719,-0.0397029243572922,0.0071944217096458,0.031309286918601,47.4,13.65,94.5,-557.12891,161.62109,847.16797,-0.1224395594163826,-0.0358392889921523,-0.0269126279999021,50.85,24.3,40.65
-958.49609,303.22266,-35.64453,-0.0511608363637097,-0.039569755735365,-0.1529494855375703,-1.2,33.0,31.5,429.6875,102.53906,932.12891,-0.054091942309509,0.031309286918601,0.077007591789419,47.4,14.1,94.5,-551.75781,153.32031,857.91016,-0.1350965126189202,-0.0790061683158777,0.0097258472567384,50.85,24.3,40.65
-958.00781,305.17578,-20.01953,-0.0115910806283447,-0.087532974376496,-0.0716784034513795,0.0,33.3,31.5,433.10547,104.00391,920.89844,-0.079272505559732,-0.0143890179522168,0.0844685252758443,47.1,14.4,95.55,-537.10937,141.60156,839.35547,-0.1260366830047429,0.0073277648644981,-0.0358392889921523,51.6,25.05,39.6
-955.56641,298.33984,-26.85547,-0.0592879620256213,-0.0750091897958855,-0.1048529237415869,0.0,33.3,30.3,424.31641,106.93359,924.80469,-0.0977916706538682,0.0010658725741929,0.0634181091675407,47.4,14.1,94.2,-535.64453,148.92578,871.09375,-0.1468207618691921,-0.0378376909856858,0.0001331686219271,51.9,25.05,39.0
-972.65625,305.17578,-21.97266,-0.1249709849634751,-0.0482297304179105,-0.0887320155726161,0.0,33.3,30.3,445.80078,111.81641,900.87891,0.0059953805135257,-0.0029311059457992,0.0582220894514284,48.9,14.1,94.8,-528.80859,149.41406,851.5625,-0.1296339811260284,-0.0277121633302407,0.0386370517830992,51.45,24.6,39.15
-961.91406,290.52734,-18.55469,-0.0867336135790826,-0.0891316959713228,-0.0447657754514773,-1.2,33.45,31.95,425.29297,108.39844,905.76172,-0.007860613885132,0.0486294108166172,0.051827028539196,47.4,13.65,94.8,-538.08594,143.55469,851.5625,-0.0969923098564548,-0.023448673033469,0.0013323843509724,52.65,24.3,39.3
-949.70703,289.55078,-4.88281,-0.1083170532409452,-0.034640073263107,-0.0604870032217414,0.75,34.2,31.5,416.01562,125.0,920.41016,-0.0117244237831971,0.0287778613715085,0.0928621627145355,47.4,13.65,94.8,-550.29297,143.55469,845.21484,-0.1526829737607907,-0.0277121633302407,0.0330413516682802,50.55,24.75,39.6
-954.58984,285.64453,-17.08984,-0.1160443239712249,-0.0727442760255724,-0.0711455544307456,0.0,33.6,32.1,429.6875,130.37109,908.20312,-0.0628850856139816,0.03064326927604,0.1196416220925105,47.4,13.65,94.8,-522.94922,147.46094,833.00781,-0.1137794102009119,-0.0373046674321268,0.0155880591483369,51.75,23.85,39.15
-934.57031,281.25,-19.53125,-0.040235773377926,-0.0687472975055802,-0.0277121633302407,-0.15,33.0,31.95,416.99219,141.11328,915.03906,-0.0595542992694757,0.0009327039522657,0.1305666850782942,47.4,14.1,94.2,-525.87891,167.48047,827.14844,-0.1477534658214579,0.0287778613715085,0.0599539796681824,51.75,23.85,39.15
-963.86719,295.89844,-27.83203,-0.0458314734927451,-0.0486294108166172,-0.0707458740320389,-0.15,33.0,31.95,423.82812,135.25391,919.43359,-0.0532925815120956,0.0327748398915007,0.0659495347146333,47.25,14.7,93.3,-524.90234,189.45312,836.91406,-0.1827932194832717,0.0011990411961201,0.0539585991546566,51.0,24.6,39.15
-980.46875,301.26953,-15.13672,-0.1693369054833206,0.0118575924051242,-0.0731439564242791,1.05,34.05,31.65,418.45703,137.69531,886.23047,-0.0321086477160144,-0.0007993607974134,0.1231057515918688,46.8,14.7,94.05,-528.32031,183.59375,807.61719,-0.1978484296109748,0.0097258472567384,0.0270459711547545,51.0,24.6,39.15
-987.30469,302.24609,-13.18359,-0.0969923098564548,-0.0656830229378538,-0.0205175670876697,-0.3,33.6,31.05,431.15234,150.87891,871.09375,-0.0198513749121835,-0.0143890179522168,0.1779968801658661,46.8,14.7,94.05,-529.29687,169.92187,801.75781,-0.2737901488262009,-0.0010658725741929,0.0142556747973644,51.0,24.6,39.15
-963.37891,288.08594,-21.97266,-0.0735436368229858,-0.0443659205198454,-0.0347734164179594,1.05,34.05,31.05,429.19922,136.23047,867.1875,-0.0123904414257581,0.0494287716140306,0.1883889195980907,47.25,12.75,94.05,-509.76562,164.55078,854.00391,-0.2772542783255592,-0.020117886688963,-0.005595700114819,51.6,24.75,39.3
-974.12109,288.08594,-17.57813,-0.1011224569983742,-0.0349065850398865,-0.1016554805519333,0.45,35.7,31.2,405.27344,134.27734,888.18359,-0.0454317930940384,0.0575558972759422,0.2471440326030782,48.3,14.7,96.45,-535.15625,156.25,823.73047,-0.268860640886868,0.0034639549664331,0.0603538345998143,51.6,24.75,39.0
-965.82031,265.13672,-2.44141,-0.1155114749505911,-0.0245145456076619,-0.1325650870718277,0.45,35.7,31.2,411.62109,114.74609,928.22266,-0.0728774446474996,0.1140459219776914,0.230889781279255,48.3,14.7,96.45,-565.42969,160.15625,816.89453,-0.294441059068723,0.0157212277702641,0.0555574952824086,52.35,23.25,39.0
-967.77344,279.29687,9.76562,-0.0847350370526239,0.0476967068643514,-0.1328315988486072,0.0,34.8,31.65,388.18359,115.72266,915.03906,-0.0405022851547056,0.10205516095064,0.2346202480224677,46.5,13.95,95.1,-570.80078,130.85937,825.68359,-0.3386738109666413,0.0093261668580317,0.0599539796681824,52.05,23.85,39.15
-958.00781,290.52734,-11.71875,-0.0291777163031404,0.0620857248165682,-0.1079173728422385,1.05,34.8,31.05,379.88281,107.42188,922.36328,-0.0371714988101996,0.0911300979648563,0.2859142530081047,48.3,13.95,95.7,-583.49609,128.90625,815.91797,-0.3783767353239335,0.0222496318373489,0.0551578148837019,52.05,23.85,39.15
-964.35547,290.52734,-7.8125,-0.1119141768293056,0.0728774446474996,-0.1027213531261262,0.6,33.3,32.1,404.29687,107.91016,934.08203,-0.0339738810876208,0.1330979360924615,0.3050996102777272,48.15,14.1,95.25,-571.28906,113.76953,869.62891,-0.3599907388517244,-0.0142556747973644,0.1193751103157309,51.6,24.3,40.35
-996.09375,312.01172,-13.67187,-0.0929953313364626,0.1362955538150403,-0.0542251109314362,0.6,33.3,32.1,377.92969,96.67969,931.64062,-0.0498284520127373,0.1369617459905266,0.3189556046763849,48.15,14.1,95.25,-555.66406,131.83594,866.69922,-0.4392634189443817,-0.0233155044115418,0.1087167336396519,51.6,24.3,40.35
-973.63281,317.38281,-9.76562,-0.0270459711547545,0.0668820641339739,0.0191853572696224,0.6,33.3,32.1,425.29297,94.72656,925.29297,-0.069680001457846,0.1416247421530798,0.3787764157226402,46.65,12.9,95.55,-535.64453,128.90625,858.88672,-0.4499219701533858,-0.0425006871482391,0.0850015488294034,50.85,23.7,39.6
-964.35547,281.25,-18.06641,-0.1263031947815224,0.0860674214035963,-0.0728774446474996,0.75,33.0,30.15,433.59375,99.12109,921.875,-0.0746095093971788,0.1573461444562691,0.2857810843861775,48.3,13.95,94.35,-534.17969,111.81641,862.79297,-0.3903674963509849,-0.0067947413109391,0.0807380585326316,50.85,25.5,39.6
-966.30859,285.64453,-0.97656,-0.1257703457608885,0.0913966097416358,0.0261132672024887,-0.3,34.35,31.35,426.26953,97.16797,923.82812,-0.0831363154577971,0.2430137109282336,0.3662526311420296,49.05,14.7,94.65,-547.85156,100.09766,864.74609,-0.4023582573780363,0.002264913770313,0.1373614263892333,51.9,22.5,41.4
-940.42969,291.99219,-19.53125,-0.05475795995207,0.1257703457608885,0.0711455544307456,0.45,34.5,30.45,424.80469,87.40234,927.24609,-0.1056524590719255,0.1911868569219628,0.3539953583381987,46.5,12.45,96.15,-529.78516,93.75,889.64844,-0.3521301249665923,0.0415681577288985,0.1356293616395541,51.6,24.75,40.05
-969.23828,288.08594,-17.57813,-0.1127137121596442,0.1289677889505422,-0.0026645941690197,0.45,34.5,30.45,445.3125,88.86719,931.15234,-0.0622190679714206,0.1257703457608885,0.3400061953176138,48.0,14.25,93.6,-522.46094,89.84375,877.44141,-0.3354761932440624,0.023448673033469,0.0979250138087206,51.15,24.3,39.6
-979.49219,292.48047,-2.44141,-0.0937948666668012,0.0945942274642146,-0.005595700114819,0.0,32.85,30.6,455.56641,93.26172,927.24609,-0.118842261295097,0.1171101965454179,0.3545283818917578,47.4,13.35,96.6,-504.88281,81.05469,869.62891,-0.3569264642839979,0.0479632186411309,0.0747426780191059,50.1,24.3,39.0
-977.53906,274.90234,-20.01953,-0.0230489926347623,0.0921959705390492,0.034640073263107,1.05,33.6,31.65,428.71094,39.55078,928.71094,-0.1101822866125516,0.1915865373206695,0.3330781108518222,47.4,13.35,96.6,-508.30078,83.00781,859.375,-0.3305466853047296,0.0475635382424242,0.0463644970463041,50.1,24.3,39.0
-983.39844,275.87891,-0.97656,-0.118842261295097,0.0698131700797731,-0.0275788201753884,0.0,34.8,31.05,441.89453,48.33984,926.75781,-0.1152449631738115,0.1432236382808319,0.363055187952376,48.0,13.2,96.45,-520.50781,63.47656,870.60547,-0.3631883565743032,0.11990813386929,0.0766079113907123,51.75,23.4,39.9
-1004.39453,286.62109,-7.8125,-0.0571562168772355,0.1024548413493467,-0.0130566336012443,1.35,33.3,31.05,417.96875,19.04297,912.59766,-0.0969923098564548,0.1684043760639801,0.3162910105073652,47.55,12.75,95.1,-528.32031,66.40625,897.46094,-0.353595677939492,0.1104486238564059,0.1032542021467601,51.45,23.85,40.95
-994.14062,313.47656,-0.97656,-0.0490290912153239,0.0287778613715085,0.0131899767560967,1.35,33.3,31.05,411.62109,8.78906,900.87891,-0.1067181571131932,0.0836691644784309,0.2856477412313251,47.55,13.95,95.4,-532.71484,62.01172,876.46484,-0.2916431217448508,0.1060521394706322,0.1516171011865978,51.15,22.95,39.0
-994.14062,322.26562,-1.46484,-0.0289112045263608,0.0390367321818059,-0.0127901218244648,-0.45,34.5,31.5,426.26953,13.18359,918.45703,-0.0455651362488907,0.1458882324498516,0.2780536391229726,47.25,13.5,95.1,-529.78516,47.36328,882.32422,-0.2903109119268036,0.1156446435725182,0.185724325429071,52.5,23.4,39.9
-978.51562,324.21875,-5.85937,-0.1067181571131932,0.0353062654385932,-0.0414349891069713,0.45,33.75,30.45,416.99219,3.41797,903.32031,0.0066615726890119,0.1477534658214579,0.2459448168740329,50.1,12.45,95.1,-518.06641,41.01563,901.36719,-0.2607335152249564,0.1474869540446784,0.1644073975439878,51.45,23.85,39.9
-946.77734,326.66016,-0.97656,-0.0575558972759422,0.0173201238980161,-0.0067947413109391,0.6,34.05,30.0,435.05859,20.01953,929.6875,0.0122572728038309,0.1584120170304621,0.1759984781723326,48.45,13.35,96.0,-514.64844,8.30078,862.30469,-0.201845408130967,0.1129800494034985,0.08420218803199,51.9,24.3,40.35
-950.19531,321.77734,0.48828,-0.0867336135790826,0.0163874199457503,0.032375159492794,0.45,33.75,31.5,425.29297,36.13281,949.70703,-0.0058622118915985,0.1958498530845161,0.1738667330239467,48.45,13.35,96.0,-529.78516,-6.34766,905.27344,-0.1909203451451833,0.1420244225517865,0.1155114749505911,51.9,24.3,40.35
-942.38281,300.78125,16.11328,-0.1207074946667034,0.0222496318373489,-0.0595542992694757,0.45,33.75,31.5,425.29297,24.41406,956.54297,0.0113245688515652,0.1360290420382608,0.2210305908676643,46.2,12.45,94.65,-548.82812,-13.67187,893.06641,-0.1598775700033617,0.1713353074768541,0.1167105161467112,52.5,24.6,40.5
-933.59375,311.03516,-10.74219,-0.0754088701945922,0.0514271736075641,-0.0217166082837898,-0.45,34.95,30.45,425.29297,25.39063,956.05469,-0.0570230482553083,0.1096492630589925,0.1995803198277287,48.0,14.25,95.4,-539.0625,-3.90625,876.46484,-0.1462879128485583,0.2023782571516009,0.1056524590719255,52.5,24.6,40.5
-916.01562,333.00781,-18.55469,-0.0683476171068735,0.1073843492886795,-0.0548913031069224,0.75,33.0,31.95,400.87891,5.85937,945.80078,-0.0560903443030425,0.1023216727274195,0.1806614743348858,47.25,12.75,94.05,-551.26953,5.37109,904.29687,-0.1506845717672572,0.1529494855375703,0.0253139064050753,52.5,24.6,40.5
-935.05859,337.89062,-11.23047,-0.1314992144976347,0.1227058966602369,-0.0085268060606182,-0.75,33.45,31.2,387.20703,9.76562,941.40625,-0.0423675185263119,0.0654165111610742,0.1350965126189202,47.25,12.75,94.05,-555.17578,17.08984,839.84375,-0.1160443239712249,0.1722680114291199,0.041301645952119,50.25,24.15,40.5
-933.59375,312.98828,-12.69531,-0.1059187963157798,0.0367718184114929,-0.0083936374386911,0.0,34.05,30.6,376.46484,16.60156,925.78125,-0.0322419908708668,0.0619525561946411,0.1314992144976347,47.25,13.95,95.4,-565.42969,31.73828,865.72266,-0.0519601971611231,0.1608100994227023,0.0127901218244648,51.45,22.65,40.95
-929.6875,283.69141,-22.46094,-0.1075176924435318,0.085934078248744,0.0123904414257581,0.0,34.05,30.6,376.95312,19.53125,936.52344,0.0050628510941851,0.1023216727274195,0.0984578628293545,48.9,13.65,96.0,-549.80469,40.52734,892.57812,-0.0676814249313873,0.0971256530113072,0.0358392889921523,51.75,24.15,39.15
-941.89453,278.32031,-29.78516,-0.1141790905996186,0.125503833984109,-0.1059187963157798,0.0,34.8,30.6,406.73828,38.08594,921.875,0.0303767574992605,0.1049862668964393,0.1117810082073784,48.9,13.65,96.0,-540.52734,32.71484,866.69922,-0.0720780838500862,0.1127137121596442,-0.0199847180670358,51.9,24.0,39.0
-947.26562,277.83203,-5.85937,-0.0195850376683291,0.0258469299586344,-0.1157779867273706,0.75,33.45,31.2,407.71484,61.03516,927.73437,0.0349065850398865,0.0458314734927451,0.0500949637895168,48.6,12.75,94.65,-525.87891,62.01172,904.29687,-0.0766079113907123,0.1358958734163337,-0.0027979373238721,52.65,25.05,39.3
-966.79687,277.83203,-20.01953,-0.0426340303030914,0.0704793622552594,-0.0908637607210019,0.3,33.6,31.2,432.12891,52.24609,921.38672,0.0163874199457503,0.0650168307623675,0.0873996312216436,48.9,14.1,93.75,-512.20703,68.84766,867.67578,-0.1049862668964393,0.1028545217480534,0.0070612530877186,52.95,23.25,40.35
-971.67969,287.10937,-17.08984,-0.0470306892217904,0.0302434143444081,-0.1129800494034985,0.3,33.6,31.65,406.25,51.26953,895.01953,0.0231821612566894,0.0436999028772844,0.0704793622552594,48.6,12.45,95.4,-501.46484,86.91406,871.09375,-0.1145789455312505,0.1690703937065411,0.0299770771005538,52.95,23.25,40.35
-955.07812,277.83203,-28.80859,-0.0355727772153728,0.0075941021083525,-0.1393598283827668,-0.45,34.2,30.15,458.49609,50.29297,901.85547,-0.0698131700797731,0.0622190679714206,0.0814042507081179,48.6,12.45,95.4,-523.92578,61.52344,905.76172,-0.1389601479840601,0.1938514510909826,-0.04849624219469,51.9,22.95,39.6
-969.72656,314.94141,-17.08984,-0.0099923590335179,-0.0941945470655079,-0.0715452348294523,-0.45,34.2,30.15,447.75391,21.48438,895.50781,-0.0490290912153239,0.1237717692344298,0.1598775700033617,48.6,12.45,95.4,-524.41406,62.5,859.375,-0.1208406632886305,0.0975253334100139,-0.0098591904115907,51.9,24.0,40.35
-991.69922,297.36328,-29.29688,-0.0498284520127373,0.0075941021083525,-0.1115144964305989,0.3,34.8,30.3,472.16797,33.69141,924.80469,-0.0154548905264097,0.0426340303030914,0.1099157748357721,48.9,14.1,94.8,-507.32422,61.03516,876.46484,-0.0678147680862396,0.125503833984109,0.0258469299586344,52.05,23.4,38.7
-987.79297,280.27344,-17.57813,-0.0700796818565527,-0.0638177895662474,-0.0640843013430269,-0.3,34.35,31.05,467.28516,38.57422,915.03906,0.0074609334864253,0.1630750131930153,0.0611531953972277,48.45,12.6,95.55,-511.23047,44.92188,846.67969,-0.0748760211739583,0.1534823345582041,0.0162542513238231,51.15,24.3,39.0
-979.00391,265.625,-32.22656,-0.0023980823922402,-0.0940612039106556,-0.1111148160318922,0.15,34.5,30.9,429.6875,24.90234,893.55469,0.0479632186411309,0.172401180051047,0.0070612530877186,48.45,13.65,95.55,-496.58203,72.26563,854.98047,-0.0122572728038309,0.2019785767528942,0.0394364125805126,51.45,23.85,39.45
-962.40234,255.37109,4.88281,0.0436999028772844,-0.1097826062138449,-0.1063184767144865,0.3,34.05,31.05,372.55859,113.28125,900.87891,0.1961163648612956,0.2692603212855747,-0.0091929982361045,47.25,13.2,96.15,-506.34766,62.01172,850.58594,-0.0105252080541518,0.1785299037194251,0.0716784034513795,51.15,24.3,41.1
-968.26172,256.34766,6.83594,0.0516936853843436,-0.1071178375118999,-0.1382939558085739,0.3,34.05,31.05,386.23047,73.24219,933.59375,0.1580123366317554,0.1241714496331365,0.0357059458372999,48.45,12.15,96.0,-518.55469,49.31641,833.49609,0.0347734164179594,0.1722680114291199,0.0410353087082646,51.15,24.3,41.1
-943.35937,255.37109,19.53125,0.0381042027624654,-0.1176432200989769,-0.0945942274642146,0.0,34.35,31.35,416.01562,85.9375,901.36719,0.1686707133078344,0.1003230962009608,0.0672817445326806,48.15,13.65,95.55,-542.48047,49.80469,860.35156,0.0778071271197576,0.1593445464498027,0.0215834396618626,50.7,24.6,39.15
-943.84766,258.30078,14.16016,0.0666155523571943,-0.1649402465646217,-0.1061853080925594,1.05,34.8,32.4,411.62109,60.54688,942.38281,0.0836691644784309,0.0357059458372999,0.0211837592631559,48.15,13.65,95.55,-535.15625,37.10938,874.51172,0.0450321126953316,0.1609432680446295,0.0307764378979672,50.7,24.6,39.15
-928.71094,275.39062,2.44141,0.0854012292281101,-0.1121806886060851,-0.0863337586474507,-0.3,34.8,30.6,378.90625,49.31641,914.0625,0.1728008604497538,0.0620857248165682,0.0130566336012443,49.2,14.4,96.0,-546.38672,19.53125,859.375,0.1225727280383097,0.1005896079777403,0.0059953805135257,50.1,23.25,40.05
-906.73828,303.71094,1.46484,0.0343737360192527,-0.0207840788644492,-0.1513507639427435,1.5,33.0,31.5,373.04687,42.96875,906.73828,0.1885222627529431,0.0351730968166661,-0.0676814249313873,49.35,13.95,95.1,-565.42969,34.17969,868.65234,0.1153783063286639,0.0895313763700295,0.0177198042967228,51.45,24.9,38.7
-920.89844,319.33594,-8.30078,0.054091942309509,-0.0522267089379027,-0.0664823837352672,1.5,33.0,31.5,386.23047,46.875,927.73437,0.1738667330239467,-0.004529827540626,-0.0575558972759422,48.45,11.85,95.25,-574.21875,30.27344,847.16797,0.201845408130967,0.0723445956268657,0.0141225061754373,51.15,24.0,39.0
-917.96875,334.47266,-15.13672,-0.0161209081689708,-0.0027979373238721,-0.0734104682010586,0.45,33.45,30.9,367.67578,56.15234,920.89844,0.1610766111994818,-0.0218499514386422,-0.060753514998521,48.45,11.85,95.25,-566.89453,45.41016,856.44531,0.1871898784019706,0.0623522365933478,0.0277121633302407,50.85,24.3,38.55
-934.57031,331.54297,-17.57813,-0.04849624219469,0.039569755735365,-0.0576890658978693,-0.15,33.45,30.9,373.53516,81.05469,932.12891,0.1628085014162358,-0.0166539317225298,-0.1096492630589925,49.5,13.35,94.5,-566.89453,66.40625,846.67969,0.2258269301850698,0.0177198042967228,0.0187856768709157,50.85,24.3,38.55
-943.84766,321.77734,-8.30078,-0.079272505559732,-0.0211837592631559,0.0695466583029936,0.6,33.3,32.4,376.95312,124.02344,925.29297,0.1504180599904777,0.0129234649793172,-0.1365620655918199,50.1,13.5,95.4,-566.40625,77.14844,846.67969,0.1658729505168874,0.0436999028772844,0.0655498543159266,53.4,23.7,39.0
-933.59375,297.36328,-3.90625,-0.0632847660126884,0.0423675185263119,0.0722112524720134,-0.3,34.35,31.35,399.90234,108.39844,934.57031,0.1197749652473628,-0.0587549384720623,-0.0738101485997654,50.1,13.5,95.4,-566.89453,80.07813,857.42187,0.1909203451451833,-0.0373046674321268,-0.0436999028772844,53.4,23.7,39.0
-930.17578,267.08984,-8.30078,-0.1036538825454668,0.0828698036810175,-0.0511608363637097,-0.3,34.35,31.35,397.94922,100.58594,914.55078,0.1252373222073295,-0.077540615342978,-0.0514271736075641,47.55,13.2,94.65,-538.57422,75.68359,837.89062,0.2134364887593117,-0.0334410320669869,-0.042900542079871,53.4,23.7,39.0
-953.125,291.50391,-24.41406,-0.0667488955120467,0.074209828998472,0.0249142260063686,1.5,33.0,30.45,400.39062,102.53906,907.22656,0.1213736868421896,-0.1081837100860929,-0.0722112524720134,50.1,12.75,96.45,-577.14844,71.28906,841.30859,0.1919862177193762,0.0007993607974134,-0.0302434143444081,51.6,24.3,39.6
-948.24219,333.00781,-22.46094,-0.0582220894514284,0.0564900247017492,0.029044373148288,-0.45,33.75,32.25,401.36719,66.40625,905.76172,0.1243047927879889,-0.0483628990398376,-0.0936615235119489,48.45,12.15,94.8,-571.28906,100.09766,865.23437,0.2456784796301786,-0.0599539796681824,0.0349065850398865,52.05,23.85,37.35
-940.42969,345.70312,-26.85547,-0.152283293362084,0.0712787230526728,-0.0089264864593249,0.45,33.45,32.55,388.18359,67.38281,920.41016,0.0868667822010097,-0.0442327518979182,-0.1116478395854512,48.45,12.15,94.8,-566.89453,89.35547,810.05859,0.2347534166443949,-0.0570230482553083,-0.0371714988101996,52.5,22.35,38.1
-928.71094,334.96094,-28.32031,-0.1501515482136981,0.0530260697353161,0.0254472495599277,0.45,33.75,30.9,386.23047,74.70703,920.41016,0.0965926294577481,-0.0375711792089063,-0.0832694840797242,48.6,13.95,95.4,-585.44922,104.00391,837.89062,0.2703261938597677,-0.0784731447623186,0.004529827540626,50.85,23.25,40.05
-932.61719,335.44922,-35.15625,-0.1127137121596442,0.0350397536618137,0.0178529729186499,0.45,33.75,30.9,375.48828,54.19922,925.29297,0.143356806902759,-0.04849624219469,-0.1225727280383097,48.0,14.7,96.9,-562.5,106.44531,836.42578,0.2631317721501219,-0.0374380105869791,-0.0299770771005538,52.05,23.1,38.7
-939.94141,339.84375,-34.66797,-0.2083736376651266,0.1608100994227023,-0.1324319184499005,0.0,33.3,31.05,379.39453,71.77734,930.66406,0.1388269793621329,-0.0690138092823597,-0.1437564873014657,48.0,14.7,96.9,-567.38281,98.63281,828.61328,0.2188988457192784,-0.018385996472209,-0.0731439564242791,51.6,23.25,37.95
-961.91406,310.05859,-26.85547,-0.1604104190239956,0.0734104682010586,-0.0735436368229858,-0.3,34.8,30.6,399.41406,81.05469,935.54687,0.1398928519363259,-0.0912634411197086,-0.1577458248549758,49.35,13.5,95.4,-572.26562,92.77344,835.9375,0.2535390935153107,-0.0238483534321757,0.025713586803782,51.6,23.25,37.95
-977.53906,304.19922,-29.78516,-0.1702694349026612,0.0592879620256213,-0.0443659205198454,0.75,34.5,31.2,386.23047,73.24219,924.31641,0.1216401986189692,-0.1216401986189692,-0.1125803690047918,49.8,15.75,94.35,-568.35937,77.14844,808.10547,0.2641974701913896,-0.0213169278850831,0.0121241041819038,51.45,24.9,39.15
-954.58984,289.0625,-31.25,-0.1673385034897871,0.1271025555789358,-0.1402925323350325,1.05,33.3,31.65,402.34375,66.89453,904.29687,0.1227058966602369,-0.1478866344433851,-0.1504180599904777,49.05,13.2,94.05,-542.48047,81.05469,830.07812,0.3166906909060719,-0.0846018684306967,0.0039969785199922,51.45,24.9,39.15
-1003.41797,294.43359,-31.73828,-0.0764747427687851,0.0679479367081668,-0.1316323831195619,1.05,33.3,31.65,384.76562,84.47266,899.41406,0.1337641282679478,-0.039569755735365,-0.1673385034897871,49.05,13.2,94.05,-545.89844,103.02734,841.30859,0.2907105923255103,-0.0287778613715085,0.0117244237831971,51.9,25.5,38.55
-991.21094,285.15625,-35.64453,-0.0985910314512816,0.0911300979648563,-0.1096492630589925,0.15,33.0,30.9,381.34766,77.63672,921.38672,0.0988575432280612,-0.0321086477160144,-0.1597442268485094,49.2,13.35,94.8,-566.40625,92.77344,824.21875,0.3360092167976215,-0.0029311059457992,-0.0007993607974134,51.45,24.15,38.1
-966.30859,316.40625,-37.59766,-0.0834028272345766,0.0941945470655079,-0.1649402465646217,0.45,34.95,30.9,386.23047,65.91797,939.94141,0.1448223598756587,-0.0516936853843436,-0.2105053828135125,48.3,15.0,94.35,-570.3125,71.77734,859.86328,0.2556708386636965,-0.0498284520127373,-0.0031976177225788,51.45,26.4,38.1
-932.61719,311.52344,-41.01563,-0.0720780838500862,0.0627519169920545,-0.0961929490590414,0.3,35.1,31.05,385.74219,60.05859,944.82422,0.118842261295097,-0.039569755735365,-0.2161010829283315,48.6,14.25,94.35,-569.82422,70.80078,826.66016,0.2668622388933346,-0.0297105653237742,0.0347734164179594,52.35,24.75,39.0
-966.79687,332.51953,-43.45703,-0.0270459711547545,0.1120475199841579,-0.1333644478692411,1.2,33.0,30.45,373.53516,80.56641,939.94141,0.1381607871866467,-0.0582220894514284,-0.2588682818533501,48.9,15.15,95.25,-575.68359,75.68359,837.40234,0.3388069795885685,-0.0662158719584876,-0.0377045223637587,52.35,24.75,39.0
-977.05078,314.45312,-35.15625,-0.0891316959713228,0.0911300979648563,-0.1440229990782452,1.2,33.0,30.45,382.8125,103.51563,940.42969,0.1771975193684527,-0.0086599746825454,-0.2290245479076487,48.6,14.7,94.35,-565.42969,95.21484,875.97656,0.3877029021819652,-0.0638177895662474,-0.0177198042967228,51.6,25.05,38.25
-969.72656,318.84766,-31.73828,-0.050228132411444,0.1269693869570086,-0.1309663654770009,0.3,34.8,30.6,401.36719,91.79688,951.17187,0.0967257980796753,-0.032375159492794,-0.2452787992314719,48.45,14.85,94.5,-554.19922,75.68359,840.82031,0.3634548683510827,-0.0620857248165682,-0.0001331686219271,51.6,25.05,38.25
-1002.92969,288.08594,-33.20313,-0.0086599746825454,0.0600873228230347,-0.1068515002680456,-0.45,34.2,30.9,404.29687,113.28125,939.94141,0.1197749652473628,-0.0438330714992115,-0.2480765620224188,48.45,14.85,94.5,-548.82812,87.40234,856.44531,0.4215436146476588,-0.0642174699649541,-0.0155880591483369,50.7,24.6,38.4
-991.69922,286.62109,-41.50391,-0.0470306892217904,0.0782068075184643,-0.1148452827751048,-0.45,32.7,30.15,421.875,83.00781,941.89453,0.0961929490590414,-0.0488959225933967,-0.2192987006509103,48.45,14.85,94.5,-546.38672,92.28516,880.85937,0.4383307149921159,-0.0603538345998143,-0.002264913770313,50.25,26.1,38.1
-1000.0,275.87891,-28.80859,-0.0651499993842947,0.113246561180278,-0.1040535629441735,-0.6,33.6,30.6,399.41406,104.98047,937.98828,0.0687472975055802,-0.1081837100860929,-0.2515405169888519,49.2,14.1,94.8,-548.33984,105.95703,851.5625,0.3913002003032507,-0.027312482931534,-0.0314426300734534,52.65,24.75,37.95
-1008.78906,270.99609,-40.03906,0.0298437339457014,-0.0057288687367461,-0.1376279381660128,-0.6,33.6,30.6,397.94922,113.28125,932.61719,0.0679479367081668,-0.0506278128101507,-0.2578024092791572,49.95,15.15,94.5,-553.22266,112.30469,869.14062,0.4099525340193141,-0.0302434143444081,-0.082603291904238,51.9,25.05,37.95
-1029.78516,283.20312,-50.78125,0.064750318985588,-0.0091929982361045,-0.1240382810112094,-0.6,33.6,30.6,381.83594,128.90625,915.52734,0.074209828998472,-0.0147886983509235,-0.2332878636714952,48.9,15.15,94.8,-546.875,99.12109,853.51562,0.4316691423031039,-0.0130566336012443,-0.0707458740320389,53.4,25.5,39.3
-1025.39063,277.34375,-53.71094,-0.0217166082837898,-0.0401026047559989,-0.1289677889505422,0.45,35.25,29.85,401.36719,140.13672,947.75391,0.0766079113907123,-0.023448673033469,-0.2999035905616148,48.9,15.15,94.8,-556.64062,138.18359,871.58203,0.4465911838088798,0.0013323843509724,-0.0827366350590903,51.9,25.05,39.0
-1024.41406,282.22656,-47.85156,0.0634181091675407,-0.0619525561946411,-0.0530260697353161,-1.35,35.1,31.65,412.10937,115.72266,970.70312,0.0655498543159266,0.0317089673173077,-0.2931086747177505,49.05,15.45,93.3,-575.19531,134.76562,844.72656,0.4592481370114175,-0.0326416712695735,-0.1079173728422385,51.9,25.05,39.0
-1030.27344,273.4375,-53.22266,0.0073277648644981,-0.0382373713843925,-0.1550812306859561,0.3,33.6,31.35,414.0625,116.21094,952.63672,0.0738101485997654,0.0002665117767795,-0.2863139334068114,49.35,14.25,94.35,-563.96484,136.23047,810.54687,0.5291944757131178,-0.031309286918601,-0.0726111074036452,51.9,25.05,39.0
-989.25781,271.48437,-51.75781,0.0039969785199922,-0.1089830708835063,-0.1370949146124538,0.3,33.6,31.35,399.90234,127.92969,935.05859,0.0720780838500862,-0.0702128504784798,-0.2984380375887152,49.35,14.25,94.35,-563.96484,142.57812,851.07422,0.5470474486317679,-0.0762082309920056,-0.0758085505932989,51.45,23.85,37.65
-973.63281,296.38672,-43.45703,0.0662158719584876,-0.0694134896810664,-0.0911300979648563,0.3,33.6,31.35,392.08984,144.53125,917.48047,0.040235773377926,-0.0528927265804637,-0.3382741305679345,48.45,13.65,93.75,-552.24609,173.33984,828.61328,0.4962862926667648,-0.0186523337160634,-0.128834620328615,51.75,25.65,36.6
-955.56641,283.20312,-39.55078,0.0269126279999021,-0.0277121633302407,-0.042900542079871,0.45,33.75,31.2,381.83594,132.8125,912.10937,0.068081105330094,-0.0804717212887773,-0.3084302220893079,49.05,14.7,95.1,-564.94141,171.38672,826.17187,0.4307366128837634,-0.0062618922903052,-0.1115144964305989,52.05,26.1,39.15
-965.82031,283.20312,-30.76172,-0.0067947413109391,-0.0177198042967228,-0.0434333911005048,-0.3,32.55,31.65,377.44141,133.78906,898.4375,0.0534257501340228,-0.0511608363637097,-0.3220198792441113,49.8,14.7,95.1,-563.96484,207.51953,836.91406,0.4684409607145969,-0.018385996472209,-0.0900643999235885,52.05,26.1,38.4
-956.54297,278.80859,-14.16016,0.0631515973907612,-0.0748760211739583,0.0345069046411798,-0.15,33.45,31.5,375.48828,165.52734,902.34375,0.0764747427687851,-0.051827028539196,-0.3266830499395898,49.8,14.7,95.1,-556.15234,216.30859,834.47266,0.4035574731070817,-0.0514271736075641,-0.1180429004976836,51.6,25.5,38.25
-951.17187,254.39453,-11.71875,-0.0494287716140306,0.0031976177225788,0.0259800985805615,-0.15,33.45,31.5,391.11328,175.78125,919.43359,0.1316323831195619,-0.0422343499043847,-0.3204211576492846,47.7,15.9,95.25,-547.36328,233.39844,834.47266,0.3633215251962304,-0.0431668793237253,-0.0755420388165193,51.9,26.55,37.95
-971.19141,251.95312,2.44141,0.0123904414257581,0.027312482931534,0.0069280844657914,-0.45,32.4,31.5,420.89844,197.26562,913.57422,0.1067181571131932,-0.0551578148837019,-0.3029678651293412,48.6,15.0,93.6,-540.52734,239.25781,818.84766,0.3563936152633641,-0.0692803210591393,-0.1229724084370164,51.9,26.55,37.95
-954.58984,264.16016,-7.8125,0.0674150876875329,-0.015055210127703,0.0031976177225788,0.3,35.55,31.05,428.71094,221.19141,941.89453,0.0965926294577481,-0.060753514998521,-0.2514073483669248,48.6,15.0,93.6,-529.29687,253.41797,826.66016,0.2848483804339117,-0.0206509102425221,-0.0921959705390492,51.6,25.8,37.5
-972.16797,274.41406,1.46484,0.0042633157638465,-0.002264913770313,-0.0479632186411309,0.3,32.55,31.65,425.78125,230.95703,907.71484,0.0373046674321268,-0.0923293136939016,-0.2157014025296248,49.35,14.7,92.85,-549.80469,257.8125,820.80078,0.2208974222457371,0.0027979373238721,-0.1192419416938038,51.6,25.8,37.5
-950.68359,271.97266,-0.48828,0.0932618431132422,-0.0262466103573411,0.0643506385868813,0.45,33.75,32.25,433.59375,232.91016,900.87891,-0.025713586803782,-0.0806048899107045,-0.1465544246253378,49.35,15.45,93.6,-535.15625,270.01953,829.10156,0.1887885999967974,0.0025314255470925,-0.094860564708069,50.85,26.25,38.25
-956.05469,276.85547,-1.46484,0.1036538825454668,-0.0203843984657425,0.0844685252758443,0.45,33.75,32.25,436.03516,222.65625,914.55078,-0.0403691165327784,-0.0823369546603836,-0.13776110678794,48.6,15.0,94.35,-546.875,270.50781,817.87109,0.1119141768293056,0.0616860444178615,-0.1148452827751048,51.9,25.5,37.5
