IMU1_AccX,IMU1_AccY,IMU1_AccZ,IMU1_GyrX,IMU1_GyrY,IMU1_GyrZ,IMU1_MagX,IMU1_MagY,IMU1_MagZ,IMU2_AccX,IMU2_AccY,IMU2_AccZ,IMU2_GyrX,IMU2_GyrY,IMU2_GyrZ,IMU2_MagX,IMU2_MagY,IMU2_MagZ,IMU3_AccX,IMU3_AccY,IMU3_AccZ,IMU3_GyrX,IMU3_GyrY,IMU3_GyrZ,IMU3_MagX,IMU3_MagY,IMU3_MagZ
-897.46094,425.78125,94.72656,-0.0871332939777893,0.1171101965454179,-0.0520933657830503,0.3,38.85,35.55,411.13281,85.44922,951.66016,-0.0213169278850831,0.0763415741468579,0.2555374955088442,49.5,12.6,94.5,-543.45703,176.26953,856.44531,-0.1998468316045083,0.0023980823922402,0.0367718184114929,50.7,25.65,40.95
-916.99219,429.6875,92.77344,-0.0913966097416358,0.1568131209027101,0.0784731447623186,0.3,39.15,34.8,386.23047,62.01172,949.70703,-0.0141225061754373,0.0672817445326806,0.3161576673525128,48.15,11.4,95.55,-553.22266,154.78516,867.1875,-0.1706692898342931,-0.0278453319521679,0.020117886688963,52.05,27.15,39.15
-914.0625,446.28906,84.96094,-0.1754656291516987,0.1509510835440367,0.0377045223637587,-0.45,39.0,34.65,404.78516,43.94531,958.98437,-0.0094593354799588,0.0695466583029936,0.2936416982713096,50.1,11.55,95.4,-549.80469,146.97266,857.91016,-0.2475437130017849,-0.0034639549664331,0.043566559722432,51.6,25.8,40.05
-941.89453,441.40625,79.58984,-0.0893982077481023,0.0820704428836041,0.0935283548900217,2.1,39.9,34.8,377.44141,46.38672,950.19531,0.0038636353651398,0.0671485759107534,0.2496752836172456,50.1,11.55,95.4,-545.89844,151.85547,847.16797,-0.198514621786461,0.0588882816269146,0.0487625794385443,51.9,24.3,38.55
-960.9375,447.75391,89.35547,-0.1430902951259795,0.0885988469506889,0.1157779867273706,-0.15,38.25,36.75,400.39062,32.71484,956.05469,0.0436999028772844,0.0727442760255724,0.2482097306443459,48.9,12.15,94.8,-539.55078,152.34375,895.50781,-0.1859908372058505,0.0714118916745999,0.0554241521275563,51.9,24.3,38.55
-971.67969,443.84766,89.35547,-0.1263031947815224,0.1264363634034496,0.0823369546603836,-0.15,38.25,36.75,379.39453,41.50391,950.19531,0.0707458740320389,0.0904640803222952,0.2793858489410198,47.4,11.1,94.5,-543.45703,137.20703,866.69922,-0.240882140312773,0.0598208110462552,0.0624854052152749,51.15,25.05,40.35
-970.21484,461.91406,91.79688,-0.1526829737607907,0.1071178375118999,0.0798055291132911,0.6,39.9,34.5,375.0,32.22656,950.68359,0.0711455544307456,0.2005130237799945,0.2339540558469814,49.2,11.4,94.8,-538.08594,141.60156,848.63281,-0.2083736376651266,0.0746095093971788,0.0546247913301429,51.15,26.55,41.1
-932.12891,488.28125,97.16797,-0.1149786259299572,0.0127901218244648,0.1121806886060851,0.15,39.75,34.95,398.92578,27.34375,959.96094,0.0627519169920545,0.0858009096268168,0.3108284790144733,49.2,11.4,94.8,-538.57422,130.37109,876.46484,-0.2159679143064043,0.0520933657830503,0.0603538345998143,51.15,24.75,38.55
-914.0625,499.51172,116.69922,-0.1770643507465255,0.0038636353651398,0.1120475199841579,1.05,38.1,36.6,397.46094,29.78516,950.19531,0.0523598775598298,0.132165406673121,0.2395497559618005,48.6,11.55,94.05,-535.64453,99.60938,854.49219,-0.2271593145360423,-0.0019984019935335,0.0444992636746978,51.75,25.35,40.5
-934.08203,466.79687,113.76953,-0.2118375926315597,0.0310429496747467,0.0659495347146333,2.1,38.85,34.2,405.27344,31.73828,953.125,0.0919296332951949,0.1632081818149425,0.2913767845009965,48.45,12.9,93.75,-536.13281,103.51563,890.13672,-0.1722680114291199,0.0411684773301918,0.0634181091675407,51.0,25.35,39.9
-921.38672,461.91406,111.32813,-0.1530826541594974,0.0305099261211876,0.0788728251610253,2.1,38.85,34.2,401.85547,14.16016,944.82422,0.0535589187559499,0.161209779821409,0.2899112315280969,48.45,12.9,93.75,-524.41406,92.77344,880.37109,-0.2519401973875587,0.1036538825454668,0.0658161915597809,50.85,25.05,40.65
-915.03906,458.49609,125.0,-0.1843921156110237,0.0359724576140795,0.0377045223637587,-0.45,39.3,36.0,396.97266,-4.39453,946.28906,0.0519601971611231,0.1677381838884938,0.2833828274610121,49.35,12.45,94.35,-518.06641,69.33594,854.98047,-0.1995803198277287,0.0847350370526239,0.0263797789792682,50.85,25.05,40.65
-910.15625,460.9375,115.23438,-0.1488193383956508,0.0666155523571943,0.0538254305327295,0.45,40.05,35.4,397.46094,-24.41406,943.84766,0.0343737360192527,0.1187090926731699,0.2422143501308202,49.5,12.15,94.2,-518.55469,72.75391,879.39453,-0.1434899755246862,0.08420218803199,0.0584886012282079,51.9,26.25,39.0
-890.625,455.56641,127.92969,-0.0989908863829135,-0.0206509102425221,0.0514271736075641,0.15,39.75,35.7,392.08984,-22.46094,927.73437,0.0802052095119978,0.1458882324498516,0.2188988457192784,50.1,11.55,95.4,-518.55469,35.15625,874.02344,-0.1398928519363259,0.045165455850184,0.0511608363637097,51.9,26.25,39.0
-874.51172,438.47656,127.92969,-0.1164441789028568,0.0714118916745999,-0.0586217698501351,1.35,39.6,35.55,396.48437,-51.26953,931.15234,0.0479632186411309,0.1301670046795875,0.2139693377799456,50.1,11.55,95.4,-520.50781,36.62109,885.74219,-0.1100489434576992,0.0779402957416847,0.0700796818565527,51.6,25.5,40.05
-879.39453,451.66016,137.69531,-0.0834028272345766,0.0539585991546566,-0.0173201238980161,1.35,39.6,35.55,398.4375,-17.57813,948.73047,0.0550244717288496,0.1710689702329998,0.1870567097800435,49.5,12.9,93.75,-532.22656,48.82813,853.02734,-0.1426906147272728,0.096459460835821,0.0117244237831971,49.8,25.5,40.35
-881.83594,437.5,122.55859,-0.0656830229378538,0.041834669505678,0.0263797789792682,-1.05,41.1,36.9,368.65234,-14.64844,942.87109,0.1212403436873373,0.1356293616395541,0.1437564873014657,49.05,11.55,96.15,-535.64453,56.64063,865.72266,-0.1065849884912661,0.1346968322202135,0.0138559943986577,50.25,25.65,39.9
-883.30078,441.89453,125.97656,-0.0559571756811154,0.0995237354035474,0.0237151848102485,-0.15,38.55,34.65,365.23437,-20.01953,947.26562,0.1068515002680456,0.1704027780575135,0.1356293616395541,49.05,11.55,96.15,-531.25,82.03125,879.88281,-0.1542816953556175,0.1121806886060851,0.0456983048708179,50.25,24.9,38.7
-867.1875,444.82422,125.0,-0.0523598775598298,0.1084502218628724,-0.0643506385868813,-0.75,38.55,35.7,372.07031,2.92969,947.26562,0.1000565844241813,0.1722680114291199,0.1883889195980907,48.3,12.45,94.65,-518.06641,93.26172,867.67578,-0.1673385034897871,0.1614762915981885,0.0309096065198943,51.6,24.75,39.6
-883.78906,436.03516,122.55859,-0.0058622118915985,0.05475795995207,-0.0005328490206338,0.75,39.75,34.65,407.22656,4.39453,968.75,0.104320074720953,0.1766646703478188,0.0985910314512816,48.3,11.55,92.55,-536.62109,113.76953,903.32031,-0.1842587724561713,0.1401591891801802,0.0534257501340228,50.7,25.35,39.15
-902.34375,439.45312,109.86328,-0.0476967068643514,0.0940612039106556,0.0033307863445059,0.75,39.75,34.65,410.15625,15.625,972.65625,0.110981647409965,0.2009127041787012,0.1478866344433851,50.1,12.0,93.6,-516.60156,115.23438,888.18359,-0.1839922606793918,0.1689372250846139,0.0353062654385932,50.7,25.35,39.15
-896.48437,431.15234,116.21094,-0.0504946441882235,0.0652833425391471,0.0119907610270514,-0.15,40.05,35.4,410.64453,30.76172,961.91406,0.1421577657066389,0.1958498530845161,0.1416247421530798,50.1,12.0,93.6,-526.36719,106.93359,896.48437,-0.1179097318757565,0.1838590920574646,0.0335742006889141,50.7,25.35,39.15
-916.01562,420.89844,103.51563,0.042900542079871,0.0169204434993094,0.0194516945134768,-0.45,39.75,34.95,415.03906,32.22656,966.79687,0.1526829737607907,0.1827932194832717,0.1628085014162358,50.4,11.55,93.6,-519.04297,95.70313,882.8125,-0.1493521874162847,0.1688040564626867,0.0213169278850831,51.15,24.3,39.0
-927.24609,429.6875,114.74609,0.0546247913301429,-0.075275701572665,0.0338407124656936,0.0,40.65,36.3,391.11328,32.22656,947.75391,0.1272358987337882,0.1749326055981396,0.1388269793621329,49.8,13.2,94.35,-520.50781,106.93359,889.16016,-0.1237717692344298,0.1833262430368307,0.0141225061754373,51.45,25.65,39.45
-913.57422,447.26562,107.42188,0.0169204434993094,0.0058622118915985,0.0199847180670358,0.3,39.15,35.55,382.8125,41.50391,948.73047,0.140026020558253,0.103787051167394,0.1148452827751048,50.4,13.5,94.35,-529.78516,104.00391,901.36719,-0.0935283548900217,0.1922527294961557,0.0275788201753884,50.85,25.05,39.0
-901.36719,458.49609,103.02734,0.0393032439585855,-0.0699463387017003,0.110981647409965,0.3,39.15,35.55,405.27344,41.50391,922.85156,0.1473537854227512,0.1201746456460695,0.1127137121596442,50.4,13.5,94.35,-522.94922,110.83984,873.53516,-0.1361623851931132,0.1907871765232561,0.0159877395470436,52.65,23.7,39.0
-906.73828,464.84375,116.69922,0.0579555776746489,-0.0891316959713228,0.0456983048708179,0.15,40.8,34.65,416.99219,44.92188,938.96484,0.1630750131930153,0.1789295841181318,0.0798055291132911,49.8,12.0,94.35,-529.78516,113.76953,884.76562,-0.0944608843093623,0.219698381049617,0.0279785005740951,50.25,24.9,38.7
-914.0625,456.54297,112.30469,0.031309286918601,-0.1115144964305989,0.0572893854991626,-0.15,39.3,33.3,395.99609,58.59375,944.82422,0.1376279381660128,0.1498852109698438,0.1140459219776914,49.8,13.2,94.05,-518.55469,138.18359,853.02734,-0.1161776671260773,0.1786630723413523,0.0916631215184153,52.05,25.35,38.4
-905.76172,441.89453,97.65625,0.0656830229378538,-0.1332312792473139,0.1083170532409452,0.15,40.5,34.95,358.39844,67.38281,932.61719,0.1031210335248329,0.1537488463349836,0.148952507017578,49.5,14.4,94.8,-535.15625,144.04297,822.26562,-0.1160443239712249,0.1973154060574157,0.058088746296576,52.05,25.35,38.4
-907.22656,448.73047,115.72266,0.074209828998472,-0.1477534658214579,0.1181760691196108,0.0,38.4,34.8,350.09766,60.05859,940.42969,0.1216401986189692,0.1032542021467601,0.113246561180278,49.5,14.4,94.8,-525.87891,150.39062,856.44531,-0.1081837100860929,0.1721348428071927,0.0442327518979182,51.45,25.35,38.4
-906.25,483.88672,119.14063,0.0237151848102485,-0.1153783063286639,0.0843353566539172,0.0,38.4,34.8,334.47266,73.24219,910.15625,0.1153783063286639,0.1308330223221485,0.094860564708069,50.85,12.45,94.05,-537.10937,135.25391,811.52344,-0.1891882803955041,0.1265697065583019,0.0768744231674918,51.45,25.35,38.4
-888.18359,484.86328,108.88672,0.0787396565390981,-0.1348300008421407,0.1621424837736748,0.45,39.3,36.0,341.79687,77.14844,913.57422,0.1236386006125027,0.1219065358628235,0.1702694349026612,50.25,14.1,95.25,-550.78125,123.53516,833.49609,-0.1906538333684037,0.1171101965454179,0.0799386977352182,52.35,24.0,37.2
-871.58203,498.04687,126.95313,0.0803383781339249,-0.1698697545039545,0.1105819670112583,-0.15,41.25,34.95,347.65625,59.08203,904.29687,0.1430902951259795,0.1039203943222463,0.125503833984109,48.9,14.1,93.75,-567.87109,100.58594,862.30469,-0.2546049660895036,0.1314992144976347,0.0415681577288985,51.0,25.35,40.2
-861.81641,476.5625,123.04688,0.013456313999951,-0.0879326547752027,0.1140459219776914,0.3,40.35,34.2,344.23828,53.71094,924.80469,0.0863337586474507,0.0969923098564548,0.1442895108550248,51.15,12.45,94.65,-554.19922,83.49609,846.67969,-0.2256937615631427,0.1263031947815224,0.0892648645932499,50.25,25.35,39.45
-847.65625,481.44531,139.64844,0.0975253334100139,-0.1405590441118121,0.0932618431132422,-0.15,39.75,35.7,348.63281,51.26953,945.3125,0.055823832526263,0.1135130729570576,0.1474869540446784,49.35,13.2,94.35,-566.89453,96.67969,873.53516,-0.1781302233207184,0.0835359958565038,0.0085268060606182,51.0,25.65,37.05
-817.87109,502.92969,145.50781,0.1073843492886795,-0.0920628019171221,0.1015221373970809,-0.15,39.75,35.7,351.5625,51.26953,951.17187,0.0097258472567384,0.0599539796681824,0.1474869540446784,49.95,12.6,94.5,-566.40625,109.375,866.69922,-0.1941179628677621,-0.011191400229638,0.1337641282679478,51.0,25.65,37.05
-817.87109,511.23047,134.27734,0.0027979373238721,-0.0271791397766816,0.0221164632154217,0.3,40.35,35.55,355.46875,59.57031,946.28906,0.0815375938629702,0.0302434143444081,0.0935283548900217,49.95,12.6,94.5,-563.47656,111.32813,852.05078,-0.1127137121596442,0.0462311538914518,0.085934078248744,51.6,24.3,38.25
-822.26562,513.18359,137.20703,-0.0131899767560967,-0.0281118437289474,0.0310429496747467,0.0,40.65,34.5,339.35547,43.45703,931.15234,0.0672817445326806,0.0355727772153728,0.1033873707686873,50.7,13.35,94.8,-552.24609,112.30469,852.53906,-0.1309663654770009,-0.0206509102425221,0.0662158719584876,51.6,24.3,38.25
-821.77734,509.76562,119.62891,0.0207840788644492,-0.0158545709251164,0.0476967068643514,0.15,40.65,34.5,333.98437,57.61719,917.48047,0.0599539796681824,0.0361056262360067,0.0923293136939016,49.05,14.25,94.05,-541.99219,113.28125,826.17187,-0.1570796326794896,0.0253139064050753,0.0965926294577481,50.7,24.6,38.1
-836.91406,485.35156,116.21094,-0.1160443239712249,0.0229158240128351,-0.0995237354035474,0.15,39.75,34.35,345.21484,76.17188,903.32031,0.0662158719584876,-0.0066615726890119,0.0827366350590903,50.1,13.2,93.6,-534.66797,111.32813,856.93359,-0.1281684281531288,0.0071944217096458,0.0767412545455646,51.0,24.15,38.4
-825.68359,485.83984,124.02344,-0.0233155044115418,0.0129234649793172,-0.0131899767560967,0.6,40.65,35.55,341.79687,73.24219,911.62109,0.0503614755662963,-0.0531592383572432,0.0924624823158288,50.1,13.2,93.6,-521.48437,103.02734,841.79687,-0.1545482071323971,-0.0106585512090041,0.1103154552344788,51.75,23.4,38.4
-840.33203,467.77344,110.83984,-0.0317089673173077,-0.0029311059457992,-0.0289112045263608,0.6,40.65,35.55,351.07422,65.42969,917.48047,0.0771409349442713,-0.0243813769857347,0.0879326547752027,49.5,13.35,94.8,-537.59766,111.81641,841.79687,-0.1440229990782452,-0.0422343499043847,0.0811377389313384,52.8,23.85,38.7
-805.17578,475.58594,134.27734,-0.0784731447623186,0.0575558972759422,-0.0750091897958855,0.15,40.5,35.7,342.77344,53.22266,910.64453,0.0622190679714206,-0.0702128504784798,0.0963261176809686,48.6,14.7,94.65,-526.85547,107.42188,849.60937,-0.1061853080925594,-0.0648836621404404,0.0626187483701273,52.35,26.25,39.6
-835.44922,498.04687,115.72266,-0.0331745202902074,0.0650168307623675,-0.045165455850184,-0.15,39.75,35.7,348.14453,54.19922,915.03906,0.0747426780191059,-0.0672817445326806,0.0319754790940873,48.6,14.7,94.65,-540.52734,94.23828,843.75,-0.1293674693492489,-0.0628850856139816,0.0819372742616769,49.95,24.6,38.1
-829.10156,503.41797,104.00391,-0.0209172474863764,0.0326416712695735,0.0206509102425221,-0.75,40.8,34.95,362.30469,69.82422,923.33984,0.0791393369378048,-0.0603538345998143,-0.0090596550812521,50.25,14.1,94.5,-537.10937,109.375,841.79687,-0.1260366830047429,-0.0904640803222952,0.1204409828899239,49.95,24.6,38.1
-836.91406,473.14453,102.05078,-0.0659495347146333,0.0528927265804637,-0.0110582316077108,-0.75,40.8,34.95,359.375,69.82422,933.59375,0.0622190679714206,-0.0710122112758932,0.0358392889921523,50.4,13.2,94.65,-539.0625,97.16797,821.77734,-0.0971256530113072,-0.0854012292281101,0.0816707624848974,49.95,24.6,38.1
-845.70312,484.375,103.02734,-0.0754088701945922,0.0568897051004559,-0.0278453319521679,-0.75,40.8,34.95,354.49219,63.96484,937.5,0.0454317930940384,-0.0779402957416847,0.0624854052152749,49.95,14.4,95.25,-548.33984,95.21484,889.16016,-0.0889985273493956,-0.0887320155726161,0.0691469779042869,50.55,25.05,39.6
-847.16797,503.90625,91.79688,0.0142556747973644,0.0203843984657425,-0.0467641774450108,0.3,39.9,36.3,354.00391,69.33594,933.59375,0.0265129476011954,-0.0758085505932989,0.0015987215948268,49.95,14.4,95.25,-539.55078,83.49609,841.79687,-0.1139127533557643,-0.0780734643636119,0.0909969293429291,50.1,25.05,39.3
-853.02734,501.46484,104.00391,-0.0334410320669869,0.0560903443030425,-0.0683476171068735,1.35,41.1,35.25,348.14453,49.31641,956.05469,0.0377045223637587,-0.0774072721881257,0.0049295079393327,50.25,13.65,94.8,-534.66797,82.03125,861.81641,-0.059687642424328,-0.0868667822010097,0.063018428768834,50.55,25.5,39.0
-844.23828,504.39453,95.21484,-0.0206509102425221,0.0639509581881746,-0.0506278128101507,0.6,38.85,35.55,370.60547,45.41016,943.35937,0.0531592383572432,-0.1025880099712739,-0.0326416712695735,50.4,12.75,95.7,-538.08594,76.66016,856.93359,-0.0186523337160634,-0.1216401986189692,0.0496952833908101,51.45,24.9,37.35
-875.0,511.23047,87.89063,0.0708790426539661,0.0130566336012443,0.0015987215948268,0.6,38.85,35.55,361.32812,34.17969,936.03516,0.078606487917171,-0.0847350370526239,-0.0971256530113072,50.4,12.75,95.7,-551.75781,68.84766,850.09766,0.0154548905264097,-0.0872664625997164,0.073676805444913,51.0,24.9,39.45
-887.20703,529.29687,82.03125,-0.0155880591483369,0.0487625794385443,-0.0542251109314362,-0.45,39.0,36.45,358.88672,33.69141,971.67969,0.0676814249313873,-0.0925956509377559,-0.0197182062902563,50.1,13.5,94.35,-545.89844,51.26953,864.74609,0.0417013263508257,-0.0869999508229369,0.0405022851547056,51.75,24.6,38.4
-897.46094,526.36719,66.89453,-0.0099923590335179,0.0011990411961201,-0.0226493122360556,-0.3,41.4,35.85,352.53906,42.96875,956.05469,0.069680001457846,-0.054091942309509,-0.0706125308771865,48.6,13.5,95.1,-552.24609,71.77734,859.86328,0.0639509581881746,-0.1085833904847996,0.0748760211739583,51.75,24.6,38.4
-892.08984,524.41406,78.125,0.0121241041819038,-0.1027213531261262,-0.0190520141147701,0.75,39.0,35.7,354.98047,47.85156,955.07812,0.0598208110462552,-0.1049862668964393,-0.1156446435725182,49.8,13.5,94.05,-546.875,67.87109,871.58203,0.0519601971611231,-0.0901975685455157,0.0059953805135257,49.35,26.25,39.3
-888.67187,521.97266,85.44922,-0.0135896571548034,-0.0595542992694757,-0.1175098769441246,0.3,41.1,35.25,362.30469,74.21875,952.14844,0.0624854052152749,-0.1027213531261262,-0.0804717212887773,49.8,13.5,94.05,-530.76172,90.33203,878.41797,0.1168438593015635,-0.0908637607210019,-0.0085268060606182,49.35,26.25,39.3
-872.55859,525.39062,95.70313,-0.0027979373238721,-0.0660827033365605,-0.1017886491738605,0.3,41.1,35.25,377.92969,86.42578,962.40234,0.0587549384720623,-0.0912634411197086,-0.1441561677001724,49.35,13.5,95.1,-543.94531,77.14844,859.86328,0.0807380585326316,-0.1032542021467601,-0.0299770771005538,50.25,25.65,39.15
-886.71875,519.04297,103.51563,0.0459648166475974,-0.1337641282679478,-0.0599539796681824,1.05,38.85,35.25,382.32422,81.05469,963.37891,0.0258469299586344,-0.1128468807815713,-0.1017886491738605,49.35,14.25,94.05,-540.03906,92.28516,887.69531,0.1728008604497538,-0.0794058487145844,-0.0163874199457503,50.7,24.15,40.2
-886.71875,532.22656,94.72656,0.0113245688515652,-0.0672817445326806,-0.0835359958565038,-0.15,39.75,35.7,370.60547,83.49609,946.28906,-0.0030642745677264,-0.1057856276938527,-0.1630750131930153,48.3,12.75,94.65,-521.97266,69.33594,847.16797,0.1231057515918688,-0.0992572236267679,-0.0074609334864253,49.8,25.8,40.05
-893.55469,536.62109,95.21484,0.0011990411961201,-0.0812710820861907,-0.0648836621404404,0.0,38.1,35.25,363.28125,68.35938,965.33203,-0.0146553551960711,-0.0927289940926083,-0.176797838969746,48.3,14.7,94.65,-550.78125,71.28906,863.76953,0.1713353074768541,-0.1091164140383586,-0.0163874199457503,50.85,25.05,39.6
-899.41406,520.50781,101.07422,0.0439662401211387,-0.0919296332951949,-0.0715452348294523,-0.6,40.35,35.85,363.28125,51.75781,961.91406,-0.0282450123508746,-0.0854012292281101,-0.2030444493270871,50.25,14.1,95.25,-515.625,75.68359,872.55859,0.1910535137671104,-0.1356293616395541,-0.0566231933236764,50.85,25.05,39.6
-894.04297,510.25391,107.91016,0.0840688448771376,-0.1421577657066389,-0.0474303696204971,-0.6,40.35,35.85,365.23437,56.15234,958.00781,-0.0763415741468579,-0.0862005900255235,-0.1998468316045083,49.05,13.95,94.05,-544.43359,88.37891,859.375,0.187989239199384,-0.0337075438437664,-0.0830031468358699,51.75,25.35,38.7
-886.23047,505.37109,94.72656,0.052493046181757,-0.0667488955120467,-0.1296339811260284,0.15,39.75,34.95,365.23437,69.33594,957.03125,-0.023448673033469,-0.1075176924435318,-0.2411484775566273,49.05,13.95,94.05,-533.20312,97.65625,883.30078,0.1853246450303643,-0.0375711792089063,-0.0920628019171221,51.75,25.35,38.7
-911.62109,521.97266,102.53906,0.0889985273493956,-0.1117810082073784,-0.0470306892217904,-0.45,39.3,36.45,385.25391,75.68359,946.77734,-0.0382373713843925,-0.0546247913301429,-0.2207642536238099,49.05,13.95,94.05,-538.57422,106.44531,839.35547,0.1974487492122681,-0.0327748398915007,-0.0760750623700784,50.25,26.7,40.2
-920.41016,532.71484,104.00391,0.0869999508229369,-0.1023216727274195,-0.1244379614099161,-0.45,39.3,36.45,366.21094,74.70703,955.56641,-0.0499617951675896,-0.0883323351739094,-0.2310229499011822,47.7,14.1,93.75,-557.12891,109.375,871.58203,0.2628652603733424,-0.0822036115055313,-0.0631515973907612,51.0,25.35,39.15
-918.45703,551.75781,108.39844,0.0233155044115418,-0.1284349399299083,-0.1802617939361791,0.0,38.4,33.75,361.32812,67.87109,940.42969,-0.0683476171068735,-0.0969923098564548,-0.2558040072856237,49.8,14.25,94.35,-558.59375,114.74609,883.30078,0.2721914272313741,-0.0854012292281101,-0.0515605167624164,49.8,25.5,39.6
-877.92969,570.3125,102.05078,0.0195850376683291,-0.1789295841181318,-0.1177763887209041,0.0,38.4,33.75,364.74609,71.28906,966.30859,-0.031309286918601,-0.0782068075184643,-0.2388835637863142,49.5,14.85,93.75,-562.98828,113.28125,881.34766,0.2993705670080557,-0.0767412545455646,-0.0575558972759422,51.0,26.1,37.65
-866.69922,532.71484,113.76953,-0.0043966589186989,-0.1859908372058505,-0.1068515002680456,-0.75,40.05,35.4,380.85937,83.98438,982.42187,-0.050228132411444,-0.125503833984109,-0.2567365367049642,49.35,13.2,93.3,-548.33984,138.18359,872.07031,0.3041669063254614,-0.070346019100407,-0.0528927265804637,51.45,25.65,38.7
-849.60937,499.51172,99.60938,-0.041834669505678,-0.1325650870718277,-0.2661960467178483,0.3,39.9,35.55,361.81641,88.37891,972.16797,-0.0373046674321268,-0.1472204422678988,-0.2721914272313741,49.95,12.6,93.75,-562.5,148.92578,862.79297,0.3638545487497894,0.0033307863445059,-0.1040535629441735,50.55,25.5,40.35
-858.88672,482.91016,109.86328,0.0171867807431637,-0.1316323831195619,-0.189588135327136,1.05,39.9,35.25,361.81641,99.12109,943.35937,-0.0482297304179105,-0.157878993476903,-0.2851148922106912,49.95,13.35,93.75,-532.22656,161.13281,863.76953,0.3128268810080069,-0.0294440535469947,-0.116577347524784,50.55,25.5,40.35
-890.13672,507.32422,104.98047,0.0434333911005048,-0.1498852109698438,-0.1826600508613445,1.5,39.3,36.0,357.42187,119.14063,931.15234,-0.0326416712695735,-0.1059187963157798,-0.3058989710751406,49.95,13.35,93.75,-545.41016,167.48047,829.10156,0.2811179136906991,0.0237151848102485,-0.0949939078629213,50.55,25.5,40.35
-903.32031,512.69531,103.51563,-0.0472970264656447,-0.1029876903699806,-0.2198315496715442,1.5,39.3,36.0,391.60156,139.64844,926.26953,-0.037970859607613,-0.0956601000384076,-0.2984380375887152,49.2,12.6,94.8,-529.78516,196.77734,866.69922,0.3016354807783688,-0.0488959225933967,-0.1276355791324949,49.8,25.8,40.05
-955.56641,526.36719,93.75,-0.0359724576140795,-0.087532974376496,-0.2067749160702998,0.15,39.0,36.0,395.50781,144.04297,932.61719,-0.0743429976203992,-0.0980581824306478,-0.334010814804088,49.2,12.6,95.25,-518.55469,194.82422,822.75391,0.2291577165295759,-0.0447657754514773,-0.0747426780191059,51.45,27.9,40.2
-992.1875,552.24609,84.96094,0.0031976177225788,-0.2310229499011822,-0.2026447689283804,0.3,38.85,35.85,402.34375,164.0625,914.0625,-0.1061853080925594,-0.0956601000384076,-0.2873798059810043,49.35,13.2,94.65,-522.94922,187.01172,848.63281,0.2578024092791572,-0.0191853572696224,-0.1484196579969441,50.7,25.35,38.7
-962.89062,572.26562,106.44531,-0.1136462415789847,-0.2471440326030782,-0.342937301263413,1.65,37.65,36.6,395.01953,140.13672,933.10547,-0.0917962901403425,-0.1113813278086717,-0.2693934899075019,49.35,13.2,94.65,-519.04297,221.19141,882.32422,0.2011792159554807,-0.0299770771005538,-0.0887320155726161,51.0,25.65,39.45
-859.375,553.22266,122.55859,-0.1883889195980907,-0.3886356061342309,-0.3448025346350193,0.6,39.15,35.55,415.52734,140.625,944.33594,-0.1384272989634262,-0.0788728251610253,-0.2079739572664199,49.95,12.6,94.5,-517.08984,194.82422,853.02734,0.0985910314512816,0.0430337107017981,-0.1329647674705344,51.9,25.8,39.3
-776.85547,529.29687,159.17969,-0.2318223106985956,-0.4115512556141409,-0.2923093139203371,0.6,39.15,35.55,429.19922,150.39062,941.40625,-0.1665389681594485,-0.0619525561946411,-0.220364398692178,48.0,12.45,93.3,-532.22656,224.60937,839.35547,0.0996569040254746,-0.0003996803987067,-0.1588116974291688,52.95,25.8,39.6
-773.92578,488.28125,129.88281,-0.3086967338660875,-0.2146355299554318,-0.3354761932440624,0.6,39.15,35.55,393.55469,126.95313,946.77734,-0.170136266280734,-0.059687642424328,-0.2051760199425478,48.0,12.45,93.3,-548.82812,209.47266,840.33203,0.0419678381276052,-0.0042633157638465,-0.0871332939777893,52.95,25.8,39.6
-780.76172,468.75,153.32031,-0.3169572026828514,-0.1372282577673061,-0.3180229007241191,2.4,38.85,35.25,377.44141,127.44141,939.94141,-0.1341638086666545,-0.0287778613715085,-0.1807948174897382,49.2,11.85,95.25,-551.26953,211.42578,866.69922,0.0508943245869302,-0.0113245688515652,-0.1103154552344788,50.25,26.4,37.35
-853.02734,475.09766,129.39453,-0.252073540542411,-0.0528927265804637,-0.2709923860352539,2.7,38.4,37.95,359.375,128.41797,938.47656,-0.1161776671260773,-0.0334410320669869,-0.1942511314896893,48.9,12.15,94.2,-554.6875,221.67969,843.75,0.0528927265804637,-0.0126569532025376,-0.1267028751802291,50.25,26.4,37.35
-925.78125,497.07031,146.48437,-0.3229525831963771,-0.0118575924051242,-0.2915099531229237,2.4,38.4,37.95,341.79687,125.0,952.63672,-0.0811377389313384,-0.0976585020319411,-0.1841256038342442,49.05,12.45,95.1,-562.01172,209.96094,837.40234,-0.0059953805135257,0.0137228257767306,-0.0274456515534612,51.6,25.05,38.55
-942.38281,494.62891,147.46094,-0.3553277426891711,-0.0738101485997654,-0.327349242115076,1.2,39.0,37.5,391.60156,134.27734,956.05469,-0.1256370026060362,-0.0334410320669869,-0.1244379614099161,49.05,12.45,95.1,-550.78125,205.07812,870.11719,0.0151883787496302,0.0098591904115907,-0.0382373713843925,50.85,25.8,39.6
-964.84375,504.39453,149.90234,-0.3109616476364005,-0.1490856756395052,-0.3262833695408831,1.2,39.0,37.5,385.74219,127.44141,954.10156,-0.1597442268485094,-0.0627519169920545,-0.1301670046795875,47.7,11.85,94.8,-539.0625,184.57031,845.21484,-0.0335742006889141,0.0221164632154217,-0.0338407124656936,50.1,26.25,39.6
-911.62109,466.79687,168.45703,-0.4537856055185257,-0.1973154060574157,-0.3669188233175159,0.75,39.3,37.5,409.17969,119.62891,947.75391,-0.1453552088962925,-0.0222496318373489,-0.0879326547752027,48.6,12.45,94.35,-515.625,199.70703,902.34375,-0.0411684773301918,-0.0186523337160634,-0.0735436368229858,49.35,26.55,40.35
-841.79687,391.11328,199.70703,-0.4631117723765574,-0.165073589719474,-0.4043568339044951,3.0,39.75,37.05,419.43359,108.88672,940.91797,-0.1422909343285661,-0.0433002224785777,-0.0678147680862396,49.05,12.45,94.05,-517.08984,187.98828,865.23437,-0.0434333911005048,0.0251807377831481,-0.0679479367081668,49.35,26.55,40.35
-830.07812,337.89062,215.33203,-0.4168806184851056,-0.1071178375118999,-0.4353997835792418,1.35,37.65,37.35,426.75781,84.96094,927.73437,-0.1698697545039545,0.0071944217096458,-0.0206509102425221,49.8,11.55,93.3,-530.76172,162.59766,898.4375,-0.1161776671260773,-0.0166539317225298,-0.0476967068643514,51.75,25.65,39.9
-857.42187,324.70703,204.10156,-0.4668422391197701,0.0287778613715085,-0.4767014295313608,3.45,38.1,36.6,430.17578,75.68359,938.96484,-0.1362955538150403,-0.04849624219469,-0.0726111074036452,49.95,12.9,94.5,-529.29687,151.36719,933.10547,0.6452389742172681,-0.4655098547687976,-0.5338576464085963,51.75,25.65,39.9
-909.66797,332.51953,208.00781,-0.3242847930144244,-0.0235820161883213,-0.4203445734515387,3.45,38.1,36.6,403.80859,24.90234,959.47266,-0.1365620655918199,-0.0483628990398376,-0.055823832526263,50.7,11.1,94.5,-533.69141,105.46875,899.90234,-0.0920628019171221,0.0576890658978693,-0.1941179628677621,51.6,25.5,38.55
-911.62109,376.95312,215.82031,-0.4516538603701397,0.0085268060606182,-0.4603140095856105,2.4,38.1,37.95,404.29687,42.48047,969.72656,-0.1476202971995308,-0.1148452827751048,-0.074209828998472,50.7,11.1,94.5,-504.39453,79.10156,902.34375,0.0393032439585855,0.0103920394322246,-0.0983246942074273,51.0,25.35,40.2
-907.71484,378.90625,194.33594,-0.411018406593507,-0.050228132411444,-0.4184793400799323,1.65,38.4,37.65,399.90234,-48.33984,890.625,-0.1204409828899239,-0.0476967068643514,-0.1389601479840601,49.95,12.6,94.5,-493.65234,94.23828,841.79687,0.0762082309920056,0.011191400229638,-0.0728774446474996,51.0,25.65,38.4
-895.50781,361.81641,199.70703,-0.4300704207082771,-0.073676805444913,-0.3637212055949371,3.3,37.2,37.8,355.95703,-10.74219,857.91016,-0.0467641774450108,-0.0640843013430269,-0.1376279381660128,50.1,12.75,95.1,-480.46875,97.65625,862.30469,0.1316323831195619,-0.0130566336012443,-0.0511608363637097,50.1,26.55,41.4
-886.71875,328.125,209.96094,-0.4464578406540275,-0.0559571756811154,-0.4256737617895781,3.0,37.95,38.55,363.76953,-2.44141,851.07422,0.0695466583029936,-0.0431668793237253,-0.1754656291516987,50.1,11.55,95.4,-456.54297,81.54297,849.12109,0.1149786259299572,0.0189188454928429,-0.069680001457846,51.0,25.35,39.15
-891.11328,341.79687,211.91406,-0.4084869810464144,-0.0159877395470436,-0.3991608141883827,3.0,37.95,38.55,402.83203,43.94531,877.92969,0.0282450123508746,-0.0190520141147701,-0.1420244225517865,49.95,11.4,94.2,-442.38281,101.07422,877.44141,0.1378942754098671,0.0127901218244648,-0.1336309596460206,51.45,25.35,39.45
-887.20703,325.68359,214.35547,-0.3673185037162226,-0.0936615235119489,-0.3196217968518711,3.3,37.2,39.9,426.26953,45.41016,866.21094,-0.0025314255470925,-0.0333078634450597,-0.1901209843477699,50.85,11.55,95.1,-472.65625,92.77344,866.69922,0.118842261295097,0.0186523337160634,-0.1372282577673061,51.45,25.35,39.45
-868.65234,335.44922,224.60937,-0.3637212055949371,-0.0604870032217414,-0.3352098560002081,1.5,37.95,38.1,442.38281,45.89844,860.83984,-0.0023980823922402,0.0221164632154217,-0.1528161423827179,49.2,11.4,93.45,-461.42578,88.86719,820.3125,0.1171101965454179,0.0113245688515652,-0.0988575432280612,50.85,23.7,38.55
-854.98047,346.67969,221.67969,-0.3946309866477567,-0.0776737839649052,-0.3498652111962793,2.55,38.25,38.55,409.17969,72.26563,858.88672,-0.0110582316077108,0.0230489926347623,-0.1485528266188713,49.2,11.4,93.45,-454.10156,116.21094,841.30859,0.1052526041402936,0.0065284040670847,-0.1652067583414012,52.05,25.35,39.9
-891.60156,329.58984,210.44922,-0.3252174969666902,-0.1092495826602858,-0.2673950879139684,2.25,37.95,38.1,385.74219,68.35938,833.98437,-0.0235820161883213,0.0105252080541518,-0.1592113778278755,49.95,11.1,96.0,-465.33203,119.14063,857.42187,0.0952604196397009,0.002264913770313,-0.1743997565775057,52.05,25.35,39.9
-891.11328,334.47266,204.10156,-0.3228192400415248,-0.0648836621404404,-0.2940413786700163,2.25,37.95,38.1,370.60547,73.73047,871.09375,-0.0366386497895657,-0.069680001457846,-0.1981147668548291,48.9,11.4,93.75,-487.30469,133.30078,853.02734,0.0877993116203503,-0.0074609334864253,-0.2069080846922269,51.0,24.9,39.45
-838.86719,306.64062,197.26562,-0.3597244016078701,-0.1108484787880378,-0.2825834666635987,3.75,38.1,39.0,394.53125,70.3125,903.32031,-0.0955267568835552,-0.0658161915597809,-0.1576124817001235,50.25,11.85,93.45,-515.13672,151.85547,841.79687,0.0847350370526239,-0.0265129476011954,-0.1782633919426456,51.45,26.4,40.95
-819.33594,296.875,190.91797,-0.264330813346242,-0.1525498051388636,-0.2113047436109259,3.45,38.85,38.4,392.57812,47.85156,961.91406,-0.0694134896810664,-0.0768744231674918,-0.1606769308007752,50.25,11.85,93.45,-540.03906,155.76172,851.5625,0.0981913510525749,-0.041834669505678,-0.1819938586858583,51.15,25.05,40.05
-830.56641,291.01562,195.3125,-0.2867136138055181,-0.1397595087814735,-0.2644639819681691,3.3,37.5,40.65,389.16016,71.77734,952.63672,-0.0644839817417337,-0.0367718184114929,-0.1397595087814735,49.5,11.1,93.75,-563.96484,164.0625,831.05469,0.0838025076332833,-0.007860613885132,-0.1239051123892822,52.05,24.15,40.2
-834.47266,265.625,173.82812,-0.2122374475631916,-0.0163874199457503,-0.3385406423447141,4.2,38.85,38.7,365.23437,82.51953,937.5,-0.0776737839649052,-0.0619525561946411,-0.0927289940926083,49.8,12.75,93.3,-551.75781,196.28906,834.47266,0.0594211306475485,-0.0031976177225788,-0.196249708016148,52.05,24.15,40.2
-869.62891,287.10937,161.13281,-0.1573461444562691,0.0450321126953316,-0.1987809590303153,4.2,38.85,38.7,373.04687,80.07813,941.89453,-0.0924624823158288,-0.0436999028772844,-0.0498284520127373,49.2,11.4,94.8,-541.50391,209.47266,836.42578,0.0102588708102974,-0.0030642745677264,-0.1445558480988791,52.5,24.6,39.45
-940.42969,300.29297,167.96875,-0.1582786738756097,0.0900643999235885,-0.2737901488262009,3.3,37.5,38.85,372.55859,74.70703,954.58984,-0.04849624219469,-0.1091164140383586,-0.0219831200605693,49.2,11.4,94.8,-556.64062,204.58984,833.49609,-0.0205175670876697,0.0143890179522168,-0.1289677889505422,52.5,24.6,39.45
-929.19922,296.875,155.76172,-0.1376279381660128,0.0755420388165193,-0.3300138362840958,3.45,36.6,40.5,375.48828,98.63281,964.84375,-0.0499617951675896,-0.0654165111610742,-0.0135896571548034,49.8,11.55,95.1,-537.59766,238.28125,850.58594,-0.0137228257767306,0.007860613885132,-0.0110582316077108,52.65,24.75,39.6
-955.07812,302.73437,151.36719,-0.1068515002680456,-0.0162542513238231,-0.1863905176045572,4.05,37.5,39.9,379.88281,106.44531,964.35547,-0.0608866836204481,-0.0700796818565527,0.061419532641082,48.45,10.35,94.8,-545.89844,233.88672,834.47266,-0.0634181091675407,-0.0317089673173077,-0.0450321126953316,51.9,24.3,39.0
-979.49219,300.78125,171.875,-0.0812710820861907,-0.0512940049856369,-0.2069080846922269,4.35,37.5,39.15,392.08984,104.00391,928.22266,-0.0130566336012443,-0.0335742006889141,0.0791393369378048,49.95,11.4,94.5,-531.25,229.49219,822.26562,-0.0751423584178126,0.0017320647496791,-0.0089264864593249,51.75,23.85,39.45
-992.1875,254.39453,182.61719,-0.1104486238564059,-0.0394364125805126,-0.2506079875695113,4.35,37.5,39.15,404.29687,94.23828,928.71094,-0.0181194846954295,-0.020117886688963,0.0762082309920056,49.95,11.4,94.5,-529.29687,229.49219,836.91406,-0.1593445464498027,0.0171867807431637,0.0131899767560967,51.75,25.65,40.5
-1009.76562,257.8125,169.92187,-0.063684446411395,-0.0783399761403914,-0.2379510343669737,4.05,37.95,39.9,412.10937,75.19531,929.6875,-0.0259800985805615,-0.027312482931534,0.1680045211323481,50.85,11.55,94.05,-516.11328,213.86719,833.98437,-0.1529494855375703,0.032908183046353,0.0586217698501351,51.75,25.65,40.5
-987.79297,253.41797,178.71094,-0.0586217698501351,-0.1580123366317554,-0.2157014025296248,4.05,37.95,39.9,395.99609,71.77734,926.75781,-0.0147886983509235,-0.0091929982361045,0.1993139825838744,48.9,11.4,94.8,-535.64453,189.45312,826.66016,-0.1978484296109748,0.0081271256619115,0.1139127533557643,50.7,25.65,38.7
-989.74609,259.76562,175.29297,-0.041301645952119,-0.095393588261628,-0.2121041044083393,3.6,37.95,39.6,384.76562,83.49609,936.03516,0.0115910806283447,-0.015055210127703,0.1906538333684037,48.9,11.4,94.8,-548.33984,188.96484,835.9375,-0.2367519931708536,0.0503614755662963,0.0887320155726161,50.7,25.65,38.7
-965.82031,251.95312,195.80078,0.0322419908708668,-0.0855343978500373,-0.1480199775982374,2.55,36.75,39.9,387.20703,105.46875,930.17578,0.0142556747973644,0.0026645941690197,0.2366186500160012,49.05,11.55,94.35,-551.26953,181.15234,832.51953,-0.2387503951643871,0.0475635382424242,0.1436233186795386,51.45,25.65,39.9
-994.14062,259.27734,201.17187,0.0062618922903052,-0.1075176924435318,-0.1073843492886795,2.55,36.75,39.9,375.48828,103.51563,916.01562,0.0067947413109391,0.0330413516682802,0.2250275693876565,48.6,10.5,94.65,-549.31641,178.71094,834.96094,-0.2716585782107402,0.0267794593779749,0.1326982556937548,51.0,24.6,40.2
-998.53516,259.76562,205.07812,-0.0206509102425221,-0.0694134896810664,-0.0830031468358699,4.2,39.15,40.5,348.63281,119.62891,921.38672,-0.0163874199457503,0.0225161436141284,0.2443460952792061,49.2,11.1,94.5,-552.73437,156.25,815.91797,-0.2560705190624032,-0.0259800985805615,0.103787051167394,52.65,23.7,39.3
-989.25781,264.16016,205.56641,0.0448989440734045,-0.0550244717288496,-0.0747426780191059,3.75,37.35,39.45,349.12109,109.375,935.54687,-0.0482297304179105,0.0508943245869302,0.2719249154545945,49.2,11.1,94.5,-549.80469,148.92578,826.66016,-0.2905774237035831,0.0443659205198454,0.1148452827751048,51.9,26.25,41.1
-953.125,272.46094,215.33203,-0.0278453319521679,-0.0744763407752516,-0.0367718184114929,3.45,37.65,39.45,369.14062,79.58984,920.89844,-0.0678147680862396,0.0543582795533633,0.3124272006093001,48.3,10.5,94.65,-547.36328,133.78906,836.91406,-0.3313460461021431,0.0130566336012443,0.1009892883764471,51.9,26.25,41.1
-940.42969,256.34766,212.89062,-0.0295773967018471,-0.0422343499043847,0.040235773377926,3.45,37.65,39.45,354.00391,47.36328,925.29297,-0.0174532925199432,0.0462311538914518,0.3442695110814603,48.3,11.55,96.45,-558.59375,112.30469,812.5,-0.2857810843861775,0.0214502710399355,0.0806048899107045,52.5,24.15,39.9
-942.87109,277.34375,198.24219,0.0001331686219271,0.0122572728038309,0.0438330714992115,4.05,37.2,40.2,366.21094,36.13281,942.38281,0.0063950609122324,0.0794058487145844,0.3309463657034364,50.1,11.55,95.4,-556.15234,138.18359,864.25781,-0.2900444001500241,0.0301102457224809,0.1097826062138449,52.5,24.15,39.9
-943.35937,288.57422,192.87109,0.0103920394322246,0.0515605167624164,0.049162259837251,5.4,37.95,40.95,355.95703,28.80859,949.21875,0.0454317930940384,0.0506278128101507,0.3456018954324327,48.6,10.8,95.1,-561.52344,108.88672,837.89062,-0.24487894429984,0.0049295079393327,0.0971256530113072,52.05,24.15,40.95
-936.52344,294.43359,187.5,-0.0655498543159266,0.1514839325646706,0.0642174699649541,5.1,37.2,39.15,368.16406,50.29297,960.9375,0.0619525561946411,0.0895313763700295,0.3081638848454536,48.9,11.4,94.5,-556.64062,109.86328,840.82031,-0.2446126070559856,-0.0071944217096458,0.0723445956268657,51.15,24.0,40.05
-936.03516,312.98828,190.42969,-0.0314426300734534,0.1580123366317554,0.1795957762936181,5.25,37.65,39.0,363.76953,63.96484,961.42578,0.0618192130397887,0.0600873228230347,0.31122815941318,49.05,12.45,95.1,-562.01172,125.97656,854.98047,-0.2588682818533501,0.0269126279999021,0.1437564873014657,51.15,24.0,40.05
-979.00391,300.29297,179.19922,-0.0567565364785288,0.1541485267336904,0.1805283057129587,5.25,37.65,39.0,368.16406,74.21875,967.77344,0.0326416712695735,0.0895313763700295,0.2860474216300318,49.05,12.45,95.1,-554.6875,115.23438,853.51562,-0.2556708386636965,0.0105252080541518,0.0399694361340717,51.6,24.0,39.3
-969.23828,303.71094,164.0625,-0.1129800494034985,0.1931852589154963,0.1264363634034496,5.25,37.65,39.0,380.85937,68.84766,957.03125,0.0466310088230837,0.0572893854991626,0.3887687747561581,49.35,11.25,96.15,-556.64062,99.60938,889.64844,-0.2715252350558878,0.0010658725741929,0.0496952833908101,52.8,23.1,39.9
-979.49219,332.51953,177.24609,-0.1306998537002213,0.175731966395553,0.1308330223221485,4.2,36.15,40.8,373.04687,44.92188,969.23828,-0.0097258472567384,0.0885988469506889,0.3254840087434697,49.05,11.25,94.65,-557.12891,86.42578,859.86328,-0.254338454312724,0.1097826062138449,0.0500949637895168,51.15,24.75,40.05
-970.21484,334.47266,169.43359,-0.0731439564242791,0.1225727280383097,0.2300904204818416,4.5,37.65,40.05,391.60156,14.16016,985.35156,0.0342403928644003,0.058088746296576,0.3190887732983121,48.9,12.15,94.5,-558.59375,70.3125,874.51172,-0.218632508475424,0.0850015488294034,0.027312482931534,52.35,25.5,40.35
-952.63672,332.03125,176.26953,-0.1629418445710882,0.150018379591771,0.2276921635566762,4.65,37.95,38.85,389.16016,6.83594,965.82031,0.0151883787496302,0.1121806886060851,0.2899112315280969,48.9,12.15,95.25,-541.01562,86.42578,896.97266,-0.2621990681978561,0.0459648166475974,0.1077840296873862,52.35,25.5,40.35
-912.59766,340.33203,175.78125,-0.1855911568071438,0.148952507017578,0.2235620164147568,2.25,36.0,39.15,387.20703,-5.85937,956.54297,0.0527595579585365,0.1027213531261262,0.2915099531229237,49.95,12.15,94.8,-550.78125,66.40625,886.23047,-0.1986477904083882,0.0439662401211387,0.0563568560798221,50.85,25.05,39.3
-916.99219,327.14844,184.57031,-0.1341638086666545,0.1044532433428802,0.2526063895630449,2.25,36.0,39.15,397.46094,7.8125,967.28516,0.0229158240128351,0.0576890658978693,0.3015023121564416,48.6,11.55,95.4,-529.29687,84.96094,893.55469,-0.1538820149569108,0.0391699008037331,0.0909969293429291,51.9,23.7,41.1
-945.3125,363.28125,174.80469,-0.116577347524784,0.1931852589154963,0.2424808619075998,4.65,37.2,38.55,390.625,2.92969,967.28516,0.0603538345998143,0.0724777642487929,0.3113613280351072,48.6,11.55,95.4,-529.78516,91.79688,887.69531,-0.11990813386929,0.05475795995207,0.1164441789028568,52.8,24.9,39.45
-970.21484,374.51172,167.48047,-0.1621424837736748,0.1943843001116164,0.2038438101245005,3.45,38.1,38.7,399.41406,13.18359,972.65625,0.0840688448771376,0.1386936362072806,0.2338208872250543,49.5,12.15,95.25,-518.55469,59.08203,863.28125,-0.1373614263892333,0.1033873707686873,0.052493046181757,52.8,25.65,39.9
-975.09766,376.46484,182.12891,-0.125503833984109,0.0921959705390492,0.2410153089347001,3.0,37.5,38.1,416.99219,33.69141,945.80078,0.0802052095119978,0.1621424837736748,0.2466110090495192,49.35,12.75,94.35,-515.625,95.21484,886.71875,-0.1513507639427435,0.1164441789028568,0.0756753819713717,51.6,24.3,40.65
-970.21484,374.51172,196.28906,-0.170136266280734,0.1029876903699806,0.2552709837320646,2.1,36.6,39.45,407.71484,22.46094,945.3125,0.1477534658214579,0.1585451856523893,0.2704593624816949,49.5,12.6,94.8,-525.87891,94.72656,877.92969,-0.1372282577673061,0.1075176924435318,0.0871332939777893,51.15,24.0,41.1
-951.17187,372.07031,220.21484,-0.1791960958949114,0.103787051167394,0.1837259234355374,2.1,36.6,39.45,396.97266,37.10938,940.91797,0.1237717692344298,0.1318988948963414,0.2490092659746846,49.5,12.6,94.8,-511.71875,83.98438,870.11719,-0.1075176924435318,0.0819372742616769,0.1320322380511938,51.15,24.0,41.1
-918.45703,364.74609,226.5625,-0.1686707133078344,-0.0503614755662963,0.2192987006509103,3.45,37.65,39.0,402.83203,15.625,923.33984,0.0586217698501351,0.1287014517066878,0.2888453589539039,48.6,12.6,94.8,-496.58203,72.75391,856.44531,-0.0619525561946411,0.0943277156874351,0.1056524590719255,52.65,24.75,41.1
-882.32422,345.21484,219.72656,-0.1743997565775057,0.0496952833908101,0.1301670046795875,2.4,39.15,40.05,404.29687,1.95312,924.80469,0.0690138092823597,0.1528161423827179,0.2519401973875587,47.7,12.0,95.4,-508.30078,76.17188,864.25781,-0.055823832526263,0.1304333419234418,0.11990813386929,52.65,24.75,41.1
-883.78906,328.61328,214.84375,-0.1031210335248329,0.0682144484849463,0.1454885520511449,2.55,39.0,38.55,400.87891,14.16016,921.38672,0.093128674491315,0.1704027780575135,0.2534057503604583,47.7,12.15,95.55,-515.625,74.70703,880.37109,-0.0535589187559499,0.158944866051096,0.0887320155726161,50.85,25.05,40.05
-889.64844,318.35937,205.07812,-0.0426340303030914,0.0401026047559989,0.1881225823542364,3.3,37.95,38.85,383.78906,19.53125,928.22266,0.1073843492886795,0.1771975193684527,0.2054425317193273,47.7,12.15,95.55,-520.50781,79.58984,855.46875,-0.0687472975055802,0.1646737347878422,0.0319754790940873,51.9,24.3,41.1
-897.94922,351.5625,221.19141,0.0026645941690197,0.0983246942074273,0.2256937615631427,3.3,37.95,38.85,357.42187,36.62109,921.38672,0.1998468316045083,0.1894547921722836,0.2230291673941229,49.5,11.85,94.8,-532.71484,87.89063,881.34766,-0.1257703457608885,0.1516171011865978,0.0419678381276052,51.75,24.9,39.9
-901.85547,372.07031,222.16797,-0.0397029243572922,0.1617428033749681,0.1608100994227023,3.75,39.15,38.7,386.23047,38.08594,945.3125,0.1418912539298594,0.1797289449155452,0.2439464148804994,49.8,11.55,95.4,-530.27344,82.51953,844.23828,-0.1424242774834185,0.2271593145360423,0.042900542079871,52.35,25.5,38.25
-900.39062,377.44141,204.10156,0.0310429496747467,0.0582220894514284,0.1572128013014168,4.05,37.5,38.55,392.57812,28.80859,936.03516,0.1827932194832717,0.2137030005360913,0.2727242762520079,49.5,12.6,95.55,-536.13281,94.23828,865.72266,-0.1414915735311527,0.1584120170304621,0.0197182062902563,52.35,25.5,38.25
-905.76172,377.92969,189.45312,0.0562235129249697,0.0739433172216925,0.193584939314203,2.7,39.15,39.75,403.32031,60.05859,954.10156,0.1235054319905755,0.1562802718820762,0.2154348907528452,49.5,12.6,95.55,-536.13281,97.16797,911.62109,-0.1422909343285661,0.1528161423827179,0.0171867807431637,51.45,25.35,38.7
-900.39062,398.92578,200.68359,0.0109248884528585,0.1029876903699806,0.1653399269633284,2.55,39.3,39.15,402.83203,36.13281,934.08203,0.1664057995375213,0.2085068062870538,0.2013123845774079,49.35,12.45,94.05,-515.625,101.07422,883.30078,-0.1585451856523893,0.0976585020319411,0.0093261668580317,51.45,25.35,38.7
-894.53125,397.94922,205.56641,-0.0177198042967228,0.0149218669728507,0.1570796326794896,2.55,39.3,39.15,392.08984,14.64844,913.08594,0.189588135327136,0.2154348907528452,0.230889781279255,49.35,12.75,94.65,-539.0625,117.1875,906.73828,-0.1196416220925105,0.1657396073620351,-0.0006661921754862,50.85,24.3,39.3
-891.60156,387.20703,199.21875,0.0495619402359577,0.0455651362488907,0.1858576685839233,3.15,38.4,39.75,396.48437,92.77344,965.33203,0.1490856756395052,0.2400826049824344,0.2536722621372378,49.35,12.75,94.65,-539.0625,79.10156,861.81641,-0.146687593247265,0.1641408857672083,0.0230489926347623,51.9,24.3,40.35
-899.90234,404.29687,185.54687,-0.0460979852695246,0.0654165111610742,0.0951270764848485,2.1,38.85,39.75,421.875,69.33594,984.86328,0.0863337586474507,0.113246561180278,0.2115712553877054,50.4,12.75,94.35,-525.87891,86.91406,880.37109,-0.1329647674705344,0.1553475679298105,0.032908183046353,51.9,24.3,40.35
-867.1875,401.36719,182.61719,0.0014655529728996,-0.0305099261211876,0.0814042507081179,2.7,40.35,38.4,381.34766,39.0625,969.72656,0.068614128883653,0.060753514998521,0.230889781279255,48.45,11.85,95.55,-513.18359,90.33203,879.39453,-0.1822603704626378,0.1509510835440367,0.0006661921754862,51.15,24.3,39.6
-879.39453,414.55078,177.24609,-0.0311761182966739,-0.0082602942838387,0.1328315988486072,1.2,39.0,39.6,387.69531,39.55078,925.78125,0.0616860444178615,0.0879326547752027,0.1601439072472161,49.05,11.25,93.6,-516.60156,82.03125,861.81641,-0.1689372250846139,0.1706692898342931,0.0351730968166661,51.45,24.9,39.9
-901.36719,419.43359,185.05859,-0.0740764858436197,0.0608866836204481,0.0754088701945922,1.2,39.0,39.6,396.97266,27.83203,919.92187,0.0679479367081668,0.1384272989634262,0.1769310075916731,49.05,11.25,93.6,-513.67187,65.91797,906.73828,-0.189588135327136,0.1320322380511938,0.0081271256619115,51.45,24.15,38.4
-908.20312,408.69141,176.26953,-0.059687642424328,-0.0587549384720623,0.0854012292281101,2.55,39.0,38.55,407.71484,23.92578,916.50391,0.0261132672024887,0.1386936362072806,0.225960098806997,49.95,12.15,94.8,-493.16406,36.62109,869.14062,-0.1841256038342442,0.1159111553492978,0.0173201238980161,51.9,23.7,38.55
-918.94531,391.11328,184.57031,-0.0672817445326806,-0.0282450123508746,0.1358958734163337,2.1,39.6,39.45,387.20703,-3.90625,913.08594,0.0387702204050264,0.1303001733015146,0.1989143021851677,49.8,12.75,95.1,-529.29687,41.50391,867.67578,-0.1811944978884449,0.1637412053685016,0.0025314255470925,51.9,23.7,38.55
-906.25,406.73828,202.63672,-0.0854012292281101,-0.0215834396618626,0.0522267089379027,4.05,39.3,39.15,380.37109,0.0,916.99219,0.0386370517830992,0.0949939078629213,0.1340306400447273,49.8,13.5,95.4,-532.71484,48.82813,882.8125,-0.1775971997671594,0.1313660458757076,0.0659495347146333,51.9,23.7,39.0
