IMU1_AccX,IMU1_AccY,IMU1_AccZ,IMU1_GyrX,IMU1_GyrY,IMU1_GyrZ,IMU1_MagX,IMU1_MagY,IMU1_MagZ,IMU2_AccX,IMU2_AccY,IMU2_AccZ,IMU2_GyrX,IMU2_GyrY,IMU2_GyrZ,IMU2_MagX,IMU2_MagY,IMU2_MagZ,IMU3_AccX,IMU3_AccY,IMU3_AccZ,IMU3_GyrX,IMU3_GyrY,IMU3_GyrZ,IMU3_MagX,IMU3_MagY,IMU3_MagZ
-916.50391,188.47656,438.96484,0.0612863640191548,-0.0007993607974134,0.0309096065198943,9.9,33.0,50.7,263.18359,50.78125,975.09766,-0.0992572236267679,-0.0090596550812521,0.1055191159170731,53.85,12.15,92.7,-560.54687,163.08594,841.79687,-0.1239051123892822,0.0310429496747467,-0.0207840788644492,50.85,25.5,38.25
-903.32031,192.87109,442.87109,-0.0026645941690197,0.0162542513238231,-0.0506278128101507,9.9,32.85,51.3,248.04687,41.99219,972.65625,-0.0718115720733066,-0.0398360929792193,0.0706125308771865,53.85,10.35,93.15,-542.48047,174.80469,809.08203,-0.1015221373970809,0.0039969785199922,0.0006661921754862,50.85,25.5,38.25
-899.90234,176.75781,453.125,-0.0194516945134768,0.0247810573844414,-0.0488959225933967,10.35,34.2,52.5,252.44141,54.19922,988.28125,-0.0567565364785288,-0.0125237845806105,0.1013889687751538,55.2,12.0,92.85,-565.91797,174.80469,833.49609,-0.1334976164911682,0.0307764378979672,-0.0146553551960711,51.9,26.25,38.25
-888.18359,177.24609,441.40625,0.0327748398915007,-0.0185191650941362,-0.0057288687367461,10.2,32.55,51.9,229.49219,49.31641,978.02734,-0.0548913031069224,-0.0241148652089552,0.1285681085518354,55.2,12.0,92.85,-555.66406,178.22266,833.98437,-0.1814610096652244,0.0243813769857347,-0.0522267089379027,51.15,25.5,37.95
-880.85937,174.31641,443.35937,-0.0269126279999021,0.0559571756811154,-0.0762082309920056,10.2,32.55,51.9,253.41797,68.35938,982.91016,-0.041834669505678,0.0367718184114929,0.0572893854991626,54.75,12.0,93.3,-548.33984,168.94531,824.70703,-0.1365620655918199,-0.0034639549664331,0.0206509102425221,50.85,24.0,38.25
-894.53125,190.42969,430.17578,0.0033307863445059,0.0659495347146333,-0.068081105330094,11.85,32.7,50.7,263.18359,48.33984,987.79297,-0.0383705400063197,-0.0091929982361045,0.0879326547752027,55.2,10.8,94.05,-569.33594,163.08594,851.07422,-0.1953170040638822,0.0181194846954295,0.0031976177225788,50.25,24.9,39.45
-898.92578,169.43359,450.68359,0.0271791397766816,0.0555574952824086,-0.0345069046411798,9.3,33.75,51.75,265.13672,54.6875,985.83984,-0.0454317930940384,0.0173201238980161,0.1089830708835063,54.75,12.0,92.85,-561.03516,175.78125,816.40625,-0.1885222627529431,-0.0029311059457992,0.0471638578437175,51.45,26.1,39.9
-908.69141,160.15625,425.29297,0.0115910806283447,0.0956601000384076,-0.0744763407752516,9.9,33.3,52.95,268.06641,62.5,987.79297,-0.0848683802074762,-0.0301102457224809,0.1458882324498516,54.75,12.0,92.85,-547.85156,192.87109,808.59375,-0.1680045211323481,0.0229158240128351,0.0098591904115907,51.45,26.7,39.15
-920.89844,167.96875,427.24609,-0.0357059458372999,0.1179097318757565,-0.0526263893366094,10.5,32.55,52.35,261.71875,48.82813,968.26172,-0.027312482931534,-0.0683476171068735,0.1240382810112094,54.45,12.75,94.05,-535.15625,192.87109,830.56641,-0.1934517706922759,0.0243813769857347,0.0814042507081179,51.45,26.7,39.15
-932.12891,161.13281,430.17578,0.0467641774450108,0.0578224090527217,-0.006128723668378,10.5,32.55,52.35,251.95312,49.80469,964.84375,-0.0203843984657425,-0.063684446411395,0.1574793130781963,54.6,11.4,92.4,-537.10937,202.63672,819.82422,-0.240882140312773,0.0347734164179594,0.095393588261628,51.45,26.4,38.4
-927.24609,166.01562,420.89844,-0.0530260697353161,0.058088746296576,-0.0182526533173567,10.2,33.6,51.6,264.64844,62.5,967.77344,-0.0291777163031404,-0.0587549384720623,0.1621424837736748,54.0,10.8,93.3,-543.94531,183.59375,836.42578,-0.2478100502456393,0.0436999028772844,0.0887320155726161,50.25,26.1,40.5
-885.74219,152.83203,424.80469,-0.0341072242424731,0.0618192130397887,-0.0069280844657914,11.85,31.95,51.15,252.44141,63.47656,972.65625,-0.0483628990398376,-0.0678147680862396,0.1914533686987423,54.0,10.05,93.6,-546.875,177.73437,850.58594,-0.2761884057513663,0.0334410320669869,0.1048529237415869,51.15,25.5,38.55
-879.39453,156.25,430.17578,0.0035972981212855,0.032375159492794,0.0338407124656936,9.6,32.4,50.1,272.46094,58.59375,964.35547,-0.0259800985805615,-0.0921959705390492,0.1830597312600512,53.1,9.9,94.2,-552.73437,179.19922,835.9375,-0.2523400523191905,0.0361056262360067,0.0917962901403425,52.05,24.9,38.4
-901.36719,170.89844,436.52344,0.0330413516682802,0.1004564393558132,0.0185191650941362,11.4,32.7,51.75,283.20312,60.05859,962.40234,-0.0067947413109391,-0.0327748398915007,0.1855911568071438,54.6,11.85,93.75,-534.66797,165.52734,840.33203,-0.2468775208262987,0.020117886688963,0.1012558001532266,51.15,25.8,39.3
-910.15625,161.13281,420.89844,-0.0699463387017003,0.0743429976203992,-0.0366386497895657,11.4,32.7,51.75,286.13281,65.42969,958.49609,-0.0297105653237742,0.0286446927495813,0.2636646211707558,54.6,11.85,93.75,-537.10937,140.13672,861.81641,-0.2776539587242659,0.0139893375535101,0.1107151356331855,52.05,25.35,39.15
-897.94922,158.20312,427.73437,0.0258469299586344,0.0309096065198943,0.0135896571548034,9.3,33.45,51.15,290.52734,30.27344,980.46875,-0.0389035635598788,0.0014655529728996,0.1630750131930153,54.75,11.55,94.35,-551.75781,136.71875,854.49219,-0.2973721650145223,0.0342403928644003,0.0992572236267679,52.05,25.35,39.15
-899.41406,177.73437,437.98828,0.0113245688515652,0.0097258472567384,0.0494287716140306,11.1,33.0,50.7,307.61719,39.0625,997.07031,-0.0107917198309313,-0.0083936374386911,0.2240948654353907,54.9,10.65,93.75,-531.73828,110.35156,876.95312,-0.2677947683126752,0.0287778613715085,0.0767412545455646,50.7,24.9,40.2
-896.97266,177.73437,437.5,-0.0147886983509235,0.0293108849250675,0.0209172474863764,9.6,32.7,50.7,295.41016,8.78906,988.28125,-0.0118575924051242,-0.0006661921754862,0.1851914764084371,53.85,12.6,92.7,-554.19922,78.125,861.32812,-0.2640643015694625,0.0759418937481512,0.1081837100860929,51.6,25.05,39.3
-925.78125,195.80078,412.59766,0.0011990411961201,0.0334410320669869,0.0840688448771376,9.6,32.7,51.15,276.85547,18.06641,979.00391,-0.0221164632154217,-0.0149218669728507,0.1549478875311037,56.1,12.9,93.15,-534.17969,57.12891,854.49219,-0.3081638848454536,-0.0250473946282958,0.0570230482553083,51.15,25.8,39.3
-914.0625,212.40234,442.38281,-0.0664823837352672,-0.0151883787496302,0.0347734164179594,9.6,32.7,51.15,272.94922,7.8125,963.37891,-0.0075941021083525,-0.0021317451483858,0.1324319184499005,53.7,12.75,94.65,-537.59766,85.9375,894.53125,-0.2531394131166039,-0.0768744231674918,0.013456313999951,50.7,25.35,39.45
-881.83594,196.28906,438.47656,-0.0943277156874351,0.0390367321818059,0.022382800459276,9.0,32.7,50.1,288.08594,-3.90625,957.51953,-0.0401026047559989,0.0314426300734534,0.1103154552344788,54.3,12.6,93.75,-538.08594,82.03125,867.67578,-0.1690703937065411,-0.032908183046353,0.0263797789792682,51.9,25.5,39.3
-874.51172,185.05859,445.80078,-0.0779402957416847,0.0094593354799588,0.0106585512090041,9.15,33.3,51.9,303.22266,-9.27734,982.91016,-0.0267794593779749,0.005595700114819,0.0971256530113072,54.3,12.6,93.75,-550.78125,90.33203,854.49219,-0.1308330223221485,-0.0006661921754862,0.06634921511334,51.15,26.25,38.55
-886.23047,178.22266,433.59375,-0.0382373713843925,-0.0054625314928918,0.0321086477160144,11.4,31.2,50.7,296.875,-22.46094,989.25781,-0.0251807377831481,-0.0038636353651398,0.1248376418086228,52.8,11.1,93.75,-542.96875,88.86719,875.97656,-0.0383705400063197,0.0610198522423753,0.1004564393558132,51.15,26.25,38.55
-872.55859,188.96484,442.87109,-0.0919296332951949,0.0828698036810175,0.0193185258915496,10.05,32.4,50.7,298.82812,-39.55078,1000.97656,0.0069280844657914,-0.0253139064050753,0.0559571756811154,54.0,11.25,93.6,-545.41016,65.91797,890.625,0.0185191650941362,0.0278453319521679,0.0712787230526728,51.6,26.25,39.0
-876.95312,198.73047,450.68359,-0.0434333911005048,0.0251807377831481,0.1072511806667523,10.05,32.4,50.7,302.24609,-42.48047,996.09375,0.057422728654015,-0.0101255276554451,0.0282450123508746,53.4,11.25,94.35,-528.32031,59.57031,853.02734,0.0279785005740951,0.0442327518979182,0.1211071750654101,50.7,25.35,39.45
-879.88281,200.19531,439.94141,-0.0406354537766327,0.0391699008037331,0.1040535629441735,10.95,32.55,51.9,274.90234,-30.76172,977.53906,0.0940612039106556,-0.0341072242424731,-0.0455651362488907,53.4,11.25,94.35,-518.06641,58.59375,831.05469,0.0511608363637097,0.0738101485997654,0.0771409349442713,50.7,25.35,39.45
-905.27344,202.14844,436.03516,-0.098724374606134,0.1011224569983742,0.0595542992694757,10.05,33.45,51.45,282.22656,-15.625,951.66016,0.0846018684306967,0.0118575924051242,0.0133231453780239,54.3,11.1,93.75,-519.53125,72.75391,874.02344,0.1012558001532266,0.0683476171068735,0.052493046181757,50.1,25.05,39.3
-902.34375,212.89062,456.54297,-0.0766079113907123,0.0543582795533633,0.0611531953972277,9.3,33.0,51.75,298.82812,4.88281,954.58984,0.0939280352887284,0.0354394340605204,-0.0214502710399355,54.75,10.8,93.3,-520.01953,97.16797,891.60156,0.1044532433428802,0.0668820641339739,0.0652833425391471,51.0,26.1,39.45
-881.34766,200.68359,451.66016,-0.0466310088230837,0.0382373713843925,0.0479632186411309,9.9,33.3,50.55,322.75391,-2.92969,1004.88281,0.0345069046411798,0.1424242774834185,-0.0656830229378538,54.75,10.8,93.3,-540.52734,104.98047,832.03125,0.1585451856523893,0.0698131700797731,0.0760750623700784,50.55,25.5,38.55
-878.90625,202.14844,459.47266,-0.0483628990398376,0.1048529237415869,0.0349065850398865,9.9,33.3,50.55,307.61719,30.27344,978.51562,0.0800720408900706,0.0590214502488418,-0.0660827033365605,53.4,12.0,92.85,-541.01562,155.76172,892.57812,0.175731966395553,0.132165406673121,0.0869999508229369,50.1,27.0,39.6
-860.35156,203.125,464.84375,0.0002665117767795,0.0359724576140795,0.0968591412345277,11.25,33.3,50.85,306.15234,34.17969,1005.85937,0.0700796818565527,0.0830031468358699,-0.0778071271197576,53.1,10.65,94.2,-526.36719,153.80859,858.88672,0.1045865864977326,0.0563568560798221,0.0198513749121835,50.1,27.0,39.6
-870.11719,202.63672,460.44922,0.0247810573844414,0.1031210335248329,0.0654165111610742,9.3,33.45,51.45,317.87109,26.36719,1000.0,0.0839356762552105,0.0893982077481023,-0.0640843013430269,54.3,11.85,95.25,-529.78516,170.89844,849.60937,0.0776737839649052,0.1100489434576992,0.0722112524720134,51.6,25.8,39.6
-897.94922,209.96094,455.07812,-0.0199847180670358,0.1426906147272728,-0.0021317451483858,9.45,32.55,52.35,312.01172,45.89844,999.02344,0.105385947295146,0.1454885520511449,-0.0804717212887773,54.3,11.85,95.25,-544.43359,198.73047,896.48437,0.0426340303030914,0.1449555284975858,0.0135896571548034,51.6,25.8,39.6
-893.06641,220.21484,455.07812,0.0438330714992115,0.0728774446474996,0.0166539317225298,10.05,33.75,52.5,328.61328,85.9375,982.42187,0.1085833904847996,0.1561469287272238,-0.0174532925199432,54.3,11.85,95.25,-528.32031,167.96875,851.07422,0.022382800459276,0.1632081818149425,0.045165455850184,50.1,26.25,37.95
-898.92578,203.61328,442.38281,0.0511608363637097,0.0177198042967228,0.073676805444913,10.05,33.75,52.5,301.75781,80.07813,994.14062,0.1200413024912172,0.2383507147656804,-0.0405022851547056,54.0,12.75,93.6,-537.59766,172.36328,864.25781,0.058088746296576,0.1438898304563181,0.0410353087082646,50.7,24.9,38.1
-896.48437,183.10547,450.19531,-0.029044373148288,0.0989908863829135,-0.0411684773301918,9.9,34.35,51.6,317.38281,104.49219,968.26172,0.0939280352887284,0.1841256038342442,-0.0085268060606182,53.4,12.75,94.05,-535.15625,197.75391,908.69141,0.0353062654385932,0.1055191159170731,0.0579555776746489,51.75,26.7,38.7
-883.30078,199.70703,455.56641,-0.0169204434993094,0.1444226794769519,-0.015055210127703,10.5,33.6,51.3,328.61328,92.28516,961.91406,0.0847350370526239,0.2094395102393195,0.023448673033469,53.4,12.75,94.05,-509.76562,185.54687,850.09766,0.0193185258915496,0.1160443239712249,0.0163874199457503,52.05,26.4,38.4
-877.92969,195.3125,462.40234,0.0425006871482391,0.060753514998521,0.0029311059457992,9.45,34.05,49.5,308.10547,92.77344,960.9375,0.0551578148837019,0.209706022016099,-0.0082602942838387,53.4,12.0,93.6,-519.04297,198.73047,871.58203,0.0159877395470436,0.1352296812408474,0.0174532925199432,52.05,26.4,38.4
-879.88281,207.51953,460.44922,-0.0326416712695735,0.0758085505932989,-0.0138559943986577,8.55,32.7,50.7,299.80469,105.95703,993.65234,0.0354394340605204,0.1249709849634751,0.0330413516682802,54.3,10.65,94.2,-519.53125,195.80078,880.37109,-0.0057288687367461,0.1189754299170242,0.0536922619108023,51.0,26.4,37.65
-847.65625,204.58984,486.32812,-0.0122572728038309,0.0806048899107045,-0.0446324322966249,8.55,32.7,50.7,310.05859,84.96094,957.51953,0.0255804181818548,0.0814042507081179,-0.015055210127703,54.75,12.75,94.05,-520.50781,198.73047,859.86328,-0.0559571756811154,0.1646737347878422,0.0158545709251164,51.0,26.4,37.65
-804.6875,217.28516,479.49219,0.0215834396618626,0.1013889687751538,0.0175864611418704,8.55,32.7,50.7,317.87109,89.84375,941.89453,0.110981647409965,0.1280352595312016,0.0266462907560478,54.75,12.75,94.05,-498.53516,220.70312,904.78516,-0.0431668793237253,0.1112481591867445,0.0519601971611231,51.15,25.5,38.25
-778.32031,204.58984,487.79297,-0.0263797789792682,0.1112481591867445,-0.0229158240128351,9.6,32.4,50.1,301.75781,71.28906,927.73437,0.1040535629441735,0.167871352510421,0.0070612530877186,54.0,12.0,94.05,-491.21094,221.67969,842.77344,-0.1454885520511449,0.1381607871866467,0.0391699008037331,50.85,27.3,39.0
-771.97266,188.96484,478.51562,-0.0338407124656936,0.194650811888396,-0.0021317451483858,9.45,33.6,50.25,301.75781,102.05078,930.66406,0.1392266597608396,0.1786630723413523,0.0334410320669869,53.7,13.2,92.55,-502.44141,233.88672,863.28125,-0.0534257501340228,0.0678147680862396,0.0417013263508257,51.9,28.5,38.55
-784.17969,172.36328,466.79687,0.0668820641339739,0.1958498530845161,0.0423675185263119,10.2,33.3,50.25,318.35937,121.58203,960.44922,0.1745329251994329,0.189588135327136,0.0627519169920545,53.7,13.2,92.55,-497.07031,220.70312,837.89062,-0.1241714496331365,0.1056524590719255,0.0600873228230347,51.45,27.45,37.65
-821.77734,184.57031,451.17187,0.0121241041819038,0.2995039101629081,-0.0247810573844414,10.2,32.85,49.5,304.6875,141.60156,949.21875,0.2061087238948135,0.2254272497863632,0.0579555776746489,54.0,12.75,94.05,-498.04687,215.33203,842.28516,-0.1157779867273706,0.0467641774450108,0.0712787230526728,51.45,27.45,37.65
-856.93359,206.54297,440.42969,0.0403691165327784,0.2510076679682181,-0.042900542079871,10.2,32.85,49.5,329.10156,160.15625,870.11719,0.2755222135758801,0.3138927535821997,0.0472970264656447,54.45,12.75,94.65,-494.14062,196.77734,828.61328,-0.1273690673557154,0.0977916706538682,0.0594211306475485,51.75,26.1,38.1
-875.48828,196.28906,442.87109,0.023981696587028,0.1594777150717298,0.0079939570399844,9.3,31.95,50.1,324.70703,152.34375,964.35547,0.1442895108550248,0.0927289940926083,0.0784731447623186,56.1,11.4,94.2,-499.51172,171.875,826.66016,-0.185724325429071,0.0562235129249697,0.0005328490206338,51.75,26.1,38.1
-886.71875,200.19531,428.22266,-0.0059953805135257,0.2887120157990516,0.0023980823922402,8.4,33.6,50.25,320.80078,130.85937,957.03125,0.1069846688899728,0.1338974714228001,0.0795390173365115,56.1,11.4,94.2,-505.37109,165.52734,842.28516,-0.172401180051047,0.0838025076332833,-0.0154548905264097,51.75,27.45,38.7
-912.10937,200.19531,446.77734,0.0746095093971788,0.2296907400831349,-0.0333078634450597,9.9,33.3,48.45,277.34375,77.63672,945.3125,0.0138559943986577,0.0182526533173567,0.1211071750654101,55.35,12.6,93.45,-530.27344,123.04688,846.19141,-0.1609432680446295,0.0999234158022541,-0.0301102457224809,51.0,27.9,38.4
-882.8125,211.42578,447.75391,0.0563568560798221,0.1533491659362769,0.074209828998472,11.1,32.7,49.35,261.71875,11.23047,939.94141,-0.006128723668378,0.0784731447623186,0.1153783063286639,55.65,11.85,94.8,-531.25,83.98438,840.82031,-0.1421577657066389,0.0568897051004559,-0.0426340303030914,51.0,27.9,38.4
-882.32422,219.23828,411.13281,0.0774072721881257,0.1497518678149914,0.0981913510525749,11.1,32.7,49.35,259.27734,3.41797,941.89453,0.0067947413109391,0.0038636353651398,0.0125237845806105,54.9,13.35,94.5,-537.10937,79.58984,804.6875,-0.0515605167624164,0.055823832526263,0.0069280844657914,51.75,26.1,39.15
-939.94141,241.21094,397.46094,0.077540615342978,0.2860474216300318,0.0602204914449619,11.1,32.7,49.65,221.67969,17.57813,933.59375,0.0354394340605204,0.0386370517830992,-0.002264913770313,54.3,12.6,92.4,-550.29297,70.3125,823.73047,-0.0691469779042869,0.0334410320669869,0.0202512298438154,51.0,25.65,37.05
-902.34375,242.1875,407.71484,0.094860564708069,0.1771975193684527,0.020117886688963,10.95,32.55,49.8,222.16797,48.33984,947.75391,0.0238483534321757,0.0049295079393327,-0.0358392889921523,56.25,12.45,93.6,-567.38281,92.77344,841.79687,-0.0750091897958855,0.0169204434993094,-0.0377045223637587,51.0,25.65,38.4
-856.44531,239.25781,397.94922,0.0472970264656447,0.1684043760639801,0.1233720888357231,9.3,33.0,49.05,223.63281,66.89453,964.84375,0.0434333911005048,0.0598208110462552,0.0037304667432126,54.9,13.35,94.8,-583.00781,96.19141,833.49609,-0.093128674491315,-0.0235820161883213,-0.0293108849250675,51.9,25.8,39.0
-879.39453,202.63672,379.39453,0.0466310088230837,0.2615328760223699,-0.0182526533173567,9.15,34.35,48.45,250.48828,62.01172,988.76953,-0.016787100344457,0.0214502710399355,-0.0219831200605693,54.9,13.35,94.8,-574.21875,117.1875,867.1875,-0.0519601971611231,-0.0043966589186989,-0.0606201718436686,51.9,25.8,39.0
-904.29687,180.66406,389.64844,0.0908637607210019,0.255404326886917,0.0612863640191548,9.15,34.35,48.45,240.72266,33.69141,991.69922,-0.0570230482553083,-0.0175864611418704,0.036238969390859,56.1,13.35,93.15,-568.35937,83.98438,833.98437,-0.0075941021083525,-0.0171867807431637,-0.0185191650941362,52.35,27.0,39.3
-907.22656,182.12891,382.8125,0.1244379614099161,0.1520167815853045,0.0123904414257581,10.2,33.6,48.75,245.60547,21.48438,981.93359,-0.0495619402359577,-0.059687642424328,-0.068614128883653,54.9,12.9,93.45,-561.52344,76.66016,860.83984,0.0077274452632048,-0.0612863640191548,-0.0652833425391471,51.75,26.1,38.1
-877.44141,187.01172,374.02344,0.1203078142679967,0.3527963171420786,0.0391699008037331,10.2,34.05,50.55,241.21094,4.39453,960.9375,-0.0503614755662963,-0.0299770771005538,-0.0374380105869791,55.5,13.95,94.65,-568.35937,57.61719,843.26172,0.0582220894514284,-0.0917962901403425,-0.0198513749121835,50.55,24.75,39.6
-940.42969,207.03125,366.21094,0.1698697545039545,0.435532952201169,0.0066615726890119,9.6,33.45,49.65,234.375,-20.50781,965.82031,-0.0401026047559989,-0.0342403928644003,-0.0943277156874351,55.65,12.15,93.45,-560.05859,30.76172,839.84375,0.1247044731866956,-0.1027213531261262,-0.0398360929792193,51.45,26.4,38.1
-1014.16016,217.28516,377.92969,0.1582786738756097,0.3422711090879268,-0.0003996803987067,9.45,32.1,48.75,219.72656,-61.52344,984.86328,0.0206509102425221,-0.0884655037958365,-0.0854012292281101,55.65,12.6,92.7,-584.47266,41.50391,853.51562,0.1769310075916731,-0.093128674491315,-0.0037304667432126,52.05,26.4,38.7
-969.72656,202.14844,371.58203,0.0381042027624654,0.2443460952792061,-0.0498284520127373,9.45,32.1,48.75,224.60937,-57.61719,983.39844,0.0542251109314362,-0.06634921511334,-0.1405590441118121,56.25,11.25,94.35,-572.26562,35.15625,822.75391,0.2324885028740818,-0.1035207139235396,0.0039969785199922,51.45,26.7,38.4
-973.63281,194.33594,375.97656,0.1313660458757076,0.214768698577359,0.055823832526263,10.05,33.75,48.6,245.60547,-30.76172,988.76953,0.0760750623700784,-0.0658161915597809,-0.1910535137671104,56.25,11.25,94.35,-557.12891,58.10547,872.55859,0.2725911076300807,-0.0807380585326316,-0.0017320647496791,51.45,26.7,38.4
-978.02734,208.49609,379.39453,0.1362955538150403,0.2572695602585234,0.0205175670876697,9.15,33.3,48.75,244.62891,-9.76562,992.1875,0.0666155523571943,-0.0394364125805126,-0.2001133433812878,54.3,13.35,93.75,-560.54687,94.23828,867.67578,0.2363521382392217,-0.0896645449919567,-0.0353062654385932,50.1,25.8,39.3
-964.84375,210.44922,406.73828,0.0466310088230837,0.1704027780575135,0.040235773377926,9.3,33.75,46.95,254.39453,17.08984,1002.92969,0.0900643999235885,-0.0839356762552105,-0.2555374955088442,54.75,13.2,93.6,-555.66406,99.12109,830.56641,0.2912434413461441,-0.032908183046353,0.0131899767560967,50.1,25.8,39.3
-937.01172,186.52344,390.13672,0.086467101802303,0.2625987485965628,-0.0003996803987067,9.0,34.5,45.45,264.16016,39.0625,997.07031,0.1115144964305989,-0.0929953313364626,-0.187989239199384,54.6,12.9,93.45,-568.84766,116.69922,846.19141,0.3217533674673318,-0.0349065850398865,0.0178529729186499,50.55,25.8,38.25
-944.82422,195.3125,358.39844,0.11990813386929,0.2167672751038177,0.0488959225933967,9.0,34.5,45.45,271.48437,65.91797,1003.41797,0.0678147680862396,-0.063684446411395,-0.1923858981180829,54.6,12.9,93.45,-576.17187,146.97266,835.44922,0.2792526803190927,-0.1015221373970809,-0.0281118437289474,51.45,26.7,39.15
-955.56641,205.07812,378.41797,0.1115144964305989,0.2440795835024266,-0.0237151848102485,8.55,34.5,48.3,252.92969,76.17188,1012.69531,0.0655498543159266,-0.0460979852695246,-0.2300904204818416,54.45,12.45,93.3,-562.5,159.17969,808.10547,0.2755222135758801,-0.0644839817417337,-0.050228132411444,51.0,26.1,38.7
-949.21875,199.21875,375.48828,0.0873996312216436,0.2350199284211744,-0.0085268060606182,10.35,33.0,47.55,256.83594,79.10156,989.74609,0.0678147680862396,-0.0560903443030425,-0.2187656770973512,56.25,12.0,93.3,-552.24609,184.08203,821.77734,0.2547381347114308,-0.054091942309509,-0.0315757986953806,50.25,26.1,38.7
-940.91797,225.09766,361.32812,0.1476202971995308,0.3160244987305857,0.0375711792089063,8.25,34.5,46.95,253.90625,94.72656,983.39844,0.0812710820861907,-0.0391699008037331,-0.2067749160702998,56.25,12.0,94.65,-548.33984,177.73437,818.84766,0.22196329481993,-0.0310429496747467,-0.0720780838500862,50.25,26.1,38.7
-969.23828,255.85937,355.95703,0.0961929490590414,0.2704593624816949,-0.0551578148837019,8.25,33.0,48.6,263.67187,75.19531,978.51562,0.0349065850398865,-0.0338407124656936,-0.1955835158406617,56.25,12.0,94.65,-550.29297,172.36328,842.77344,0.2336875440702019,-0.0365053066347134,-0.0338407124656936,51.45,24.9,38.7
-952.14844,234.375,363.76953,0.0442327518979182,0.1478866344433851,-0.043566559722432,8.25,33.0,48.6,260.25391,86.91406,975.58594,0.0229158240128351,-0.0487625794385443,-0.201845408130967,55.35,12.15,93.45,-559.08203,189.94141,828.61328,0.2078407886444927,0.0101255276554451,-0.0263797789792682,51.45,24.9,38.7
-927.24609,235.83984,337.89062,0.1144456023763981,0.2083736376651266,0.0193185258915496,9.45,32.85,47.4,267.08984,90.82031,981.44531,0.0175864611418704,-0.0074609334864253,-0.196915725658709,55.35,11.85,93.45,-551.26953,188.47656,817.38281,0.2304901008805483,0.0014655529728996,-0.0401026047559989,50.7,26.7,38.4
-945.3125,227.53906,335.9375,0.0688804661275074,0.2384838833876076,-0.0454317930940384,9.6,33.45,46.2,259.76562,94.23828,960.44922,-0.0079939570399844,-0.054091942309509,-0.1692037368613934,54.45,14.25,94.35,-545.89844,189.94141,848.14453,0.2371516735695603,-0.0289112045263608,0.0130566336012443,51.0,27.15,37.35
-942.87109,237.79297,340.82031,0.0401026047559989,0.2298239087050621,-0.095393588261628,9.15,33.6,46.65,268.55469,75.68359,972.65625,0.0277121633302407,-0.0492956029921034,-0.225960098806997,54.45,14.25,94.35,-544.43359,171.38672,839.84375,0.2486095855759778,0.0051960197161123,-0.0043966589186989,51.0,27.15,37.35
-966.79687,188.47656,331.54297,0.0963261176809686,0.1546815502872494,-0.0466310088230837,9.15,33.6,46.65,259.27734,41.99219,981.93359,-0.0033307863445059,0.0226493122360556,-0.1127137121596442,55.8,10.8,93.3,-565.42969,164.0625,838.86719,0.2568698798598167,0.018385996472209,0.0157212277702641,52.35,26.55,38.25
-953.125,187.01172,332.51953,0.0893982077481023,0.2238285281915364,-0.1244379614099161,9.15,33.6,46.65,232.42187,38.57422,994.14062,0.016787100344457,-0.096459460835821,-0.1742664134226534,54.9,11.85,93.45,-562.5,169.43359,852.53906,0.254338454312724,0.0538254305327295,0.045165455850184,51.6,27.0,37.2
-953.61328,185.05859,325.19531,0.1096492630589925,0.2013123845774079,-0.1139127533557643,8.25,33.0,46.2,248.53516,30.27344,974.60937,0.0885988469506889,-0.0612863640191548,-0.1759984781723326,54.9,11.85,93.45,-556.15234,173.33984,802.73437,0.2407487971579206,-0.0093261668580317,0.041834669505678,51.6,27.0,37.2
-967.28516,183.59375,338.86719,0.1147121141531777,0.1075176924435318,-0.1253706653621819,9.0,32.7,45.9,239.74609,60.54688,958.00781,0.1354961930176269,-0.0807380585326316,-0.1815941782871516,55.35,11.1,94.8,-571.77734,197.26562,825.19531,0.2547381347114308,0.0285115241276541,0.0600873228230347,49.95,27.9,38.7
-954.10156,179.19922,322.26562,0.049162259837251,0.0510274932088574,-0.1384272989634262,10.05,31.95,45.9,246.58203,108.88672,957.03125,0.1618759719968953,-0.0037304667432126,-0.1763981585710393,55.35,11.85,94.2,-570.3125,233.88672,863.76953,0.2246278889889497,0.0001331686219271,0.0623522365933478,49.95,27.9,38.7
-986.81641,184.57031,313.96484,0.0711455544307456,0.0667488955120467,-0.1180429004976836,10.05,31.95,45.9,243.16406,120.60547,995.11719,0.1770643507465255,-0.0442327518979182,-0.1305666850782942,56.1,11.4,93.15,-548.33984,235.35156,811.52344,0.220364398692178,-0.0166539317225298,0.0098591904115907,50.1,27.0,37.95
-947.75391,178.22266,309.08203,0.1164441789028568,0.1160443239712249,-0.0937948666668012,10.05,31.95,45.9,273.92578,151.36719,987.30469,0.1269693869570086,-0.0229158240128351,-0.1032542021467601,56.1,11.4,93.15,-552.24609,240.23437,853.51562,0.1959831962393684,0.0099923590335179,0.0464976656682313,51.9,26.25,37.2
-971.67969,194.82422,313.96484,0.074209828998472,0.096459460835821,-0.0802052095119978,8.7,33.6,46.35,271.48437,158.69141,997.55859,0.0778071271197576,-0.011191400229638,-0.1040535629441735,54.75,11.55,94.05,-547.85156,229.98047,841.30859,0.1119141768293056,-0.0030642745677264,0.0081271256619115,50.85,27.75,38.25
-1022.46094,206.05469,303.71094,0.0251807377831481,0.0121241041819038,-0.0698131700797731,9.45,33.3,47.1,267.08984,151.85547,972.16797,0.018385996472209,-0.0253139064050753,-0.1171101965454179,54.3,10.65,94.5,-541.50391,210.9375,822.75391,0.1389601479840601,0.0133231453780239,0.0065284040670847,51.0,26.4,37.65
-987.79297,208.00781,310.54687,0.0254472495599277,-0.0514271736075641,-0.0707458740320389,9.3,32.7,44.85,272.46094,130.37109,963.86719,0.039569755735365,-0.0903307371674429,-0.0912634411197086,54.3,10.65,94.5,-545.41016,203.61328,867.67578,0.1196416220925105,-0.0221164632154217,-0.0219831200605693,51.0,28.2,38.1
-950.19531,214.84375,329.58984,-0.0037304667432126,-0.0620857248165682,-0.0143890179522168,9.15,32.85,46.35,265.13672,109.86328,954.58984,0.0387702204050264,-0.0367718184114929,-0.0683476171068735,54.75,12.75,93.6,-526.36719,181.15234,827.14844,0.1350965126189202,0.007860613885132,0.0311761182966739,51.6,27.0,37.95
-935.54687,215.33203,333.98437,-0.1107151356331855,-0.0425006871482391,-0.0042633157638465,9.15,32.85,46.35,266.60156,78.125,952.14844,0.0130566336012443,-0.1008561197545199,-0.0940612039106556,54.9,12.15,93.15,-520.01953,161.13281,829.58984,0.1729342036046061,0.0147886983509235,0.0037304667432126,51.6,27.0,37.95
-913.08594,218.26172,334.96094,-0.0985910314512816,-0.0542251109314362,0.064750318985588,10.35,31.95,47.25,258.78906,78.61328,953.61328,0.0628850856139816,-0.0588882816269146,-0.1271025555789358,55.35,12.6,92.7,-520.50781,169.92187,843.75,0.2268928027592628,-0.0478300500192038,0.0053291883380394,52.8,27.45,38.1
-909.66797,198.73047,345.21484,-0.0604870032217414,-0.0267794593779749,0.0658161915597809,9.45,31.35,46.35,263.67187,79.10156,954.58984,0.0604870032217414,-0.050761155965003,-0.1345634890653612,55.35,12.6,92.7,-527.34375,186.03516,846.67969,0.2323553342521546,-0.1040535629441735,-0.0298437339457014,50.85,28.5,39.0
-890.13672,225.09766,359.86328,-0.1267028751802291,0.0190520141147701,0.058088746296576,9.6,31.65,46.5,271.97266,86.91406,960.44922,0.050761155965003,-0.0604870032217414,-0.1345634890653612,55.2,12.45,92.85,-532.71484,191.40625,863.28125,0.2418146697321135,-0.0911300979648563,-0.0471638578437175,50.85,26.55,37.5
-898.92578,236.81641,368.65234,-0.0691469779042869,0.0059953805135257,0.0823369546603836,9.45,32.85,46.35,259.76562,117.1875,958.49609,0.0734104682010586,-0.0556906639043358,-0.1089830708835063,54.6,12.15,94.5,-528.80859,197.26562,815.91797,0.1211071750654101,-0.0739433172216925,-0.0603538345998143,50.85,28.05,37.95
-888.18359,240.72266,358.39844,-0.0933951862680945,-0.0794058487145844,0.0516936853843436,9.45,32.85,46.35,278.80859,124.51172,963.37891,0.0131899767560967,-0.0735436368229858,-0.1490856756395052,55.65,13.35,94.5,-522.46094,191.89453,826.66016,0.1750657742200668,-0.069680001457846,0.0075941021083525,51.75,27.9,38.7
-852.05078,252.44141,345.70312,-0.1558805914833695,0.0482297304179105,0.1040535629441735,8.7,32.55,44.7,265.13672,125.97656,949.21875,0.0233155044115418,-0.1324319184499005,-0.1446891912537315,55.2,12.0,94.05,-524.41406,227.05078,839.35547,0.1632081818149425,-0.0410353087082646,-0.032375159492794,51.45,27.15,38.4
-912.59766,247.55859,348.63281,-0.1084502218628724,-0.0042633157638465,0.1084502218628724,8.55,33.45,45.9,266.11328,120.11719,937.98828,-0.0575558972759422,-0.1374945950111605,-0.1220398790176759,56.4,12.9,93.75,-503.90625,238.76953,782.22656,0.096459460835821,-0.1019218177957876,-0.1005896079777403,51.45,27.15,38.4
-895.99609,256.34766,349.12109,-0.1176432200989769,-0.0182526533173567,0.1313660458757076,8.25,31.95,47.25,268.06641,136.23047,906.73828,-0.0427671989250186,-0.1636080367465744,-0.1426906147272728,55.5,11.55,92.55,-503.41797,252.92969,833.98437,0.1743997565775057,-0.1141790905996186,-0.0611531953972277,51.75,28.2,38.1
-895.01953,227.53906,354.00391,-0.1360290420382608,0.0588882816269146,0.0266462907560478,9.45,32.1,46.05,250.97656,138.67187,883.78906,-0.0217166082837898,-0.1247044731866956,-0.1565467836588557,55.5,11.55,92.55,-486.81641,264.64844,805.17578,0.1217733672408963,-0.1648070779426945,-0.0758085505932989,50.25,27.9,37.05
-914.0625,202.14844,343.75,-0.0487625794385443,0.018385996472209,0.0422343499043847,9.45,32.1,46.05,268.55469,177.24609,866.69922,0.0383705400063197,-0.1674716721117143,-0.1544150385104699,54.3,12.15,92.4,-476.5625,227.53906,810.05859,0.1428239578821251,-0.2079739572664199,-0.0694134896810664,50.85,26.55,38.25
-909.17969,207.51953,359.86328,-0.0326416712695735,0.058088746296576,0.022382800459276,9.6,31.2,45.45,275.39062,187.98828,908.69141,0.0691469779042869,-0.182393539084565,-0.1212403436873373,54.75,12.75,93.3,-524.41406,282.22656,918.45703,0.2121041044083393,-0.2063752356715931,-0.1223062162615302,51.9,27.0,38.55
-902.83203,206.54297,371.09375,-0.0155880591483369,0.0459648166475974,-0.0143890179522168,9.3,33.0,46.95,299.80469,181.64062,958.49609,0.0923293136939016,-0.2800520411165061,-0.1341638086666545,54.45,15.0,94.35,-496.09375,282.71484,919.43359,0.1505512286124048,-0.1833262430368307,-0.064750318985588,51.9,27.0,38.55
-874.02344,213.86719,387.69531,-0.0452986244721112,0.1207074946667034,0.0199847180670358,8.25,32.7,46.2,338.86719,161.62109,1009.27734,0.0743429976203992,-0.3025681847306345,-0.0718115720733066,53.55,12.15,92.7,-498.04687,238.28125,891.11328,0.1664057995375213,-0.1854578136522914,-0.0913966097416358,50.25,27.9,38.1
-914.0625,203.125,381.83594,0.0110582316077108,0.1003230962009608,0.0174532925199432,7.65,34.05,45.3,344.72656,145.99609,1009.76562,0.0495619402359577,-0.2508744993462909,-0.0555574952824086,55.2,12.0,93.6,-493.65234,250.48828,869.14062,0.29337518649453,-0.2061087238948135,-0.0782068075184643,51.15,27.0,37.5
-920.41016,214.35547,386.23047,-0.0610198522423753,0.104320074720953,-0.0353062654385932,7.65,34.05,45.3,372.07031,146.48437,1024.90234,-0.0746095093971788,-0.2568698798598167,-0.0209172474863764,52.8,11.4,93.75,-508.78906,234.86328,884.76562,0.3121608633654458,-0.2145023613335047,-0.0734104682010586,51.15,27.0,37.5
-947.75391,219.72656,372.07031,-0.1007227765996675,0.1404257009569597,-0.0917962901403425,8.4,33.6,46.65,333.00781,125.97656,1020.01953,-0.170136266280734,-0.325750345987324,0.0053291883380394,52.8,11.4,93.75,-492.67578,265.13672,893.55469,0.2920428021435576,-0.2324885028740818,-0.0067947413109391,50.1,26.25,38.55
-989.74609,231.44531,375.97656,-0.0522267089379027,0.0727442760255724,0.0583552580733556,7.95,34.2,46.5,369.14062,81.54297,990.72266,-0.2611331956236632,-0.3020351611770755,0.0179861415405771,52.8,11.4,93.75,-503.41797,237.79297,834.96094,0.2218299516650776,-0.1609432680446295,-0.0656830229378538,50.1,26.25,38.55
-1023.92578,216.30859,388.67187,-0.1117810082073784,0.1033873707686873,-0.0570230482553083,9.45,33.6,45.0,306.64062,104.98047,927.24609,-0.2204977418470304,-0.3421377659330744,-0.0281118437289474,53.7,11.25,93.6,-510.74219,250.48828,830.56641,0.230889781279255,-0.2171669555025244,0.0267794593779749,50.25,28.2,39.15
-1031.73828,213.86719,385.74219,-0.170136266280734,0.0738101485997654,-0.0315757986953806,7.95,32.4,47.25,314.45312,73.73047,901.36719,-0.077007591789419,-0.2311562930560345,-0.0539585991546566,55.35,11.4,93.45,-489.25781,269.53125,856.44531,0.2033109611038666,-0.1067181571131932,-0.085934078248744,50.85,28.05,40.05
-1003.41797,201.66016,417.48047,-0.1300336615247351,0.0095926786348112,0.0446324322966249,7.95,32.4,47.25,296.38672,52.73438,960.9375,-0.0711455544307456,-0.218099484921865,-0.0662158719584876,54.3,11.85,93.45,-526.36719,315.42969,799.31641,0.0989908863829135,-0.1586783542743164,-0.0945942274642146,50.1,27.0,37.95
-942.87109,187.98828,453.61328,-0.1771975193684527,0.0267794593779749,0.006128723668378,9.0,33.75,46.5,325.19531,54.19922,966.30859,0.0091929982361045,-0.2323553342521546,-0.0476967068643514,52.2,11.55,92.85,-494.14062,244.14062,842.28516,0.1662726309155942,-0.1437564873014657,-0.0539585991546566,51.9,27.3,38.55
-867.1875,190.91797,470.70312,-0.1886554313748702,0.1035207139235396,0.0450321126953316,8.4,32.55,47.1,310.05859,63.47656,954.58984,0.0099923590335179,-0.2503414757927318,-0.08420218803199,54.45,12.45,94.35,-497.55859,240.23437,821.28906,0.0814042507081179,-0.0880658233971298,-0.0409019655534123,51.9,27.3,38.55
-827.14844,211.91406,471.67969,-0.1213736868421896,0.1793292645168386,0.0917962901403425,9.9,33.3,46.35,349.12109,41.01563,960.44922,0.0373046674321268,-0.2438132462585722,-0.0512940049856369,54.6,11.85,94.8,-485.35156,247.07031,834.47266,0.1124472003828646,-0.0928621627145355,0.0265129476011954,50.55,28.8,39.3
-809.08203,226.07422,446.28906,-0.1634746935917221,0.416081083154767,0.0783399761403914,9.9,33.6,46.05,328.125,50.78125,941.89453,0.1001899275790336,-0.242081181508893,-0.1125803690047918,54.6,11.85,94.8,-458.98437,210.9375,866.21094,0.1176432200989769,-0.1378942754098671,-0.0401026047559989,50.55,28.8,39.3
-819.33594,248.53516,448.73047,-0.182926562638124,0.5094762694228616,0.0872664625997164,9.9,33.6,46.05,340.82031,52.73438,954.10156,0.0624854052152749,-0.20411032190128,-0.0844685252758443,53.7,11.55,93.3,-494.62891,184.57031,819.82422,0.0783399761403914,-0.025713586803782,-0.0401026047559989,51.6,27.75,37.5
-828.61328,286.62109,425.78125,-0.2372848421914875,0.5868835416109873,0.1205743260447762,7.5,32.7,46.2,333.49609,87.40234,949.21875,0.0814042507081179,-0.1390934911389125,-0.1116478395854512,52.8,11.85,94.2,-480.95703,203.125,853.02734,0.1574793130781963,-0.0130566336012443,0.023448673033469,51.75,28.2,39.15
-861.81641,276.36719,401.85547,-0.313493073183493,0.7788697593303635,0.0488959225933967,9.45,33.6,45.6,349.12109,102.53906,958.49609,0.1093829258151382,-0.150018379591771,-0.049162259837251,54.3,11.1,93.75,-483.39844,249.02344,836.42578,0.1183094122744632,0.004529827540626,-0.0266462907560478,51.75,26.4,39.9
-933.59375,250.48828,379.88281,-0.3507979151485451,0.7608836177897863,-0.0169204434993094,7.2,33.0,46.2,363.76953,113.76953,959.47266,0.0307764378979672,-0.1127137121596442,-0.1211071750654101,54.3,11.1,93.75,-481.93359,277.34375,816.89453,0.0643506385868813,-0.0046631706954784,-0.0471638578437175,48.45,27.45,39.15
-970.70312,236.32812,323.24219,-0.3336109598724561,0.6351132720288978,-0.0423675185263119,9.0,33.0,45.15,377.92969,143.55469,961.42578,0.0556906639043358,-0.0925956509377559,-0.0522267089379027,53.7,12.45,93.6,-479.49219,295.41016,873.53516,0.1017886491738605,0.0057288687367461,-0.0431668793237253,48.45,27.45,39.15
-961.42578,231.44531,292.96875,-0.2964394610622565,0.6275191699205452,-0.1405590441118121,9.0,33.0,45.15,360.35156,145.50781,973.14453,0.0063950609122324,-0.0480965617959833,-0.0426340303030914,53.1,11.85,93.45,-492.1875,300.78125,851.07422,0.0222496318373489,0.0113245688515652,-0.0911300979648563,50.7,28.65,39.45
-954.58984,213.86719,260.74219,-0.2546049660895036,0.5780903983065147,-0.1545482071323971,8.55,33.0,45.9,365.72266,136.71875,979.49219,-0.0405022851547056,-0.0876661429984231,0.0002665117767795,53.1,11.85,93.45,-493.65234,267.57812,864.74609,0.0063950609122324,0.0117244237831971,-0.0174532925199432,50.7,28.65,39.45
-946.77734,208.49609,243.65234,-0.2406156285359934,0.5306600286860175,-0.1538820149569108,8.25,34.2,45.45,358.88672,110.83984,967.77344,-0.0019984019935335,-0.0576890658978693,0.0039969785199922,53.55,12.6,94.2,-510.74219,264.16016,874.02344,-0.0003996803987067,0.0125237845806105,-0.0658161915597809,49.95,27.9,40.2
-947.75391,198.24219,232.91016,-0.1981147668548291,0.5250643285711986,-0.1269693869570086,7.5,34.5,42.75,342.77344,85.9375,992.1875,-0.051827028539196,-0.0683476171068735,0.0219831200605693,52.05,11.1,93.75,-521.48437,254.88281,852.53906,-0.0342403928644003,0.0443659205198454,-0.0535589187559499,50.25,28.2,39.45
-944.33594,172.36328,242.1875,-0.2256937615631427,0.5299938365105312,-0.1378942754098671,8.1,34.35,43.95,346.67969,77.14844,980.46875,-0.0606201718436686,-0.0474303696204971,0.0768744231674918,53.4,11.55,94.35,-525.87891,249.51172,867.1875,-0.0363721380127862,0.0091929982361045,-0.0421010067495324,51.45,27.15,39.15
-951.66016,180.17578,234.86328,-0.1430902951259795,0.3887687747561581,-0.1326982556937548,8.1,34.35,43.95,309.57031,84.47266,979.49219,-0.0335742006889141,-0.0467641774450108,0.032375159492794,53.4,11.55,94.35,-541.99219,261.23047,846.67969,-0.0568897051004559,0.0554241521275563,0.0030642745677264,50.7,27.15,38.7
-943.35937,162.10937,235.83984,-0.1720014996523403,0.3771776941278134,-0.2230291673941229,8.1,34.35,43.95,314.45312,97.16797,979.49219,0.0117244237831971,-0.0639509581881746,0.0723445956268657,52.95,11.25,94.65,-513.18359,263.18359,851.5625,-0.0495619402359577,0.0174532925199432,0.0249142260063686,51.45,27.45,39.9
-936.52344,157.22656,223.14453,-0.094860564708069,0.3453353836556532,-0.0671485759107534,7.65,33.6,44.7,305.17578,121.09375,952.14844,0.0059953805135257,-0.0447657754514773,0.1031210335248329,53.1,12.15,94.2,-514.16016,265.13672,853.02734,-0.0993905667816202,0.0285115241276541,0.0154548905264097,50.55,28.8,39.6
-953.61328,153.80859,217.77344,-0.1056524590719255,0.3561271034865845,-0.1019218177957876,7.05,33.3,45.0,316.89453,115.23438,950.68359,-0.0556906639043358,-0.0299770771005538,0.0287778613715085,53.1,12.15,94.2,-515.13672,240.23437,833.00781,-0.1405590441118121,-0.0059953805135257,0.0341072242424731,50.55,28.8,39.6
-960.9375,155.27344,228.02734,-0.0578224090527217,0.2335543754482748,-0.0436999028772844,8.1,34.05,43.65,321.28906,115.72266,947.75391,-0.0302434143444081,-0.0556906639043358,0.1155114749505911,51.9,11.25,94.65,-492.1875,236.32812,864.74609,-0.1408253813556664,0.0203843984657425,-0.0077274452632048,50.55,28.8,39.6
-920.89844,161.13281,221.67969,-0.073676805444913,0.2206309104689576,-0.0863337586474507,7.5,34.2,43.8,347.65625,106.93359,953.125,-0.0511608363637097,-0.0463644970463041,0.1145789455312505,51.9,11.25,92.55,-488.76953,236.81641,838.86719,-0.198514621786461,-0.0169204434993094,0.1322985752950481,50.55,28.5,38.25
-936.03516,169.92187,219.23828,-0.0286446927495813,0.2194318692728375,-0.0522267089379027,7.5,34.2,43.8,337.40234,87.89063,946.28906,-0.0716784034513795,-0.0510274932088574,0.1220398790176759,52.95,11.55,94.35,-515.625,242.1875,831.05469,-0.2026447689283804,-0.0403691165327784,-0.05475795995207,49.2,27.9,38.7
-930.66406,171.875,218.75,-0.0053291883380394,0.1933186020703487,0.0390367321818059,7.95,33.75,43.05,341.30859,91.30859,937.01172,-0.061419532641082,-0.0094593354799588,0.1059187963157798,52.95,11.55,94.35,-504.39453,236.81641,841.79687,-0.1572128013014168,0.0231821612566894,-0.0086599746825454,50.55,27.75,39.3
-941.89453,178.71094,208.00781,-0.0291777163031404,0.1588116974291688,-0.0724777642487929,7.65,34.05,42.9,328.61328,94.72656,946.28906,-0.0218499514386422,-0.0466310088230837,0.1168438593015635,52.5,10.35,93.75,-499.02344,243.16406,852.05078,-0.2171669555025244,0.0405022851547056,0.0190520141147701,51.15,27.75,39.3
-920.89844,171.875,223.63281,-0.0058622118915985,0.2343537362456882,-0.027312482931534,9.0,34.2,44.85,356.44531,99.60938,946.77734,-0.0305099261211876,-0.0526263893366094,0.1481531462201646,52.5,11.4,94.2,-499.51172,230.46875,840.33203,-0.1704027780575135,0.0347734164179594,0.0377045223637587,50.7,27.9,38.7
-934.57031,186.03516,238.28125,0.0265129476011954,0.0355727772153728,0.0467641774450108,8.1,33.3,43.95,334.96094,84.96094,940.91797,-0.04849624219469,-0.0203843984657425,0.1557472483285172,51.75,10.65,94.5,-497.55859,223.63281,858.39844,-0.1705359466794407,0.0233155044115418,-0.049162259837251,49.8,26.55,38.25
-954.10156,189.45312,225.58594,-0.0233155044115418,0.0904640803222952,-0.032908183046353,8.1,33.3,43.95,341.30859,73.24219,979.00391,-0.0895313763700295,0.0539585991546566,0.1751991173749191,52.8,11.4,93.75,-510.74219,229.98047,836.42578,-0.1769310075916731,0.0250473946282958,0.0042633157638465,49.8,26.55,38.25
-958.00781,190.42969,219.72656,0.0377045223637587,0.0474303696204971,0.0796723604913639,7.65,32.85,43.2,333.49609,68.84766,974.12109,-0.1092495826602858,0.0137228257767306,0.1381607871866467,52.5,10.35,94.2,-501.46484,218.75,836.91406,-0.193584939314203,0.0421010067495324,0.052493046181757,51.45,27.45,39.9
-1004.39453,185.05859,209.47266,0.0564900247017492,-0.0706125308771865,-0.0225161436141284,6.15,33.0,42.3,335.44922,67.87109,940.42969,-0.0321086477160144,0.0351730968166661,0.1484196579969441,52.05,12.15,95.25,-529.29687,235.35156,847.16797,-0.1785299037194251,0.068614128883653,0.0341072242424731,50.1,27.3,38.25
-979.49219,187.98828,207.51953,0.0133231453780239,-0.0075941021083525,-0.0421010067495324,7.35,34.35,42.9,337.40234,52.24609,969.23828,-0.0345069046411798,0.031309286918601,0.1580123366317554,52.05,12.15,95.25,-509.27734,197.26562,810.05859,-0.2900444001500241,0.0046631706954784,0.042900542079871,51.0,28.65,39.45
-974.12109,187.5,222.16797,0.0337075438437664,-0.0766079113907123,0.0229158240128351,7.35,33.3,42.15,320.3125,60.54688,949.70703,0.0135896571548034,-0.0159877395470436,0.1694700741052478,51.9,11.25,94.35,-506.34766,216.30859,824.70703,-0.1518836129633773,0.1067181571131932,0.0616860444178615,51.15,28.05,39.0
-983.88672,174.80469,223.63281,0.0270459711547545,-0.0731439564242791,-0.0514271736075641,7.35,33.3,42.15,339.84375,70.3125,933.10547,-0.0138559943986577,0.1251041535854023,0.1510842521659639,52.5,11.4,94.2,-510.74219,252.44141,815.91797,-0.2046431709219139,0.0790061683158777,0.0735436368229858,50.7,27.45,38.1
-988.28125,171.38672,244.62891,-0.0131899767560967,-0.071944915228159,-0.0341072242424731,7.65,33.3,43.2,332.51953,84.96094,937.98828,0.03064326927604,0.1496186991930643,0.1672051603349347,53.4,12.0,93.6,-512.20703,210.9375,821.77734,-0.198514621786461,0.0892648645932499,0.0851347174513306,50.25,26.4,38.7
-998.04687,180.17578,245.11719,-0.0074609334864253,-0.1497518678149914,0.0026645941690197,7.2,32.4,44.4,329.58984,76.17188,951.66016,-0.0013323843509724,0.1819938586858583,0.1866570293813367,53.4,12.0,93.6,-526.36719,233.88672,861.32812,-0.2267596341373356,0.123238920213796,0.0583552580733556,50.25,26.4,38.7
-987.79297,172.36328,245.60547,0.032375159492794,-0.1468207618691921,0.0025314255470925,7.65,35.85,43.2,316.89453,83.98438,972.16797,0.0667488955120467,0.1496186991930643,0.1609432680446295,52.95,10.8,95.1,-533.20312,200.68359,802.24609,-0.2824502980416715,0.1685375446859072,0.1177763887209041,50.55,27.0,38.25
-998.04687,176.75781,259.76562,-0.0326416712695735,-0.1681378642872005,-0.0027979373238721,7.35,34.8,44.25,318.84766,95.21484,951.17187,0.041301645952119,0.1197749652473628,0.1532159973143498,51.6,10.5,95.1,-536.13281,199.21875,809.08203,-0.2700596820829882,0.1530826541594974,0.093128674491315,50.55,27.0,38.25
-980.46875,179.6875,261.71875,-0.014522186574144,-0.1858576685839233,-0.0516936853843436,7.35,34.8,44.25,298.82812,67.87109,948.73047,0.0361056262360067,0.13776110678794,0.2228958242392706,52.65,11.25,95.1,-528.32031,233.88672,841.79687,-0.2777871273461931,0.1508177403891844,0.1052526041402936,51.15,27.75,40.65
-935.54687,198.24219,263.18359,-0.0327748398915007,-0.1883889195980907,0.0654165111610742,6.9,32.4,43.8,312.01172,111.81641,963.37891,0.0800720408900706,0.1353630243956998,0.2184991653205717,52.65,11.25,95.1,-545.89844,231.44531,834.47266,-0.295640100264843,0.1040535629441735,0.0880658233971298,51.15,28.8,38.25
-929.19922,202.63672,270.01953,-0.0433002224785777,-0.1168438593015635,-0.0652833425391471,7.35,33.6,43.2,289.55078,98.14453,957.51953,0.089797888146809,0.2340872244689086,0.1894547921722836,52.5,10.35,94.2,-537.10937,229.00391,873.53516,-0.2331546950495681,0.1412250617543731,0.078606487917171,51.0,28.2,39.45
-943.84766,188.96484,273.92578,-0.0178529729186499,-0.0434333911005048,0.0229158240128351,9.0,34.2,44.4,287.59766,112.30469,994.14062,0.0787396565390981,0.2474103698469326,0.2335543754482748,52.05,11.85,94.5,-553.71094,213.37891,863.76953,-0.2981715258119357,0.162275652395602,0.0708790426539661,51.0,26.7,39.45
-950.68359,173.82812,255.85937,0.0178529729186499,-0.0699463387017003,0.0515605167624164,8.4,34.05,43.95,286.62109,94.72656,1024.90234,0.0421010067495324,0.1452220402743654,0.2226293124624911,52.95,10.8,92.55,-565.91797,190.91797,831.05469,-0.3348101756015014,0.1269693869570086,0.0824701232823108,51.0,26.7,39.45
-984.86328,161.13281,276.36719,-0.0350397536618137,-0.0126569532025376,-0.058088746296576,8.4,34.05,43.95,287.10937,85.44922,991.21094,0.006128723668378,0.1484196579969441,0.2418146697321135,52.5,12.9,94.2,-558.59375,187.01172,862.30469,-0.2959066120416226,0.1601439072472161,0.0648836621404404,51.45,26.4,39.45
-974.60937,167.96875,265.625,0.0270459711547545,-0.0980581824306478,0.0374380105869791,9.0,32.4,44.85,297.85156,79.10156,1003.41797,-0.0173201238980161,0.2452787992314719,0.2363521382392217,53.1,11.1,95.55,-548.82812,182.12891,870.60547,-0.3126937123860797,0.1318988948963414,0.0170536121212365,51.45,26.4,39.45
-979.98047,183.59375,258.30078,0.0567565364785288,-0.0819372742616769,0.0660827033365605,9.0,31.95,44.1,287.10937,89.35547,1000.0,0.025713586803782,0.1689372250846139,0.2232955046379773,52.65,11.55,92.55,-560.54687,147.46094,865.23437,-0.3064318200957744,0.1228392398150893,0.0071944217096458,51.45,26.4,39.45
-979.98047,177.24609,257.8125,0.0482297304179105,0.0366386497895657,-0.0161209081689708,7.05,33.6,43.65,310.05859,64.94141,981.93359,0.0137228257767306,0.2486095855759778,0.2446126070559856,52.65,11.55,92.55,-568.35937,177.24609,886.71875,-0.2343537362456882,0.1009892883764471,0.0318423104721601,51.45,27.15,39.45
