IMU1_AccX,IMU1_AccY,IMU1_AccZ,IMU1_GyrX,IMU1_GyrY,IMU1_GyrZ,IMU1_MagX,IMU1_MagY,IMU1_MagZ,IMU2_AccX,IMU2_AccY,IMU2_AccZ,IMU2_GyrX,IMU2_GyrY,IMU2_GyrZ,IMU2_MagX,IMU2_MagY,IMU2_MagZ,IMU3_AccX,IMU3_AccY,IMU3_AccZ,IMU3_GyrX,IMU3_GyrY,IMU3_GyrZ,IMU3_MagX,IMU3_MagY,IMU3_MagZ
-818.35937,138.18359,467.77344,-0.14015918918018025,0.006261892290305255,-0.05928796202562137,11.55,32.1,52.65,274.41406,110.83984,989.74609,-0.08486838020747627,-0.04223434990438478,-0.04836289903983767,54.3,12.15,93.75,-545.41016,262.69531,847.65625,0.08713329397778931,-0.0369049870334201,-0.09299533133646266,50.85,27.75,37.5
-863.28125,153.80859,484.86328,-0.06315159739076123,0.008659974682545464,0.06861412888365308,11.55,32.1,52.65,263.18359,97.65625,997.55859,-0.07394331722169258,-0.02011788668896304,-0.030909606519894377,55.65,13.35,93.15,-558.10547,264.64844,816.40625,0.01025887081029747,-0.02011788668896304,-0.06861412888365308,50.7,27.45,36.6
-871.58203,172.85156,461.91406,-0.11644417890285688,-0.05169368538434365,0.053292581512095656,10.65,31.95,53.55,246.58203,126.95313,988.28125,-0.05342575013402282,-0.015321547371557422,-0.0182526533173567,55.5,12.45,92.55,-566.89453,263.18359,812.01172,-0.011857592405124276,-0.006794741310939124,-0.05369226191080236,50.7,27.9,37.65
-907.71484,175.78125,447.75391,-0.15188361296337732,-0.06928032105913931,0.00186523337160634,10.65,31.2,52.8,246.58203,133.30078,969.72656,-0.05462479133014293,-0.05875493847206231,-0.031708967317307775,55.65,11.4,93.15,-555.66406,295.89844,815.42969,-0.06661555235719438,-0.05915461887076901,-0.10245484134934674,50.7,27.9,37.65
-904.29687,176.26953,455.07812,-0.18465845285487806,-0.08833233517390941,-0.0022649137703130416,11.1,31.65,52.5,259.27734,154.78516,978.02734,-0.05875493847206231,-0.0831363154577971,0.0373046674321268,55.5,12.45,93.6,-560.54687,280.27344,826.66016,-0.11764322009897699,-0.045032112695331694,-0.03823737138439257,50.1,27.0,37.2
-879.88281,187.01172,482.42187,-0.15987757000336178,-0.14695410502404457,0.04303371070179819,10.5,31.05,53.7,265.625,145.50781,987.30469,-0.08100457030941122,-0.07567538197137175,0.03677181841149293,56.55,13.5,92.85,-550.78125,270.50781,859.86328,-0.13189889489634146,-0.03277483989150072,-0.09379486666680127,50.1,27.0,37.2
-837.89062,158.20312,491.21094,-0.18945479217228367,-0.21476869857735903,0.08686678220100978,10.5,31.05,53.7,272.46094,134.27734,996.58203,-0.1248376418086228,-0.094860564708069,0.07967236049136395,54.75,12.45,92.55,-550.78125,234.375,833.00781,-0.11178100820737844,-0.07767378396490525,-0.034373736019252726,50.85,28.05,37.2
-800.29297,132.8125,486.81641,-0.2752557017991005,-0.13043334192344183,0.0013323843509724712,10.65,31.65,53.85,260.74219,109.375,982.42187,-0.14975186781499147,-0.03823737138439257,0.05142717360756412,54.75,12.45,92.55,-561.03516,223.63281,827.14844,-0.1057856276938527,-0.0811377389313384,-0.04916225983725108,51.6,28.05,37.95
-824.70703,133.30078,469.72656,-0.23368754407020198,-0.00652840406708479,0.048496242194690044,11.55,31.35,54.0,270.99609,97.16797,960.44922,-0.11671051614671123,-0.0863337586474507,0.09352835489002174,56.4,12.15,91.95,-540.03906,234.86328,841.79687,-0.14682076186919218,-0.05209336578305035,-0.05169368538434365,51.0,28.65,38.7
-873.04687,136.23047,477.53906,-0.1317657262744143,-0.10352071392353968,0.017586461141870464,11.25,31.8,53.4,269.53125,90.82031,965.82031,-0.11337972980220523,-0.09446088430936231,0.08500154882940344,56.1,12.6,92.7,-534.17969,200.68359,804.19922,-0.16001073862528895,-0.09219597053904927,-0.009059655081252166,50.7,28.2,37.65
-886.23047,137.20703,480.95703,-0.2055758748741797,-0.006661572689011957,-0.007594102108352528,10.5,31.35,54.45,276.85547,87.40234,968.75,-0.09912405500484074,-0.04036911653277844,0.1131133925583509,54.6,12.15,93.15,-528.80859,232.91016,817.38281,-0.15787899347690307,-0.05289272658046376,-0.06381778956624745,50.7,28.2,37.65
-860.83984,148.92578,481.44531,-0.1508177403891844,-0.061419532641082054,0.015987739547043658,10.5,31.35,54.45,281.25,79.58984,966.79687,-0.1115144964305989,-0.08020520951199782,0.14002602055825306,54.0,12.45,92.25,-527.34375,250.48828,812.5,-0.18785607057745687,-0.0486294108166172,-0.030110245722480975,51.6,28.2,37.65
-863.28125,145.99609,491.21094,-0.08127108208619076,-0.04969528339081014,0.0676814249313873,9.15,31.05,54.0,272.46094,84.96094,959.47266,-0.0936615235119489,-0.04902909121532391,0.15947771507172986,54.0,12.75,92.55,-536.62109,223.63281,801.26953,-0.239283244185021,-0.05835525807335561,-0.04449926367469782,51.6,27.75,38.25
-888.67187,162.10937,500.0,-0.1508177403891844,-0.07860648791717102,-0.011724423783197109,9.45,32.55,54.45,292.96875,100.09766,947.75391,-0.09619294905904148,-0.04689734606693803,0.12843493992990834,54.45,13.5,92.55,-532.22656,241.21094,822.75391,-0.17892958411813187,-0.038903563559878805,-0.018918845492842937,51.6,27.75,38.25
-859.375,162.10937,488.76953,-0.1212403436873373,-0.10058960797774039,-0.0035972981212855125,11.55,31.35,54.45,294.92187,95.21484,974.12109,-0.04676417744501087,-0.03317452029020742,0.16693882309108043,54.45,13.5,92.55,-530.76172,233.88672,822.75391,-0.23541960881988114,-0.04476577545147736,-0.011724423783197109,51.9,28.05,38.55
-873.04687,164.55078,501.95312,-0.10152213739708096,-0.05808874629657607,0.0722112524720134,10.35,32.4,53.85,291.50391,96.19141,966.30859,-0.07301078780235198,0.024514545607661954,0.164540566165915,54.75,12.75,92.85,-534.66797,236.81641,820.80078,-0.2776539587242659,-0.016520588567677526,-0.0002665117767795341,51.15,27.75,39.0
-893.06641,154.29687,514.16016,-0.11697702792349074,-0.011457912006417574,0.007727445263204894,10.35,32.4,53.85,285.64453,86.91406,958.98437,-0.04942877161403061,-0.023715184810248553,0.16120977982140902,54.45,11.25,92.85,-545.89844,227.53906,822.26562,-0.24807656202241882,-0.023981696587028086,0.05129400498563695,53.25,27.9,37.65
-884.27734,155.27344,510.25391,-0.1637412053685016,-0.04942877161403061,-0.0029311059457992773,10.35,32.4,53.85,259.27734,55.66406,978.51562,-0.04023577337792608,-0.039969436134071744,0.17133530747685413,53.55,12.15,94.5,-542.96875,210.9375,810.05859,-0.2641974701913896,-0.02571358680378206,0.01625425132382319,52.05,26.7,39.45
-862.79297,163.08594,508.30078,-0.08033837813392498,-0.13069985370022136,0.12417144963313657,10.35,33.0,54.9,249.51172,70.80078,974.12109,-0.061819213039788753,-0.03930324395858551,0.17240118005104707,54.9,11.4,94.5,-562.5,217.77344,810.54687,-0.30536594752158147,0.011457912006417574,0.05835525807335561,52.05,26.7,39.45
-858.88672,158.20312,501.95312,-0.06101985224237535,-0.025980098580561592,0.07194491522815906,11.55,31.8,53.4,236.81641,53.22266,952.14844,-0.015321547371557422,-0.02518073778314819,0.20051302377999455,55.2,12.0,94.05,-565.91797,192.38281,813.47656,-0.3337443030273085,0.00186523337160634,0.08873201557261612,52.65,27.3,38.25
-865.72266,151.85547,498.53516,-0.11777638872090417,0.0486294108166172,0.01771980429672283,12.0,31.35,54.0,226.5625,69.82422,962.89062,0.02651294760119546,-0.012656953202537678,0.192918921671642,53.55,11.85,92.7,-548.33984,192.38281,813.47656,-0.34213776593307443,0.03370754384376649,0.015588059148336955,52.65,27.3,38.25
-860.83984,163.57422,497.55859,-0.03663864978956576,0.04836289903983767,0.10964926305899256,9.15,31.35,53.7,245.60547,81.05469,982.42187,-0.05435827955336339,-0.009725847256738402,0.24634449727273963,53.55,11.85,92.7,-562.01172,200.68359,841.79687,-0.17852990371942518,0.09512707648484854,0.10805054146416575,51.0,26.7,37.65
-897.94922,159.66797,507.32422,-0.04156815772889855,0.05862176985013514,0.041301645952119014,9.15,31.35,53.7,245.60547,90.82031,984.375,-0.077007591789419,0.01212410418190381,0.26939348990750195,54.45,12.0,93.6,-559.08203,191.89453,832.03125,-0.3397396835408342,-0.015721227770264124,0.03637213801278623,51.6,27.3,39.0
-896.48437,146.97266,502.44141,-0.09192963329519492,0.042634030303091486,-0.0022649137703130416,11.85,31.95,54.9,269.53125,75.19531,977.53906,-0.05462479133014293,0.0190520141147701,0.2412818207114797,54.45,10.8,94.35,-556.15234,187.5,787.10937,-0.3733138842297483,0.047830050019203804,0.15667995228078296,52.05,27.15,38.1
-881.34766,180.17578,482.42187,-0.05182702853919601,0.02198312006056938,0.08580090962681684,11.25,32.1,54.45,256.83594,83.49609,978.51562,-0.06115319539722772,0.05728938549916267,0.24367990310371992,53.85,12.6,93.75,-567.38281,190.91797,835.44922,-0.33307811085182226,0.0182526533173567,0.039969436134071744,52.65,27.3,40.35
-872.07031,180.17578,486.32812,-0.03783769098568587,0.07527570157266503,0.09166312151841538,10.65,33.0,54.6,263.18359,67.87109,995.60547,-0.025313906405075356,-0.0006661921754862356,0.2198315496715442,53.85,12.6,93.75,-564.45312,180.17578,845.21484,-0.36185597222333077,-0.014655355196071187,0.09552675688355523,50.7,27.15,39.15
-885.74219,184.08203,479.00391,-0.10978260621384492,0.10924958266028587,0.0275788201753884,10.95,32.1,52.35,269.53125,59.08203,974.60937,-0.011324568851565207,0.019318525891549636,0.240882140312773,53.85,12.6,93.75,-547.85156,156.73828,834.96094,-0.41514855373542636,-0.035173096816666125,0.08500154882940344,50.55,26.25,39.0
-863.28125,166.50391,502.44141,-0.07181157207330668,0.04303371070179819,0.11058196701125833,10.95,32.1,52.35,275.87891,63.96484,977.53906,-0.007194421709645826,0.04250068714823912,0.22715931453604235,54.45,12.45,93.3,-541.50391,175.29297,854.00391,-0.34107189335888144,0.03224199087086685,0.02238280045927608,50.55,26.25,39.0
-864.74609,173.33984,496.09375,-0.08020520951199782,0.03210864771601448,0.030909606519894377,11.1,31.65,53.85,292.96875,67.87109,993.65234,-0.02704597115475453,0.002131745148385874,0.2518070287656315,54.6,11.85,93.45,-532.22656,173.82812,852.05078,-0.339073491365348,-0.015588059148336955,0.05835525807335561,51.15,27.0,39.3
-884.76562,166.50391,491.21094,-0.13842729896342626,0.12750223597764257,0.08739963122164364,11.55,31.8,53.4,311.52344,55.17578,1016.11328,-0.09432771568743514,0.11471211415317771,0.2615328760223699,54.6,11.85,93.45,-529.29687,140.13672,860.83984,-0.3265497067847375,0.031309286918601076,0.1151117945518844,51.0,28.2,39.45
-902.83203,159.66797,495.60547,-0.103787051167394,0.06728174453268061,0.0458314734927451,11.25,33.6,52.95,270.50781,52.73438,990.23437,-0.08020520951199782,0.039569755735365045,0.2764547429952206,52.65,11.55,92.25,-537.10937,137.69531,872.07031,-0.34893268177693876,-0.018385996472209065,0.07261110740364529,51.75,27.15,38.4
-890.13672,165.52734,514.16016,-0.10418690609902591,0.0648836621404404,0.03543943406052046,10.35,32.4,54.9,283.20312,30.76172,984.86328,-0.07194491522815906,0.03837054000631974,0.2671285761371889,54.6,13.35,93.15,-526.85547,109.86328,864.25781,-0.3428039581085607,0.02704597115475453,0.05862176985013514,50.25,27.45,40.5
-877.44141,182.12891,510.25391,-0.11404592197769146,0.0676814249313873,0.004529827540626083,10.35,32.4,54.9,295.89844,8.78906,960.9375,-0.07887282516102534,-0.009992359033517936,0.25273973271789724,54.0,13.5,92.85,-517.08984,103.02734,909.17969,-0.3256171773653969,-0.0002665117767795341,0.09339518626809457,51.9,26.55,39.6
-887.20703,200.19531,517.57812,-0.10232167272741956,0.05022813241144401,0.08793265477520272,11.1,32.4,53.55,262.20703,18.55469,956.05469,-0.02744565155346123,0.0571562168772355,0.1909203451451833,54.0,13.5,92.85,-516.60156,90.82031,842.28516,-0.3009692886028826,0.04929560299210344,0.029710565323774273,50.7,26.7,40.2
-894.04297,184.57031,504.88281,-0.06315159739076123,0.058488601228207975,0.15148393256467063,9.15,32.55,54.45,297.36328,15.13672,972.65625,-0.05502447172884963,0.05009496378951684,0.1775971997671594,54.9,12.9,93.15,-542.48047,114.74609,892.08984,-0.23621896961729455,0.05116083636370978,0.02224963183734891,50.7,26.7,40.2
-888.18359,178.71094,520.50781,-0.12057432604477626,0.0019984019935335075,0.022116463215421746,10.95,32.55,53.7,307.61719,0.48828,994.62891,-0.0381042027624654,0.05422511093143622,0.17453292519943295,55.2,12.45,94.35,-513.18359,108.88672,910.64453,-0.24834307379919837,0.005329188338039486,0.03903673218180597,50.1,25.05,39.6
-886.71875,178.22266,516.11328,-0.09446088430936231,0.03663864978956576,0.03557277721537283,10.05,31.95,54.3,304.19922,1.46484,1021.48437,-0.035839288992152364,0.10631847671448658,0.17439975657750578,55.2,12.45,94.35,-533.69141,101.5625,850.58594,-0.2145023613335047,0.05702304825530834,0.014788698350923554,50.1,25.05,39.6
-874.02344,175.78125,518.55469,-0.06741508768753297,0.003463954966433146,0.05582383252626303,10.05,31.95,54.3,314.45312,-8.78906,1024.90234,-0.026912627999902163,0.12297240843701647,0.12856810855183548,53.1,11.4,94.8,-529.29687,91.79688,876.95312,-0.13616238519311322,0.06381778956624745,0.040901965553412314,50.1,25.05,39.6
-875.0,195.80078,512.20703,-0.08260329190423803,-0.0019984019935335075,0.103787051167394,9.6,33.0,53.55,311.03516,-20.01953,989.25781,0.031975479094087315,0.16933690548332064,0.11617766712607734,54.6,12.15,94.2,-531.25,114.74609,898.92578,-0.1025880099712739,0.08713329397778931,0.021716608283789844,50.1,27.0,40.05
-859.375,174.31641,520.01953,-0.11737670832219745,0.009725847256738402,0.03250850264764638,10.65,32.7,54.3,250.48828,10.74219,965.82031,0.15667995228078296,0.18905511177357698,0.05822208945142844,55.35,11.1,92.4,-505.85937,119.62891,858.39844,-0.14109189313244602,0.07420982899847209,0.024381376985734785,51.15,26.25,39.0
-866.21094,180.17578,524.90234,-0.02238280045927608,-0.05502447172884963,0.027845331952167932,11.1,32.4,53.85,301.26953,31.73828,1025.87891,0.05395859915465669,0.14935218741628475,0.10245484134934674,55.35,11.1,92.4,-511.23047,123.04688,901.36719,-0.08380250763328333,0.14575488929499925,0.0035972981212855125,52.5,25.65,42.0
-868.65234,168.94531,525.87891,-0.026779459377974997,-0.056356856079822104,0.015055210127703087,10.5,32.1,55.05,285.64453,44.92188,969.72656,0.09192963329519492,0.19251906674001013,0.07514235841781267,54.3,12.9,94.5,-520.01953,128.90625,865.23437,-0.1289677889505422,0.17439975657750578,-0.01065855120900417,51.6,26.25,39.6
-878.90625,156.25,543.94531,-0.048762579438544375,0.012656953202537678,-0.06368444641139509,10.5,32.1,55.05,304.6875,60.05859,964.84375,-0.0006661921754862356,0.1901209843477699,0.1151117945518844,55.2,13.5,95.7,-487.30469,149.90234,869.62891,-0.14801997759823748,0.1905206647464766,0.03557277721537283,51.6,26.25,39.6
-871.09375,125.97656,548.82812,0.005196019716112318,-0.05449162270821576,-0.015055210127703087,10.65,32.7,52.8,334.47266,96.19141,975.09766,0.020784078864449274,0.28897852757583115,0.11671051614671123,55.2,13.5,95.7,-492.67578,167.48047,925.78125,-0.13602904203826086,0.1115144964305989,0.018918845492842937,50.7,26.4,38.7
-858.39844,81.54297,563.47656,0.05462479133014293,-0.09965690402547463,-0.0855343978500373,10.5,32.55,54.0,317.87109,131.34766,974.12109,0.04716385784371757,0.2915099531229237,0.15161710118659782,55.5,12.75,92.85,-487.30469,188.96484,893.55469,-0.22649312236055613,0.09845786282935451,0.01492186697285072,50.7,26.4,38.7
-912.10937,77.14844,567.38281,0.06435063858688132,0.0015987215948268059,-0.07354363682298586,10.5,33.3,54.0,332.51953,159.17969,1006.34766,-0.009725847256738402,0.23009042048184167,0.1474869540446784,56.4,11.4,93.15,-463.86719,206.05469,972.65625,-0.21796631629993785,0.077007591789419,-0.07940584871458442,51.6,26.55,39.3
-921.875,107.91016,569.33594,0.11404592197769146,-0.008659974682545464,-0.06621587195848767,10.35,30.45,53.85,346.19141,168.94531,1000.97656,-0.02464771422958912,0.26926032128557476,0.21756663590123115,53.55,12.6,93.45,-499.51172,187.5,831.05469,-0.3601240820065768,0.014122506175437317,-0.06941348968106648,50.55,25.8,40.35
-930.17578,170.89844,571.77734,0.08620059002552354,-0.0754088701945922,-0.055690663904335864,10.35,30.45,53.85,334.47266,129.39453,989.74609,-0.1730673722265333,0.2759218939745868,0.24980862677209797,53.55,12.6,93.45,-492.1875,156.25,854.98047,-0.344669191480167,0.11564464357251827,-0.08180393110682463,50.1,27.75,39.0
-883.30078,195.80078,566.89453,0.015987739547043658,-0.09752533341001395,-0.026779459377974997,9.6,33.0,53.55,317.38281,46.875,999.02344,-0.1963828766380752,0.33774110701437554,0.3093629260415737,56.1,14.1,92.7,-510.74219,168.45703,962.40234,-0.3914333689251778,0.15321599731434982,-0.06155287579593442,51.15,26.25,39.3
-804.6875,180.17578,556.64062,0.0482297304179105,-0.0863337586474507,0.13642872243696755,10.2,30.6,55.05,290.03906,-32.71484,1019.04297,-0.1666723113143009,0.26846096048816137,0.23128946167796177,55.5,11.55,92.85,-532.22656,174.80469,858.88672,-0.3060321396970677,0.22302916739412298,0.026912627999902163,51.15,26.25,39.3
-810.54687,167.96875,538.08594,0.03077643789796721,-0.031575798695380616,0.20291110617223476,10.5,33.3,52.95,289.55078,-57.61719,1018.55469,-0.09259565093775597,0.22835835573216248,0.2412818207114797,55.5,11.55,92.85,-531.25,152.34375,903.32031,-0.20824046904319946,0.18026179393617914,0.031309286918601076,51.9,25.8,40.65
-848.63281,143.55469,530.27344,0.017320123898016127,0.09073041756614963,0.2113047436109259,9.6,33.0,54.3,264.64844,-34.66797,946.77734,0.07967236049136395,0.34200459731114724,0.24021594813728675,55.8,11.55,92.85,-513.18359,193.35937,924.80469,-0.2716585782107402,0.17573196639555305,0.12310575159186884,51.9,25.8,40.65
-882.32422,137.20703,531.25,0.0482297304179105,-0.04316687932372535,0.18892194315164978,9.6,33.0,54.3,256.34766,37.59766,979.49219,0.13123270272085524,0.4367319933972891,0.16880405646268679,54.9,12.15,92.4,-518.06641,182.61719,832.51953,-0.3104287986157666,0.2055758748741797,0.10485292374158693,50.55,25.5,38.55
-859.375,128.90625,540.03906,0.09939056678162028,-0.05688970510045597,0.12950081250410125,11.1,33.0,53.85,240.72266,87.89063,945.3125,0.2925758256971166,0.3839724354387525,0.1710689702329998,56.7,13.35,93.45,-502.44141,183.10547,882.32422,-0.2700596820829882,0.18878859999679742,0.09339518626809457,52.05,25.35,39.15
-823.24219,133.30078,555.17578,0.1341638086666545,-0.0369049870334201,0.05369226191080236,10.5,32.55,53.7,284.17969,126.46484,979.00391,0.29897088660934906,0.42647312258699166,0.15747931307819635,56.7,13.35,93.45,-506.83594,165.03906,817.38281,-0.31109499079125286,0.18825575097616357,0.1159111553492978,52.5,24.6,39.9
-827.14844,155.76172,544.92187,0.194650811888396,-0.04676417744501087,0.15827867387560976,10.5,34.05,53.7,269.04297,145.01953,976.07422,0.23488675979924725,0.39596319646580397,0.21383616915801848,55.35,12.6,92.4,-604.00391,68.35938,874.02344,-0.21756663590123115,0.3292143009537572,0.12110717506541013,51.45,25.65,38.7
-802.73437,183.59375,559.08203,0.19838127863160868,0.017186780743163762,0.15721280130141685,9.9,32.85,53.7,291.01562,120.60547,963.86719,0.14415616770017245,0.30523277889965433,0.26206589957592896,56.4,12.9,92.4,-473.63281,120.11719,812.01172,-0.350264891594986,0.22129710264444383,0.0684807857288007,49.8,26.25,39.3
-811.03516,218.26172,544.43359,0.15188361296337732,0.07647474276878514,0.09352835489002174,9.9,32.85,52.95,248.53516,69.82422,895.01953,0.10711783751189999,0.2603338348262498,0.27472285277846664,56.25,13.2,93.3,-472.16797,104.00391,782.22656,-0.33547619324406247,0.22489440076572934,0.13562936163955416,50.55,25.8,38.25
-815.42969,250.48828,537.59766,0.16760484073364146,0.07314395642427915,0.07940584871458442,9.9,32.85,52.95,251.46484,59.08203,863.76953,0.10432007472095307,0.20077953555677408,0.25713621710367096,55.8,13.5,92.55,-490.23437,109.86328,835.44922,-0.36785152726978165,0.15215012474015688,0.15681312090271013,50.55,25.8,38.25
-800.78125,262.69531,526.85547,0.15068457176725725,0.08087140168748405,0.14135840490922555,9.6,33.75,52.8,191.89453,59.08203,848.63281,0.1107151356331855,0.2155680593747724,0.2951072512442092,55.65,13.35,92.7,-506.83594,108.88672,799.31641,-0.2991042297642014,0.22809184395538293,0.11231385722801229,51.9,25.5,39.3
-770.99609,242.1875,502.92969,0.08846550379583658,0.10418690609902591,0.06035383459981431,10.95,33.3,52.95,204.10156,40.52734,885.25391,0.1236386006125027,0.22129710264444383,0.22516073800958367,56.55,13.95,94.05,-513.18359,80.56641,817.87109,-0.2563368563062576,0.19265240989486246,0.09113009796485633,51.45,26.4,38.4
-761.71875,249.51172,491.69922,0.06928032105913931,0.1973154060574157,0.07594189374815126,9.0,33.45,53.25,199.21875,41.01563,905.76172,0.16254216417238151,0.23368754407020198,0.19211938634130343,56.55,13.95,94.05,-543.45703,71.28906,836.42578,-0.3068315004944811,0.1821270273077855,0.08167076248489745,51.45,26.4,38.4
-774.41406,269.53125,474.60937,0.09179629014034256,0.2050428513206206,0.12177336724089637,9.9,34.35,52.95,150.39062,85.9375,961.91406,0.12177336724089637,0.20024651200321503,0.2242282085902431,56.55,13.95,94.05,-564.45312,32.22656,825.68359,-0.2127702965838255,0.15974422684850942,0.05928796202562137,51.6,24.3,39.0
-806.15234,303.71094,466.79687,0.02091724748637644,0.30243501610870743,0.12923430072732173,9.9,34.35,52.95,171.38672,54.19922,1034.17969,0.04383307149921159,0.0843353566539172,0.2027779375503076,58.35,13.95,93.6,-591.79687,5.37109,847.16797,-0.15974422684850942,0.1394931715376192,0.023182161256689485,50.1,25.5,38.55
-796.875,303.22266,433.10547,0.0029311059457992773,0.302301672953855,0.13642872243696755,9.6,33.45,54.6,162.10937,40.52734,1002.44141,-0.028111843728947466,0.0381042027624654,0.1569464640575625,57.3,13.5,93.3,-608.88672,26.85547,847.65625,-0.12696938695700868,0.07580855059329891,0.023848353432175718,50.55,25.05,38.25
-798.82812,288.08594,430.17578,-0.0462311538914518,0.3831730746413391,0.0762082309920056,10.95,33.3,53.4,135.25391,-23.4375,986.81641,-0.0069280844657914915,0.02851152412765417,0.1244379614099161,56.4,14.1,94.2,-608.88672,6.83594,824.21875,-0.03557277721537283,0.06861412888365308,0.06261874837012736,51.75,25.65,38.1
-824.21875,279.78516,396.97266,-0.04716385784371757,0.37571214115491375,0.08713329397778931,11.1,33.0,52.8,131.83594,-23.92578,996.09375,-0.012923464979317213,-0.03384071246569365,0.04556513624889076,57.75,13.2,92.25,-624.51172,10.74219,854.00391,-0.03210864771601448,0.07034601910040704,0.04170132635082572,51.75,25.65,38.1
-840.33203,277.83203,383.30078,-0.0038636353651398474,0.3437366620608264,0.12563700260603622,10.95,34.35,54.0,133.30078,-11.71875,1016.11328,0.02518073778314819,0.026912627999902163,0.017586461141870464,57.15,12.9,91.35,-640.625,5.37109,825.19531,0.0017320647496791726,0.0365053066347134,0.006661572689011957,51.9,25.05,38.55
-882.32422,281.73828,371.09375,-0.08260329190423803,0.3790429274994197,0.09885754322806121,10.95,34.35,54.0,134.76562,-9.27734,1019.53125,0.010392039432224637,-0.009192998236104533,-0.048496242194690044,55.65,14.4,92.7,-638.18359,26.36719,864.74609,0.07101221127589329,0.0013323843509724712,0.01119140022963804,52.05,26.1,39.45
-914.0625,290.03906,366.69922,-0.09446088430936231,0.3635880369730099,-0.0013323843509724712,9.3,33.75,52.8,138.67187,13.18359,1009.76562,0.00279793732387211,-0.037171498810199634,-0.0291777163031404,55.65,14.4,92.7,-635.25391,50.29297,853.02734,0.10032309620096086,-0.08699995082293695,-0.008526806060618296,51.0,25.65,39.45
-901.36719,302.73437,375.0,-0.023048992634762316,0.3060321396970677,0.02984373394570144,9.45,32.55,50.55,154.29687,26.36719,1019.04297,0.024514545607661954,-0.028777861371508503,-0.07674125454556469,57.15,13.65,93.15,-591.30859,37.59766,842.28516,0.16081009942270233,-0.07447634077525163,-0.0283781809728018,50.55,26.25,37.95
-883.30078,305.17578,382.32422,-0.10805054146416575,0.24261403052952696,0.030509926121187674,11.1,34.2,51.45,168.94531,-0.97656,1004.88281,0.0058622118915985545,-0.05822208945142844,-0.13189889489634146,56.1,14.4,92.7,-603.51562,29.78516,861.32812,0.18266005086134454,-0.11724353970027028,-0.0462311538914518,51.45,26.7,39.15
-888.18359,271.97266,392.08984,-0.09699230985645488,0.17360022124716717,-0.006128723668378088,11.1,34.2,51.45,192.87109,5.85937,991.69922,0.02611326720248876,-0.06821444848494637,-0.1281684281531288,57.0,13.2,92.55,-590.82031,60.54688,838.37891,0.23821754614375326,-0.09299533133646266,-0.021849951438642212,50.25,25.65,38.1
-857.42187,253.41797,404.78516,-0.026246610357341126,0.08833233517390941,-0.005329188338039486,11.1,34.2,51.45,191.40625,8.78906,993.16406,0.04716385784371757,-0.10738434928867951,-0.11218068860608514,56.25,14.25,92.25,-567.87109,48.82813,839.35547,0.22596009880699708,-0.08286980368101757,-0.048496242194690044,50.25,25.65,38.1
-877.44141,237.79297,405.27344,-0.07101221127589329,0.17573196639555305,-0.07714093494427138,10.95,34.05,52.65,193.35937,27.34375,985.35156,0.061419532641082054,-0.13722825776730616,-0.13243191844990054,54.75,14.25,92.85,-583.49609,77.63672,858.88672,0.27698776654877966,-0.07940584871458442,0.005196019716112318,51.45,26.4,39.45
-876.95312,208.98437,424.80469,-0.007860613885132062,0.13043334192344183,-0.09113009796485633,9.6,32.7,52.5,201.66016,41.01563,999.51172,0.07354363682298586,-0.17040277805751358,-0.15441503851046992,56.7,13.65,92.7,-568.84766,102.05078,816.89453,0.23168914207666846,-0.12990049290280797,-0.03677181841149293,51.45,26.4,39.45
-874.02344,227.05078,425.78125,0.04836289903983767,0.04196783812760525,-0.06754825630946014,9.9,35.1,52.65,197.26562,79.58984,991.21094,0.07953901733651159,-0.19998017475936067,-0.20451000229998678,56.7,13.65,92.7,-560.54687,107.91016,835.44922,0.26539668592043497,-0.09166312151841538,-0.007194421709645826,51.45,26.4,38.7
-885.25391,244.62891,423.33984,0.05862176985013514,0.1033873707686873,-0.15508123068595617,9.9,35.1,52.65,204.58984,82.51953,984.86328,0.0652833425391471,-0.16400771714528115,-0.20757427686771318,55.35,12.6,93.75,-554.6875,138.18359,856.93359,0.3534625093175648,-0.10858339048479962,0.007327764864498192,51.45,24.6,38.4
-882.32422,246.58203,442.38281,0.07234459562686575,0.07474267801910597,-0.1593445464498027,10.05,32.7,51.75,220.21484,66.89453,997.55859,0.03357420068891412,-0.18279321948327173,-0.2039769787464277,57.3,14.25,92.85,-543.94531,113.28125,801.26953,0.26886064088686806,-0.13789427540986718,-0.02198312006056938,52.05,26.1,39.9
-866.69922,265.625,447.26562,0.14442267947695198,0.055290983505629165,-0.08833233517390941,9.45,32.85,52.35,218.26172,73.73047,980.46875,0.04010260475599891,-0.18026179393617914,-0.19531700406388222,55.8,13.95,92.55,-543.45703,112.79297,831.54297,0.39476415526968384,-0.09685914123452771,-0.05875493847206231,51.6,26.25,39.3
-887.20703,260.74219,436.03516,0.0656830229378538,0.01585457092511649,-0.016653931722529894,10.05,32.4,51.75,230.95703,50.29297,981.93359,0.07833997614039148,-0.16533992696332844,-0.2400826049824344,55.8,13.95,92.55,-537.10937,117.1875,856.93359,0.3899678159522782,-0.0762082309920056,-0.04023577337792608,51.6,26.25,39.3
-880.37109,251.46484,453.61328,0.03264167126957355,0.05422511093143622,-0.09805818243064782,11.85,33.45,52.5,222.65625,55.66406,981.44531,0.0186523337160634,-0.13722825776730616,-0.2712587232791083,55.8,13.5,92.25,-542.48047,110.35156,819.82422,0.339073491365348,-0.08340282723457662,-0.0013323843509724712,51.0,26.1,39.15
-897.46094,242.67578,467.28516,0.08953137637002952,-0.04729702646564473,-0.10525260414029364,11.85,33.45,52.5,246.58203,46.38672,987.79297,0.06195255619464112,-0.15881169742916884,-0.20824046904319946,56.4,13.35,92.4,-546.38672,107.91016,842.77344,0.4431270543095215,-0.029044373148288036,0.01358965715480345,51.0,26.1,39.15
-854.00391,231.44531,477.53906,0.0660827033365605,-0.014522186574144018,-0.11764322009897699,10.2,32.85,51.6,240.23437,52.73438,965.82031,0.08819916655198225,-0.14921901879435762,-0.27019302523784056,56.4,13.35,92.4,-540.03906,139.64844,844.23828,0.4376646973495548,-0.05275955795853659,-0.08300314683586993,51.45,25.65,39.45
-867.67578,235.83984,468.75,0.019318525891549636,0.04902909121532391,-0.11404592197769146,10.95,33.3,52.35,248.53516,82.03125,990.23437,0.0932618431132422,-0.13736142638923332,-0.26259874859656285,57.0,12.75,93.6,-566.40625,127.44141,846.67969,0.46764159991718346,-0.1009892883764471,-0.007727445263204894,51.6,25.05,41.1
-895.99609,242.1875,473.14453,0.07007968185655272,-0.001065872574192937,-0.10525260414029364,10.35,33.75,51.45,225.09766,84.96094,1011.23047,0.077007591789419,-0.1605435876459228,-0.27845331952167934,56.4,12.9,93.45,-550.78125,129.39453,862.30469,0.4765680863765085,-0.03943641258051267,0.004263315763846549,51.6,25.05,41.1
-926.26953,230.95703,459.47266,0.07367680544491303,0.05422511093143622,-0.11657734752478405,9.45,32.1,51.9,245.60547,90.82031,1019.04297,0.06701523275590107,-0.2578024092791572,-0.2981715258119357,55.5,13.2,93.6,-563.96484,132.8125,854.49219,0.4659097097004295,-0.03530626543859329,-0.05369226191080236,52.95,27.0,39.6
-937.01172,207.51953,470.70312,-0.0283781809728018,0.0038636353651398474,-0.132165406673121,9.45,32.1,51.9,229.49219,86.91406,998.04687,0.0567565364785288,-0.20490968269869347,-0.2656630231642893,55.5,13.2,93.6,-563.96484,138.18359,851.07422,0.46990651368749653,-0.05022813241144401,-0.02411486520895525,51.15,27.3,39.0
-908.20312,221.67969,472.16797,0.05342575013402282,-0.08300314683586993,-0.10978260621384492,10.2,34.05,51.6,226.5625,76.66016,997.07031,0.06301842876883405,-0.22489440076572934,-0.29470757084550253,57.15,14.1,92.7,-565.42969,152.83203,856.93359,0.4628452605997778,-0.05742272865401504,-0.04356655972243205,51.15,27.3,39.0
-886.23047,204.10156,462.40234,0.1220398790176759,-0.059421130647548545,-0.19331860207034873,9.6,33.0,52.2,241.21094,77.63672,1009.27734,0.04276719892501865,-0.22609344196184944,-0.2849817235887641,55.2,13.95,92.85,-551.75781,151.85547,851.07422,0.408753492823194,-0.023981696587028086,-0.02518073778314819,51.45,27.45,39.15
-884.76562,206.54297,468.75,0.03490658503988659,-0.034107224242473186,-0.16573960736203514,10.5,32.55,51.6,248.04687,88.37891,1000.97656,0.024514545607661954,-0.22622661058377663,-0.2999035905616148,55.2,13.95,92.85,-569.33594,169.43359,854.00391,0.39476415526968384,-0.015987739547043658,-0.017453292519943295,51.45,27.45,39.15
-896.48437,211.91406,463.37891,0.07953901733651159,-0.08153759386297028,-0.15508123068595617,9.45,32.55,52.35,227.05078,97.65625,992.1875,-0.024781057384441488,-0.25567083866369655,-0.29617312381840216,55.65,12.15,93.45,-559.57031,186.03516,819.33594,0.4456584798566141,-0.11657734752478405,-0.03384071246569365,51.0,27.9,38.4
-899.41406,197.75391,452.63672,0.11617766712607734,-0.008793317837397832,-0.1163108357480045,9.45,32.55,52.35,254.88281,100.58594,1000.97656,-0.07514235841781267,-0.27938584894101987,-0.22036439869217805,55.8,13.2,94.35,-544.92187,177.24609,855.95703,0.4188790204786391,-0.0361056262360067,-0.02731248293153406,50.7,26.4,39.15
-913.08594,219.72656,481.44531,0.07274427602557246,-0.014389017952216851,-0.16547327011818078,9.9,31.8,51.9,234.86328,114.25781,958.98437,0.0093261668580317,-0.2396829245837277,-0.25273973271789724,56.4,12.9,93.45,-532.71484,207.51953,850.09766,0.38543798841165217,-0.0932618431132422,0.01625425132382319,51.0,27.15,38.1
-880.85937,202.14844,481.44531,0.022116463215421746,-0.024381376985734785,-0.1476202971995308,9.15,31.05,51.6,249.51172,129.39453,975.09766,-0.007860613885132062,-0.15055122861240486,-0.2668622388933346,56.4,12.9,93.45,-534.66797,232.91016,839.84375,0.36305518795237607,-0.11644417890285688,-0.11671051614671123,50.25,26.7,39.9
-879.88281,213.86719,477.05078,0.08939820774810235,-0.02931088492506757,-0.14282395788212518,9.9,33.3,51.6,273.4375,119.62891,986.32812,0.041301645952119014,-0.11537830632866394,-0.27072587425847444,56.25,12.75,93.45,-522.94922,238.28125,852.05078,0.32401845577057004,-0.023448673033469015,-0.10964926305899256,50.7,26.7,38.1
-862.79297,229.49219,498.04687,0.02611326720248876,-0.021050590641228807,-0.15508123068595617,9.9,33.3,51.9,273.4375,144.04297,956.05469,0.010125527655445103,-0.14202442255178657,-0.2298239087050621,55.2,12.75,93.6,-522.46094,231.93359,814.94141,0.30922975741964653,-0.10245484134934674,-0.08406884487713767,50.1,27.3,39.0
-875.48828,205.07812,487.79297,0.031442630073453444,0.0063950609122324234,-0.11897542991702426,10.35,32.7,51.75,282.71484,158.69141,984.375,-0.007194421709645826,-0.10272135312612628,-0.19824811000968148,55.2,13.5,92.85,-513.18359,244.14062,828.61328,0.3385406423447141,-0.03024341434440814,-0.07714093494427138,50.1,27.3,39.0
-890.13672,190.91797,495.11719,0.05835525807335561,-0.013189976756096747,-0.08167076248489745,10.35,32.7,51.75,291.50391,159.66797,964.35547,-0.08540122922811014,-0.1670719917130076,-0.2155680593747724,55.2,13.5,92.85,-508.78906,259.27734,839.84375,0.3124272006093001,-0.04929560299210344,-0.1536156777130565,51.15,27.3,37.2
-888.67187,180.66406,501.46484,0.0015987215948268059,-0.008127125661911596,-0.05822208945142844,11.1,32.4,52.5,284.66797,157.22656,951.17187,-0.04303371070179819,-0.15761248170012354,-0.14495552849758583,55.65,12.6,93.15,-507.32422,261.23047,835.9375,0.27845331952167934,-0.031575798695380616,-0.07900616831587771,50.25,28.2,39.15
-875.97656,180.66406,502.92969,0.01212410418190381,-0.030909606519894377,-0.12270589666023693,9.3,31.95,51.45,291.99219,169.92187,956.54297,-0.026912627999902163,-0.12110717506541013,-0.12230621626153024,55.5,12.45,94.05,-521.48437,263.67187,812.5,0.18612400582777772,-0.07460950939717881,-0.08873201557261612,51.15,27.75,37.95
-866.69922,191.89453,483.88672,0.06155287579593442,0.0063950609122324234,-0.012257272803830977,9.45,31.35,50.85,286.13281,181.15234,955.07812,-0.03703833018827246,-0.1460214010717788,-0.1553475679298105,54.9,12.15,92.4,-515.13672,267.57812,815.42969,0.16960341726010017,-0.05968764242432808,-0.14002602055825306,50.25,28.95,39.45
-895.99609,206.05469,464.84375,0.025846929958634426,0.0855343978500373,-0.10405356294417353,9.6,31.95,51.45,265.625,164.55078,970.70312,-0.08207044288360416,-0.05968764242432808,-0.13109953409892808,54.9,12.15,92.4,-522.94922,278.32031,833.49609,0.11857574951831756,0.03384071246569365,-0.09859103145128169,51.0,27.9,37.65
-923.33984,208.00781,482.91016,-0.05728938549916267,0.0811377389313384,-0.058488601228207975,9.6,31.95,51.45,279.29687,162.59766,959.47266,-0.08606742140359638,-0.11870909267316991,-0.12017464564606957,56.25,12.0,93.6,-553.71094,279.78516,860.35156,0.04023577337792608,0.010791719830931338,-0.11884226129509709,50.7,26.7,38.4
-905.27344,184.57031,483.39844,-0.0006661921754862356,0.012923464979317213,-0.021316927885083145,10.5,32.55,52.35,292.48047,147.94922,981.44531,-0.11671051614671123,-0.14015918918018025,-0.06674889551204674,55.2,13.95,92.25,-555.66406,278.32031,853.51562,0.04436592051984546,-0.023582016188321384,-0.14229093432856613,50.7,26.7,38.4
-889.16016,175.78125,482.91016,-0.05342575013402282,0.05475795995207009,-0.015055210127703087,9.6,31.65,50.7,276.85547,135.25391,1011.23047,-0.06888046612750741,-0.15095108354403677,-0.05982081104625525,55.65,13.65,93.15,-566.89453,267.08984,851.07422,0.05502447172884963,-0.056356856079822104,-0.03970292435729221,52.8,27.9,38.1
-879.88281,166.99219,469.72656,-0.06341810916754076,0.10964926305899256,-0.0186523337160634,10.65,34.2,51.45,298.33984,125.97656,1028.32031,-0.07900616831587771,-0.18332624303683076,-0.04330022247857772,54.75,13.5,94.65,-552.73437,258.30078,815.91797,0.02331550441154185,-0.05742272865401504,-0.017453292519943295,51.15,27.0,37.5
-875.97656,190.42969,461.42578,0.0007993607974134029,0.027179139776681696,0.02851152412765417,10.65,31.95,51.15,277.83203,117.1875,981.93359,-0.11724353970027028,-0.13349761649116829,-0.02011788668896304,54.6,11.85,93.15,-549.31641,259.27734,872.55859,0.05289272658046376,-0.0738101485997654,-0.09765850203194111,51.6,28.05,38.25
-871.09375,187.01172,464.84375,-0.07207808385008622,-0.00186523337160634,0.01638741994575036,10.65,31.95,51.15,254.39453,128.41797,935.05859,-0.11524496317381157,-0.18132766651037208,0.0,56.7,12.9,91.95,-541.99219,249.02344,864.25781,-0.029710565323774273,-0.11457894553125055,-0.11750987694412462,51.75,28.2,37.65
-860.35156,195.80078,491.21094,-0.11990813386929003,0.08300314683586993,0.06968000145784602,10.5,32.85,50.55,287.59766,121.58203,969.23828,-0.11444560237639817,-0.1722680114291199,0.01119140022963804,56.7,12.9,91.95,-519.04297,230.95703,863.28125,0.017320123898016127,-0.0855343978500373,-0.07847314476231865,51.75,28.2,37.65
-845.21484,186.03516,466.79687,-0.07900616831587771,0.05542415212755633,0.12030781426799673,9.3,31.95,52.5,291.50391,117.1875,963.86719,-0.15108425216596394,-0.14388983045631812,0.0291777163031404,55.35,13.65,91.95,-483.39844,222.16797,880.85937,0.05609034430304257,-0.021849951438642212,-0.07607506237007844,51.0,27.9,37.05
-846.19141,190.91797,489.74609,-0.05782240905272174,0.11671051614671123,0.08593407824874401,9.3,32.7,52.5,338.37891,61.03516,938.96484,-0.12390511238928224,-0.09073041756614963,-0.0022649137703130416,56.1,12.15,93.45,-486.81641,213.37891,836.42578,0.00373046674321268,-0.09499390786292138,-0.12856810855183548,51.6,28.05,38.55
-864.25781,195.3125,480.46875,-0.11804290049768368,0.13349761649116829,0.005728868736746187,10.05,32.4,51.15,298.82812,95.21484,872.55859,-0.03623896939085906,-0.04982845201273731,-0.00279793732387211,54.3,12.15,92.4,-450.68359,208.00781,857.42187,0.04183466950567808,-0.05582383252626303,-0.14269061472727282,51.6,28.05,38.55
-860.83984,200.19531,470.70312,-0.10818371008609293,0.011990761027051442,0.02051756708766974,10.05,32.4,51.15,331.54297,87.40234,900.87891,-0.03344103206698695,-0.04889592259339674,-0.03930324395858551,54.45,11.55,92.55,-443.35937,204.10156,861.81641,0.01492186697285072,-0.06581619155978097,-0.10645181986933895,51.6,27.75,39.0
-856.93359,200.19531,500.48828,-0.12577034576088858,0.015588059148336955,0.06701523275590107,10.5,32.1,51.3,328.61328,110.35156,921.38672,-0.019185357269622467,0.01492186697285072,0.05409194230950906,54.3,12.6,93.45,-459.47266,191.89453,833.49609,0.021716608283789844,-0.03330786344505979,-0.0932618431132422,51.6,27.75,39.0
-828.61328,205.56641,493.65234,-0.16813786428720054,0.05928796202562137,0.0015987215948268059,10.65,33.0,51.45,352.05078,64.94141,942.38281,-0.10445324334288024,-0.0847350370526239,0.03117611829667391,54.9,11.1,93.45,-472.65625,208.00781,868.16406,0.06554985431592662,-0.009859190411590769,-0.11990813386929003,51.15,28.8,37.5
-850.58594,229.98047,482.91016,-0.1458882324498516,0.03783769098568587,0.006128723668378088,10.5,32.1,51.3,344.72656,86.91406,932.12891,-0.07367680544491303,-0.013189976756096747,-0.023448673033469015,54.9,11.1,93.45,-462.89062,195.3125,824.70703,-0.01119140022963804,-0.06928032105913931,-0.14042570095695978,51.6,26.25,39.0
-842.77344,236.81641,496.58203,-0.16880405646268679,0.017453292519943295,0.04236751852631195,10.65,32.4,52.5,330.56641,80.56641,926.75781,-0.09566010003840761,-0.04023577337792608,0.01492186697285072,53.7,12.0,91.8,-471.19141,198.73047,854.00391,-0.03943641258051267,-0.013722825776730615,-0.19611636486129563,50.7,26.7,38.4
-837.89062,209.96094,490.72266,-0.18319289988197843,0.010525208054151804,-0.02051756708766974,10.65,32.4,52.5,325.19531,93.26172,941.40625,-0.10818371008609293,-0.05275955795853659,-0.010392039432224637,55.35,11.4,93.15,-483.88672,198.73047,866.69922,-0.07114555443074566,0.03277483989150072,-0.19171970594259674,51.75,27.9,38.7
-832.03125,193.84766,477.05078,-0.14135840490922555,-0.03117611829667391,0.06315159739076123,10.95,32.55,50.85,312.98828,47.85156,971.67969,-0.1220398790176759,0.006794741310939124,0.024781057384441488,55.35,11.4,93.75,-502.44141,175.78125,841.30859,-0.12830177130798115,0.026246610357341126,-0.1448223598756587,51.75,27.9,38.7
-854.98047,186.03516,458.98437,-0.11950845347058334,0.07567538197137175,0.0811377389313384,10.65,33.0,51.45,304.6875,27.34375,952.14844,-0.09152977836356303,-0.0924624823158288,-0.02851152412765417,54.45,12.0,93.6,-516.60156,165.03906,874.02344,-0.017852972918649995,0.0006661921754862356,-0.13682840283567427,52.5,26.4,39.15
-861.32812,191.89453,461.91406,-0.15441503851046992,0.13642872243696755,0.052226708937902724,10.05,32.4,51.45,275.39062,21.48438,983.39844,-0.09499390786292138,-0.0041301471419193814,-0.044099583275991124,54.3,12.6,93.45,-543.94531,159.66797,850.09766,-0.04183466950567808,0.04156815772889855,-0.17040277805751358,52.5,26.4,39.15
-858.39844,175.78125,457.51953,-0.08993105676873621,0.094860564708069,0.051960197161123184,10.35,32.7,52.8,267.08984,21.48438,997.55859,-0.08260329190423803,-0.00039968039870670147,-0.007860613885132062,55.35,13.35,92.7,-538.57422,168.94531,860.35156,-0.0033307863445059785,0.0190520141147701,-0.11764322009897699,52.05,27.15,39.15
-874.02344,178.71094,430.17578,-0.11417909059961863,0.06514999938429474,0.06714857591075343,10.35,32.7,52.8,277.34375,25.39063,1007.8125,-0.031708967317307775,-0.03943641258051267,-0.07447634077525163,55.35,13.35,92.7,-567.38281,174.80469,863.28125,0.010924888452858507,0.04649766566823133,-0.16200914061882243,51.15,26.55,37.95
-882.32422,182.61719,429.19922,-0.1289677889505422,0.10738434928867951,0.0063950609122324234,10.5,32.85,52.35,255.37109,22.46094,1015.625,-0.055690663904335864,-0.04796321864113097,-0.07687442316749184,54.3,12.9,92.4,-565.42969,181.64062,843.75,-0.03490658503988659,0.0361056262360067,-0.07114555443074566,51.45,27.15,38.1
-873.53516,174.80469,442.87109,-0.05702304825530834,0.0811377389313384,0.09539358826162808,10.2,32.1,52.65,266.11328,35.15625,1015.13672,-0.02091724748637644,0.0014655529728996386,-0.03264167126957355,54.45,12.0,92.55,-557.61719,185.05859,845.21484,-0.04023577337792608,0.05062781281015071,-0.07181157207330668,51.45,26.7,38.4
-895.50781,199.70703,432.12891,-0.05022813241144401,0.040901965553412314,0.00039968039870670147,9.6,32.4,51.45,244.62891,49.31641,994.62891,-0.045032112695331694,-0.01585457092511649,-0.02891120452636087,54.9,11.1,91.95,-569.33594,181.64062,832.03125,-0.04023577337792608,0.019185357269622467,-0.14175808530793224,51.45,26.7,38.4
-912.10937,201.66016,428.71094,-0.08660027042423024,0.1107151356331855,-0.0190520141147701,9.3,32.7,51.75,253.41797,51.75781,972.65625,-0.03970292435729221,0.023981696587028086,-0.05582383252626303,54.9,11.1,91.95,-548.82812,187.5,841.79687,-0.01252378458061051,-0.03370754384376649,-0.02411486520895525,51.15,26.25,39.0
-920.41016,184.57031,424.31641,-0.10072277659966757,0.06195255619464112,0.039569755735365045,9.3,32.7,51.75,268.06641,57.61719,980.95703,-0.005196019716112318,-0.015721227770264124,-0.02851152412765417,55.8,12.45,94.35,-549.31641,224.60937,846.19141,-0.05342575013402282,-0.009859190411590769,-0.07927250555973205,51.15,26.25,39.0
-921.38672,194.33594,436.52344,-0.03317452029020742,-0.023048992634762316,0.007327764864498192,9.3,31.2,51.75,266.60156,92.77344,992.1875,-0.0041301471419193814,-0.023715184810248553,0.007860613885132062,53.85,12.6,92.7,-528.80859,213.86719,830.07812,-0.07420982899847209,0.023582016188321384,-0.05409194230950906,50.7,26.4,38.4
-916.99219,171.38672,434.57031,-0.05835525807335561,0.02224963183734891,0.00839363743869113,9.9,32.85,51.9,287.59766,100.09766,985.35156,-0.06634921511334003,-0.024514545607661954,0.005462531492891852,53.85,12.6,92.7,-547.36328,226.5625,847.65625,-0.10605213947063225,-0.012656953202537678,-0.05808874629657607,51.45,26.4,39.9
-910.15625,181.15234,442.87109,0.03077643789796721,-0.019451694513476805,0.04343339110050489,9.3,32.4,51.45,288.08594,92.77344,964.35547,-0.025313906405075356,-0.04689734606693803,0.04729702646564473,53.85,12.6,92.7,-550.29297,189.45312,846.67969,-0.11604432397122498,-0.0190520141147701,-0.10312103352483297,50.7,26.1,38.7
-905.27344,187.01172,439.45312,0.027712163330240767,-0.05515781488370199,0.05209336578305035,9.6,33.0,52.2,276.85547,69.33594,971.19141,-0.02984373394570144,-0.08713329397778931,0.07114555443074566,55.2,12.45,92.85,-531.73828,187.01172,847.65625,-0.18758955880067732,0.017586461141870464,-0.03703833018827246,50.85,25.8,39.3
-890.13672,192.87109,438.96484,0.002664594169019743,0.0006661921754862356,-0.02651294760119546,9.6,33.0,52.2,269.53125,57.12891,980.46875,-0.05542415212755633,-0.008260294283838763,0.08073805853263168,55.2,12.45,94.05,-537.10937,170.89844,831.05469,-0.1325650870718277,0.03317452029020742,-0.0369049870334201,50.85,25.8,39.3
-905.27344,198.24219,441.40625,0.028245012350874635,-0.0019984019935335075,-0.0022649137703130416,8.55,33.0,50.7,269.04297,57.61719,975.09766,-0.09272899409260832,-0.009725847256738402,0.07900616831587771,53.85,12.15,92.7,-539.55078,178.22266,826.66016,-0.12403828101120941,0.034373736019252726,-0.03983609297921937,50.85,25.5,38.25
-916.50391,188.47656,438.96484,0.06128636401915488,-0.0007993607974134029,0.030909606519894377,9.9,33.0,50.7,263.18359,50.78125,975.09766,-0.09925722362676792,-0.009059655081252166,0.10551911591707318,53.85,12.15,92.7,-560.54687,163.08594,841.79687,-0.12390511238928224,0.03104294967474674,-0.020784078864449274,50.85,25.5,38.25
-903.32031,192.87109,442.87109,-0.002664594169019743,0.01625425132382319,-0.05062781281015071,9.9,32.85,51.3,248.04687,41.99219,972.65625,-0.07181157207330668,-0.03983609297921937,0.07061253087718658,53.85,10.35,93.15,-542.48047,174.80469,809.08203,-0.10152213739708096,0.003996978519992214,0.0006661921754862356,50.85,25.5,38.25
-899.90234,176.75781,453.125,-0.019451694513476805,0.024781057384441488,-0.04889592259339674,10.35,34.2,52.5,252.44141,54.19922,988.28125,-0.0567565364785288,-0.01252378458061051,0.1013889687751538,55.2,12.0,92.85,-565.91797,174.80469,833.49609,-0.13349761649116829,0.03077643789796721,-0.014655355196071187,51.9,26.25,38.25
-888.18359,177.24609,441.40625,0.03277483989150072,-0.01851916509413623,-0.005728868736746187,10.2,32.55,51.9,229.49219,49.31641,978.02734,-0.05489130310692246,-0.02411486520895525,0.12856810855183548,55.2,12.0,92.85,-555.66406,178.22266,833.98437,-0.18146100966522447,0.024381376985734785,-0.052226708937902724,51.15,25.5,37.95
-880.85937,174.31641,443.35937,-0.026912627999902163,0.0559571756811154,-0.0762082309920056,10.2,32.55,51.9,253.41797,68.35938,982.91016,-0.04183466950567808,0.03677181841149293,0.05728938549916267,54.75,12.0,93.3,-548.33984,168.94531,824.70703,-0.13656206559181994,-0.003463954966433146,0.020650910242522108,50.85,24.0,38.25
-894.53125,190.42969,430.17578,0.0033307863445059785,0.06594953471463334,-0.06808110533009401,11.85,32.7,50.7,263.18359,48.33984,987.79297,-0.03837054000631974,-0.009192998236104533,0.08793265477520272,55.2,10.8,94.05,-569.33594,163.08594,851.07422,-0.19531700406388222,0.01811948469542953,0.0031976177225788113,50.25,24.9,39.45
-898.92578,169.43359,450.68359,0.027179139776681696,0.05555749528240869,-0.03450690464117989,9.3,33.75,51.75,265.13672,54.6875,985.83984,-0.0454317930940384,0.017320123898016127,0.10898307088350632,54.75,12.0,92.85,-561.03516,175.78125,816.40625,-0.1885222627529431,-0.0029311059457992773,0.04716385784371757,51.45,26.1,39.9
-908.69141,160.15625,425.29297,0.011591080628344743,0.09566010003840761,-0.07447634077525163,9.9,33.3,52.95,268.06641,62.5,987.79297,-0.08486838020747627,-0.030110245722480975,0.1458882324498516,54.75,12.0,92.85,-547.85156,192.87109,808.59375,-0.16800452113234815,0.022915824012835147,0.009859190411590769,51.45,26.7,39.15
-920.89844,167.96875,427.24609,-0.03570594583729999,0.11790973187575651,-0.052626389336609423,10.5,32.55,52.35,261.71875,48.82813,968.26172,-0.02731248293153406,-0.06834761710687355,0.12403828101120941,54.45,12.75,94.05,-535.15625,192.87109,830.56641,-0.1934517706922759,0.024381376985734785,0.08140425070811792,51.45,26.7,39.15
-932.12891,161.13281,430.17578,0.04676417744501087,0.05782240905272174,-0.006128723668378088,10.5,32.55,52.35,251.95312,49.80469,964.84375,-0.02038439846574257,-0.06368444641139509,0.15747931307819635,54.6,11.4,92.4,-537.10937,202.63672,819.82422,-0.240882140312773,0.034773416417959425,0.09539358826162808,51.45,26.4,38.4
-927.24609,166.01562,420.89844,-0.05302606973531612,0.05808874629657607,-0.0182526533173567,10.2,33.6,51.6,264.64844,62.5,967.77344,-0.0291777163031404,-0.05875493847206231,0.1621424837736748,54.0,10.8,93.3,-543.94531,183.59375,836.42578,-0.2478100502456393,0.043699902877284424,0.08873201557261612,50.25,26.1,40.5
-885.74219,152.83203,424.80469,-0.034107224242473186,0.061819213039788753,-0.0069280844657914915,11.85,31.95,51.15,252.44141,63.47656,972.65625,-0.04836289903983767,-0.06781476808623968,0.19145336869874238,54.0,10.05,93.6,-546.875,177.73437,850.58594,-0.2761884057513663,0.03344103206698695,0.10485292374158693,51.15,25.5,38.55
-879.39453,156.25,430.17578,0.0035972981212855125,0.032375159492794015,0.03384071246569365,9.6,32.4,50.1,272.46094,58.59375,964.35547,-0.025980098580561592,-0.09219597053904927,0.18305973126005126,53.1,9.9,94.2,-552.73437,179.19922,835.9375,-0.25234005231919054,0.0361056262360067,0.09179629014034256,52.05,24.9,38.4
-901.36719,170.89844,436.52344,0.03304135166828025,0.10045643935581322,0.01851916509413623,11.4,32.7,51.75,283.20312,60.05859,962.40234,-0.006794741310939124,-0.03277483989150072,0.18559115680714383,54.6,11.85,93.75,-534.66797,165.52734,840.33203,-0.2468775208262987,0.02011788668896304,0.10125580015322662,51.15,25.8,39.3
-910.15625,161.13281,420.89844,-0.06994633870170035,0.07434299762039927,-0.03663864978956576,11.4,32.7,51.75,286.13281,65.42969,958.49609,-0.029710565323774273,0.028644692749581334,0.2636646211707558,54.6,11.85,93.75,-537.10937,140.13672,861.81641,-0.2776539587242659,0.013989337553510148,0.1107151356331855,52.05,25.35,39.15
-897.94922,158.20312,427.73437,0.025846929958634426,0.030909606519894377,0.01358965715480345,9.3,33.45,51.15,290.52734,30.27344,980.46875,-0.038903563559878805,0.0014655529728996386,0.16307501319301537,54.75,11.55,94.35,-551.75781,136.71875,854.49219,-0.2973721650145223,0.03424039286440035,0.09925722362676792,52.05,25.35,39.15
-899.41406,177.73437,437.98828,0.011324568851565207,0.009725847256738402,0.04942877161403061,11.1,33.0,50.7,307.61719,39.0625,997.07031,-0.010791719830931338,-0.00839363743869113,0.22409486543539073,54.9,10.65,93.75,-531.73828,110.35156,876.95312,-0.2677947683126752,0.028777861371508503,0.07674125454556469,50.7,24.9,40.2
-896.97266,177.73437,437.5,-0.014788698350923554,0.02931088492506757,0.02091724748637644,9.6,32.7,50.7,295.41016,8.78906,988.28125,-0.011857592405124276,-0.0006661921754862356,0.1851914764084371,53.85,12.6,92.7,-554.19922,78.125,861.32812,-0.2640643015694625,0.07594189374815126,0.10818371008609293,51.6,25.05,39.3
-925.78125,195.80078,412.59766,0.0011990411961201044,0.03344103206698695,0.08406884487713767,9.6,32.7,51.15,276.85547,18.06641,979.00391,-0.022116463215421746,-0.01492186697285072,0.15494788753110378,56.1,12.9,93.15,-534.17969,57.12891,854.49219,-0.30816388484545365,-0.025047394628295826,0.05702304825530834,51.15,25.8,39.3
-914.0625,212.40234,442.38281,-0.0664823837352672,-0.015188378749630253,0.034773416417959425,9.6,32.7,51.15,272.94922,7.8125,963.37891,-0.007594102108352528,-0.002131745148385874,0.13243191844990054,53.7,12.75,94.65,-537.59766,85.9375,894.53125,-0.25313941311660393,-0.07687442316749184,0.013456313999951081,50.7,25.35,39.45
-881.83594,196.28906,438.47656,-0.09432771568743514,0.03903673218180597,0.02238280045927608,9.0,32.7,50.1,288.08594,-3.90625,957.51953,-0.04010260475599891,0.031442630073453444,0.1103154552344788,54.3,12.6,93.75,-538.08594,82.03125,867.67578,-0.16907039370654112,-0.03290818304635308,0.026379778979268294,51.9,25.5,39.3
-874.51172,185.05859,445.80078,-0.07794029574168478,0.009459335479958867,0.01065855120900417,9.15,33.3,51.9,303.22266,-9.27734,982.91016,-0.026779459377974997,0.00559570011481902,0.09712565301130725,54.3,12.6,93.75,-550.78125,90.33203,854.49219,-0.13083302232214852,-0.0006661921754862356,0.06634921511334003,51.15,26.25,38.55
-886.23047,178.22266,433.59375,-0.03823737138439257,-0.005462531492891852,0.03210864771601448,11.4,31.2,50.7,296.875,-22.46094,989.25781,-0.02518073778314819,-0.0038636353651398474,0.1248376418086228,52.8,11.1,93.75,-542.96875,88.86719,875.97656,-0.03837054000631974,0.06101985224237535,0.10045643935581322,51.15,26.25,38.55
-872.55859,188.96484,442.87109,-0.09192963329519492,0.08286980368101757,0.019318525891549636,10.05,32.4,50.7,298.82812,-39.55078,1000.97656,0.0069280844657914915,-0.025313906405075356,0.0559571756811154,54.0,11.25,93.6,-545.41016,65.91797,890.625,0.01851916509413623,0.027845331952167932,0.07127872305267281,51.6,26.25,39.0
-876.95312,198.73047,450.68359,-0.04343339110050489,0.02518073778314819,0.10725118066675235,10.05,32.4,50.7,302.24609,-42.48047,996.09375,0.05742272865401504,-0.010125527655445103,0.028245012350874635,53.4,11.25,94.35,-528.32031,59.57031,853.02734,0.0279785005740951,0.04423275189791829,0.12110717506541013,50.7,25.35,39.45
-879.88281,200.19531,439.94141,-0.04063545377663278,0.03916990080373314,0.10405356294417353,10.95,32.55,51.9,274.90234,-30.76172,977.53906,0.0940612039106556,-0.034107224242473186,-0.04556513624889076,53.4,11.25,94.35,-518.06641,58.59375,831.05469,0.05116083636370978,0.0738101485997654,0.07714093494427138,50.7,25.35,39.45
-905.27344,202.14844,436.03516,-0.09872437460613405,0.10112245699837426,0.05955429926947571,10.05,33.45,51.45,282.22656,-15.625,951.66016,0.08460186843069674,0.011857592405124276,0.013323145378023914,54.3,11.1,93.75,-519.53125,72.75391,874.02344,0.10125580015322662,0.06834761710687355,0.05249304618175705,50.1,25.05,39.3
-902.34375,212.89062,456.54297,-0.07660791139071231,0.05435827955336339,0.06115319539722772,9.3,33.0,51.75,298.82812,4.88281,954.58984,0.09392803528872844,0.03543943406052046,-0.02145027103993551,54.75,10.8,93.3,-520.01953,97.16797,891.60156,0.10445324334288024,0.0668820641339739,0.0652833425391471,51.0,26.1,39.45
-881.34766,200.68359,451.66016,-0.0466310088230837,0.03823737138439257,0.04796321864113097,9.9,33.3,50.55,322.75391,-2.92969,1004.88281,0.03450690464117989,0.1424242774834185,-0.0656830229378538,54.75,10.8,93.3,-540.52734,104.98047,832.03125,0.15854518565238931,0.06981317007977318,0.07607506237007844,50.55,25.5,38.55
-878.90625,202.14844,459.47266,-0.04836289903983767,0.10485292374158693,0.03490658503988659,9.9,33.3,50.55,307.61719,30.27344,978.51562,0.08007204089007065,0.05902145024884184,-0.0660827033365605,53.4,12.0,92.85,-541.01562,155.76172,892.57812,0.17573196639555305,0.132165406673121,0.08699995082293695,50.1,27.0,39.6
-860.35156,203.125,464.84375,0.0002665117767795341,0.03597245761407953,0.09685914123452771,11.25,33.3,50.85,306.15234,34.17969,1005.85937,0.07007968185655272,0.08300314683586993,-0.07780712711975761,53.1,10.65,94.2,-526.36719,153.80859,858.88672,0.10458658649773261,0.056356856079822104,0.019851374912183504,50.1,27.0,39.6
-870.11719,202.63672,460.44922,0.024781057384441488,0.10312103352483297,0.06541651116107426,9.3,33.45,51.45,317.87109,26.36719,1000.0,0.0839356762552105,0.08939820774810235,-0.06408430134302699,54.3,11.85,95.25,-529.78516,170.89844,849.60937,0.07767378396490525,0.11004894345769926,0.0722112524720134,51.6,25.8,39.6
-897.94922,209.96094,455.07812,-0.019984718067035872,0.14269061472727282,-0.002131745148385874,9.45,32.55,52.35,312.01172,45.89844,999.02344,0.10538594729514601,0.14548855205114491,-0.08047172128877735,54.3,11.85,95.25,-544.43359,198.73047,896.48437,0.042634030303091486,0.14495552849758583,0.01358965715480345,51.6,25.8,39.6
-893.06641,220.21484,455.07812,0.04383307149921159,0.07287744464749962,0.016653931722529894,10.05,33.75,52.5,328.61328,85.9375,982.42187,0.10858339048479962,0.15614692872722388,-0.017453292519943295,54.3,11.85,95.25,-528.32031,167.96875,851.07422,0.02238280045927608,0.16320818181494254,0.04516545585018406,50.1,26.25,37.95
-898.92578,203.61328,442.38281,0.05116083636370978,0.01771980429672283,0.07367680544491303,10.05,33.75,52.5,301.75781,80.07813,994.14062,0.1200413024912172,0.2383507147656804,-0.04050228515470561,54.0,12.75,93.6,-537.59766,172.36328,864.25781,0.05808874629657607,0.14388983045631812,0.04103530870826468,50.7,24.9,38.1
-896.48437,183.10547,450.19531,-0.029044373148288036,0.09899088638291359,-0.04116847733019184,9.9,34.35,51.6,317.38281,104.49219,968.26172,0.09392803528872844,0.1841256038342442,-0.008526806060618296,53.4,12.75,94.05,-535.15625,197.75391,908.69141,0.03530626543859329,0.10551911591707318,0.0579555776746489,51.75,26.7,38.7
-883.30078,199.70703,455.56641,-0.016920443499309427,0.14442267947695198,-0.015055210127703087,10.5,33.6,51.3,328.61328,92.28516,961.91406,0.0847350370526239,0.20943951023931956,0.023448673033469015,53.4,12.75,94.05,-509.76562,185.54687,850.09766,0.019318525891549636,0.11604432397122498,0.01638741994575036,52.05,26.4,38.4
-877.92969,195.3125,462.40234,0.04250068714823912,0.06075351499852101,0.0029311059457992773,9.45,34.05,49.5,308.10547,92.77344,960.9375,0.05515781488370199,0.20970602201609906,-0.008260294283838763,53.4,12.0,93.6,-519.04297,198.73047,871.58203,0.015987739547043658,0.13522968124084744,0.017453292519943295,52.05,26.4,38.4
-879.88281,207.51953,460.44922,-0.03264167126957355,0.07580855059329891,-0.013855994398657782,8.55,32.7,50.7,299.80469,105.95703,993.65234,0.03543943406052046,0.12497098496347518,0.03304135166828025,54.3,10.65,94.2,-519.53125,195.80078,880.37109,-0.005728868736746187,0.11897542991702426,0.05369226191080236,51.0,26.4,37.65
-847.65625,204.58984,486.32812,-0.012257272803830977,0.08060488991070451,-0.04463243229662499,8.55,32.7,50.7,310.05859,84.96094,957.51953,0.02558041818185489,0.08140425070811792,-0.015055210127703087,54.75,12.75,94.05,-520.50781,198.73047,859.86328,-0.0559571756811154,0.1646737347878422,0.01585457092511649,51.0,26.4,37.65
-804.6875,217.28516,479.49219,0.021583439661862675,0.1013889687751538,0.017586461141870464,8.55,32.7,50.7,317.87109,89.84375,941.89453,0.11098164740996504,0.12803525953120162,0.026646290756047828,54.75,12.75,94.05,-498.53516,220.70312,904.78516,-0.04316687932372535,0.11124815918674456,0.051960197161123184,51.15,25.5,38.25
-778.32031,204.58984,487.79297,-0.026379778979268294,0.11124815918674456,-0.022915824012835147,9.6,32.4,50.1,301.75781,71.28906,927.73437,0.10405356294417353,0.167871352510421,0.007061253087718659,54.0,12.0,94.05,-491.21094,221.67969,842.77344,-0.14548855205114491,0.13816078718664673,0.03916990080373314,50.85,27.3,39.0
-771.97266,188.96484,478.51562,-0.03384071246569365,0.194650811888396,-0.002131745148385874,9.45,33.6,50.25,301.75781,102.05078,930.66406,0.13922665976083967,0.17866307234135234,0.03344103206698695,53.7,13.2,92.55,-502.44141,233.88672,863.28125,-0.05342575013402282,0.06781476808623968,0.04170132635082572,51.9,28.5,38.55
-784.17969,172.36328,466.79687,0.0668820641339739,0.1958498530845161,0.04236751852631195,10.2,33.3,50.25,318.35937,121.58203,960.44922,0.17453292519943295,0.18958813532713606,0.06275191699205453,53.7,13.2,92.55,-497.07031,220.70312,837.89062,-0.12417144963313657,0.10565245907192554,0.060087322823034785,51.45,27.45,37.65
-821.77734,184.57031,451.17187,0.01212410418190381,0.2995039101629081,-0.024781057384441488,10.2,32.85,49.5,304.6875,141.60156,949.21875,0.20610872389481358,0.2254272497863632,0.0579555776746489,54.0,12.75,94.05,-498.04687,215.33203,842.28516,-0.11577798672737065,0.04676417744501087,0.07127872305267281,51.45,27.45,37.65
-856.93359,206.54297,440.42969,0.04036911653277844,0.2510076679682181,-0.04290054207987102,10.2,32.85,49.5,329.10156,160.15625,870.11719,0.2755222135758801,0.31389275358219976,0.04729702646564473,54.45,12.75,94.65,-494.14062,196.77734,828.61328,-0.1273690673557154,0.09779167065386828,0.059421130647548545,51.75,26.1,38.1
-875.48828,196.28906,442.87109,0.023981696587028086,0.15947771507172986,0.007993957039984428,9.3,31.95,50.1,324.70703,152.34375,964.35547,0.1442895108550248,0.09272899409260832,0.07847314476231865,56.1,11.4,94.2,-499.51172,171.875,826.66016,-0.185724325429071,0.05622351292496973,0.0005328490206338688,51.75,26.1,38.1
-886.71875,200.19531,428.22266,-0.005995380513525721,0.2887120157990516,0.002398082392240209,8.4,33.6,50.25,320.80078,130.85937,957.03125,0.10698466888997281,0.13389747142280017,0.07953901733651159,56.1,11.4,94.2,-505.37109,165.52734,842.28516,-0.17240118005104707,0.08380250763328333,-0.015454890526409788,51.75,27.45,38.7
-912.10937,200.19531,446.77734,0.07460950939717881,0.22969074008313498,-0.03330786344505979,9.9,33.3,48.45,277.34375,77.63672,945.3125,0.013855994398657782,0.0182526533173567,0.12110717506541013,55.35,12.6,93.45,-530.27344,123.04688,846.19141,-0.16094326804462952,0.09992341580225415,-0.030110245722480975,51.0,27.9,38.4
-882.8125,211.42578,447.75391,0.056356856079822104,0.15334916593627698,0.07420982899847209,11.1,32.7,49.35,261.71875,11.23047,939.94141,-0.006128723668378088,0.07847314476231865,0.11537830632866394,55.65,11.85,94.8,-531.25,83.98438,840.82031,-0.14215776570663893,0.05688970510045597,-0.042634030303091486,51.0,27.9,38.4
-882.32422,219.23828,411.13281,0.07740727218812571,0.14975186781499147,0.09819135105257498,11.1,32.7,49.35,259.27734,3.41797,941.89453,0.006794741310939124,0.0038636353651398474,0.01252378458061051,54.9,13.35,94.5,-537.10937,79.58984,804.6875,-0.051560516762416485,0.05582383252626303,0.0069280844657914915,51.75,26.1,39.15
-939.94141,241.21094,397.46094,0.07754061534297808,0.28604742163003183,0.06022049144496195,11.1,32.7,49.65,221.67969,17.57813,933.59375,0.03543943406052046,0.03863705178309927,-0.0022649137703130416,54.3,12.6,92.4,-550.29297,70.3125,823.73047,-0.06914697790428695,0.03344103206698695,0.020251229843815406,51.0,25.65,37.05
-902.34375,242.1875,407.71484,0.094860564708069,0.1771975193684527,0.02011788668896304,10.95,32.55,49.8,222.16797,48.33984,947.75391,0.023848353432175718,0.004929507939332785,-0.035839288992152364,56.25,12.45,93.6,-567.38281,92.77344,841.79687,-0.0750091897958855,0.016920443499309427,-0.0377045223637587,51.0,25.65,38.4
-856.44531,239.25781,397.94922,0.04729702646564473,0.1684043760639801,0.12337208883572316,9.3,33.0,49.05,223.63281,66.89453,964.84375,0.04343339110050489,0.05982081104625525,0.00373046674321268,54.9,13.35,94.8,-583.00781,96.19141,833.49609,-0.09312867449131504,-0.023582016188321384,-0.02931088492506757,51.9,25.8,39.0
-879.39453,202.63672,379.39453,0.0466310088230837,0.2615328760223699,-0.0182526533173567,9.15,34.35,48.45,250.48828,62.01172,988.76953,-0.01678710034445706,0.02145027103993551,-0.02198312006056938,54.9,13.35,94.8,-574.21875,117.1875,867.1875,-0.051960197161123184,-0.004396658918698916,-0.06062017184366865,51.9,25.8,39.0
-904.29687,180.66406,389.64844,0.09086376072100198,0.255404326886917,0.06128636401915488,9.15,34.35,48.45,240.72266,33.69141,991.69922,-0.05702304825530834,-0.017586461141870464,0.03623896939085906,56.1,13.35,93.15,-568.35937,83.98438,833.98437,-0.007594102108352528,-0.017186780743163762,-0.01851916509413623,52.35,27.0,39.3
-907.22656,182.12891,382.8125,0.1244379614099161,0.15201678158530452,0.012390441425758144,10.2,33.6,48.75,245.60547,21.48438,981.93359,-0.04956194023595778,-0.05968764242432808,-0.06861412888365308,54.9,12.9,93.45,-561.52344,76.66016,860.83984,0.007727445263204894,-0.06128636401915488,-0.0652833425391471,51.75,26.1,38.1
-877.44141,187.01172,374.02344,0.12030781426799673,0.3527963171420786,0.03916990080373314,10.2,34.05,50.55,241.21094,4.39453,960.9375,-0.05036147556629638,-0.029977077100553806,-0.03743801058697916,55.5,13.95,94.65,-568.35937,57.61719,843.26172,0.05822208945142844,-0.09179629014034256,-0.019851374912183504,50.55,24.75,39.6
-940.42969,207.03125,366.21094,0.1698697545039545,0.435532952201169,0.006661572689011957,9.6,33.45,49.65,234.375,-20.50781,965.82031,-0.04010260475599891,-0.03424039286440035,-0.09432771568743514,55.65,12.15,93.45,-560.05859,30.76172,839.84375,0.12470447318669564,-0.10272135312612628,-0.03983609297921937,51.45,26.4,38.1
-1014.16016,217.28516,377.92969,0.15827867387560976,0.3422711090879268,-0.00039968039870670147,9.45,32.1,48.75,219.72656,-61.52344,984.86328,0.020650910242522108,-0.08846550379583658,-0.08540122922811014,55.65,12.6,92.7,-584.47266,41.50391,853.51562,0.17693100759167316,-0.09312867449131504,-0.00373046674321268,52.05,26.4,38.7
-969.72656,202.14844,371.58203,0.0381042027624654,0.24434609527920614,-0.04982845201273731,9.45,32.1,48.75,224.60937,-57.61719,983.39844,0.05422511093143622,-0.06634921511334003,-0.14055904411181214,56.25,11.25,94.35,-572.26562,35.15625,822.75391,0.23248850287408188,-0.10352071392353968,0.003996978519992214,51.45,26.7,38.4
-973.63281,194.33594,375.97656,0.1313660458757076,0.21476869857735903,0.05582383252626303,10.05,33.75,48.6,245.60547,-30.76172,988.76953,0.07607506237007844,-0.06581619155978097,-0.19105351376711047,56.25,11.25,94.35,-557.12891,58.10547,872.55859,0.27259110763008076,-0.08073805853263168,-0.0017320647496791726,51.45,26.7,38.4
-978.02734,208.49609,379.39453,0.13629555381504038,0.2572695602585234,0.02051756708766974,9.15,33.3,48.75,244.62891,-9.76562,992.1875,0.06661555235719438,-0.03943641258051267,-0.20011334338128786,54.3,13.35,93.75,-560.54687,94.23828,867.67578,0.23635213823922172,-0.0896645449919567,-0.03530626543859329,50.1,25.8,39.3
-964.84375,210.44922,406.73828,0.0466310088230837,0.17040277805751358,0.04023577337792608,9.3,33.75,46.95,254.39453,17.08984,1002.92969,0.09006439992358858,-0.0839356762552105,-0.2555374955088442,54.75,13.2,93.6,-555.66406,99.12109,830.56641,0.29124344134614416,-0.03290818304635308,0.013189976756096747,50.1,25.8,39.3
-937.01172,186.52344,390.13672,0.08646710180230308,0.26259874859656285,-0.00039968039870670147,9.0,34.5,45.45,264.16016,39.0625,997.07031,0.1115144964305989,-0.09299533133646266,-0.18798923919938404,54.6,12.9,93.45,-568.84766,116.69922,846.19141,0.32175336746733185,-0.03490658503988659,0.017852972918649995,50.55,25.8,38.25
-944.82422,195.3125,358.39844,0.11990813386929003,0.21676727510381774,0.04889592259339674,9.0,34.5,45.45,271.48437,65.91797,1003.41797,0.06781476808623968,-0.06368444641139509,-0.19238589811808296,54.6,12.9,93.45,-576.17187,146.97266,835.44922,0.2792526803190927,-0.10152213739708096,-0.028111843728947466,51.45,26.7,39.15
-955.56641,205.07812,378.41797,0.1115144964305989,0.24407958350242662,-0.023715184810248553,8.55,34.5,48.3,252.92969,76.17188,1012.69531,0.06554985431592662,-0.04609798526952463,-0.23009042048184167,54.45,12.45,93.3,-562.5,159.17969,808.10547,0.2755222135758801,-0.0644839817417337,-0.05022813241144401,51.0,26.1,38.7
-949.21875,199.21875,375.48828,0.08739963122164364,0.23501992842117445,-0.008526806060618296,10.35,33.0,47.55,256.83594,79.10156,989.74609,0.06781476808623968,-0.05609034430304257,-0.21876567709735123,56.25,12.0,93.3,-552.24609,184.08203,821.77734,0.2547381347114308,-0.05409194230950906,-0.031575798695380616,50.25,26.1,38.7
-940.91797,225.09766,361.32812,0.1476202971995308,0.3160244987305857,0.03757117920890633,8.25,34.5,46.95,253.90625,94.72656,983.39844,0.08127108208619076,-0.03916990080373314,-0.2067749160702998,56.25,12.0,94.65,-548.33984,177.73437,818.84766,0.22196329481993007,-0.03104294967474674,-0.07207808385008622,50.25,26.1,38.7
-969.23828,255.85937,355.95703,0.09619294905904148,0.2704593624816949,-0.05515781488370199,8.25,33.0,48.6,263.67187,75.19531,978.51562,0.03490658503988659,-0.03384071246569365,-0.19558351584066178,56.25,12.0,94.65,-550.29297,172.36328,842.77344,0.23368754407020198,-0.0365053066347134,-0.03384071246569365,51.45,24.9,38.7
-952.14844,234.375,363.76953,0.04423275189791829,0.14788663444338515,-0.04356655972243205,8.25,33.0,48.6,260.25391,86.91406,975.58594,0.022915824012835147,-0.048762579438544375,-0.20184540813096702,55.35,12.15,93.45,-559.08203,189.94141,828.61328,0.20784078864449274,0.010125527655445103,-0.026379778979268294,51.45,24.9,38.7
-927.24609,235.83984,337.89062,0.11444560237639817,0.2083736376651266,0.019318525891549636,9.45,32.85,47.4,267.08984,90.82031,981.44531,0.017586461141870464,-0.00746093348642536,-0.19691572565870902,55.35,11.85,93.45,-551.26953,188.47656,817.38281,0.23049010088054836,0.0014655529728996386,-0.04010260475599891,50.7,26.7,38.4
-945.3125,227.53906,335.9375,0.06888046612750741,0.2384838833876076,-0.0454317930940384,9.6,33.45,46.2,259.76562,94.23828,960.44922,-0.007993957039984428,-0.05409194230950906,-0.16920373686139348,54.45,14.25,94.35,-545.89844,189.94141,848.14453,0.23715167356956032,-0.02891120452636087,0.01305663360124438,51.0,27.15,37.35
-942.87109,237.79297,340.82031,0.04010260475599891,0.2298239087050621,-0.09539358826162808,9.15,33.6,46.65,268.55469,75.68359,972.65625,0.027712163330240767,-0.04929560299210344,-0.22596009880699708,54.45,14.25,94.35,-544.43359,171.38672,839.84375,0.24860958557597787,0.005196019716112318,-0.004396658918698916,51.0,27.15,37.35
-966.79687,188.47656,331.54297,0.09632611768096865,0.15468155028724945,-0.0466310088230837,9.15,33.6,46.65,259.27734,41.99219,981.93359,-0.0033307863445059785,0.022649312236055614,-0.11271371215964421,55.8,10.8,93.3,-565.42969,164.0625,838.86719,0.2568698798598167,0.018385996472209065,0.015721227770264124,52.35,26.55,38.25
-953.125,187.01172,332.51953,0.08939820774810235,0.2238285281915364,-0.1244379614099161,9.15,33.6,46.65,232.42187,38.57422,994.14062,0.01678710034445706,-0.096459460835821,-0.17426641342265342,54.9,11.85,93.45,-562.5,169.43359,852.53906,0.25433845431272406,0.05382543053272952,0.04516545585018406,51.6,27.0,37.2
-953.61328,185.05859,325.19531,0.10964926305899256,0.20131238457740794,-0.11391275335576431,8.25,33.0,46.2,248.53516,30.27344,974.60937,0.08859884695068895,-0.06128636401915488,-0.1759984781723326,54.9,11.85,93.45,-556.15234,173.33984,802.73437,0.2407487971579206,-0.0093261668580317,0.04183466950567808,51.6,27.0,37.2
-967.28516,183.59375,338.86719,0.11471211415317771,0.10751769244353188,-0.1253706653621819,9.0,32.7,45.9,239.74609,60.54688,958.00781,0.13549619301762697,-0.08073805853263168,-0.1815941782871516,55.35,11.1,94.8,-571.77734,197.26562,825.19531,0.2547381347114308,0.02851152412765417,0.060087322823034785,49.95,27.9,38.7
-954.10156,179.19922,322.26562,0.04916225983725108,0.05102749320885741,-0.13842729896342626,10.05,31.95,45.9,246.58203,108.88672,957.03125,0.1618759719968953,-0.00373046674321268,-0.1763981585710393,55.35,11.85,94.2,-570.3125,233.88672,863.76953,0.22462788898894978,0.00013316862192716734,0.06235223659334782,49.95,27.9,38.7
-986.81641,184.57031,313.96484,0.07114555443074566,0.06674889551204674,-0.11804290049768368,10.05,31.95,45.9,243.16406,120.60547,995.11719,0.17706435074652552,-0.04423275189791829,-0.1305666850782942,56.1,11.4,93.15,-548.33984,235.35156,811.52344,0.22036439869217805,-0.016653931722529894,0.009859190411590769,50.1,27.0,37.95
-947.75391,178.22266,309.08203,0.11644417890285688,0.11604432397122498,-0.09379486666680127,10.05,31.95,45.9,273.92578,151.36719,987.30469,0.12696938695700868,-0.022915824012835147,-0.10325420214676014,56.1,11.4,93.15,-552.24609,240.23437,853.51562,0.19598319623936847,0.009992359033517936,0.04649766566823133,51.9,26.25,37.2
-971.67969,194.82422,313.96484,0.07420982899847209,0.096459460835821,-0.08020520951199782,8.7,33.6,46.35,271.48437,158.69141,997.55859,0.07780712711975761,-0.01119140022963804,-0.10405356294417353,54.75,11.55,94.05,-547.85156,229.98047,841.30859,0.1119141768293056,-0.0030642745677264445,0.008127125661911596,50.85,27.75,38.25
-1022.46094,206.05469,303.71094,0.02518073778314819,0.01212410418190381,-0.06981317007977318,9.45,33.3,47.1,267.08984,151.85547,972.16797,0.018385996472209065,-0.025313906405075356,-0.11711019654541792,54.3,10.65,94.5,-541.50391,210.9375,822.75391,0.13896014798406012,0.013323145378023914,0.00652840406708479,51.0,26.4,37.65
-987.79297,208.00781,310.54687,0.025447249559927724,-0.05142717360756412,-0.07074587403203896,9.3,32.7,44.85,272.46094,130.37109,963.86719,0.039569755735365045,-0.09033073716744291,-0.09126344111970869,54.3,10.65,94.5,-545.41016,203.61328,867.67578,0.1196416220925105,-0.022116463215421746,-0.02198312006056938,51.0,28.2,38.1
-950.19531,214.84375,329.58984,-0.00373046674321268,-0.06208572481656829,-0.014389017952216851,9.15,32.85,46.35,265.13672,109.86328,954.58984,0.03877022040502644,-0.03677181841149293,-0.06834761710687355,54.75,12.75,93.6,-526.36719,181.15234,827.14844,0.13509651261892028,0.007860613885132062,0.03117611829667391,51.6,27.0,37.95
-935.54687,215.33203,333.98437,-0.1107151356331855,-0.04250068714823912,-0.004263315763846549,9.15,32.85,46.35,266.60156,78.125,952.14844,0.01305663360124438,-0.10085611975451993,-0.0940612039106556,54.9,12.15,93.15,-520.01953,161.13281,829.58984,0.17293420360460615,0.014788698350923554,0.00373046674321268,51.6,27.0,37.95
-913.08594,218.26172,334.96094,-0.09859103145128169,-0.05422511093143622,0.06475031898558803,10.35,31.95,47.25,258.78906,78.61328,953.61328,0.06288508561398169,-0.058888281626914674,-0.12710255557893585,55.35,12.6,92.7,-520.50781,169.92187,843.75,0.22689280275926285,-0.047830050019203804,0.005329188338039486,52.8,27.45,38.1
-909.66797,198.73047,345.21484,-0.060487003221741484,-0.026779459377974997,0.06581619155978097,9.45,31.35,46.35,263.67187,79.10156,954.58984,0.060487003221741484,-0.05076115596500308,-0.13456348906536122,55.35,12.6,92.7,-527.34375,186.03516,846.67969,0.23235533425215468,-0.10405356294417353,-0.02984373394570144,50.85,28.5,39.0
-890.13672,225.09766,359.86328,-0.12670287518022916,0.0190520141147701,0.05808874629657607,9.6,31.65,46.5,271.97266,86.91406,960.44922,0.05076115596500308,-0.060487003221741484,-0.13456348906536122,55.2,12.45,92.85,-532.71484,191.40625,863.28125,0.24181466973211357,-0.09113009796485633,-0.04716385784371757,50.85,26.55,37.5
-898.92578,236.81641,368.65234,-0.06914697790428695,0.005995380513525721,0.08233695466038368,9.45,32.85,46.35,259.76562,117.1875,958.49609,0.07341046820105869,-0.055690663904335864,-0.10898307088350632,54.6,12.15,94.5,-528.80859,197.26562,815.91797,0.12110717506541013,-0.07394331722169258,-0.06035383459981431,50.85,28.05,37.95
-888.18359,240.72266,358.39844,-0.09339518626809457,-0.07940584871458442,0.05169368538434365,9.45,32.85,46.35,278.80859,124.51172,963.37891,0.013189976756096747,-0.07354363682298586,-0.14908567563950523,55.65,13.35,94.5,-522.46094,191.89453,826.66016,0.17506577422006683,-0.06968000145784602,0.007594102108352528,51.75,27.9,38.7
-852.05078,252.44141,345.70312,-0.15588059148336955,0.0482297304179105,0.10405356294417353,8.7,32.55,44.7,265.13672,125.97656,949.21875,0.02331550441154185,-0.13243191844990054,-0.1446891912537315,55.2,12.0,94.05,-524.41406,227.05078,839.35547,0.16320818181494254,-0.04103530870826468,-0.032375159492794015,51.45,27.15,38.4
-912.59766,247.55859,348.63281,-0.10845022186287244,-0.004263315763846549,0.10845022186287244,8.55,33.45,45.9,266.11328,120.11719,937.98828,-0.0575558972759422,-0.1374945950111605,-0.1220398790176759,56.4,12.9,93.75,-503.90625,238.76953,782.22656,0.096459460835821,-0.10192181779578767,-0.10058960797774039,51.45,27.15,38.4
-895.99609,256.34766,349.12109,-0.11764322009897699,-0.0182526533173567,0.1313660458757076,8.25,31.95,47.25,268.06641,136.23047,906.73828,-0.04276719892501865,-0.16360803674657445,-0.14269061472727282,55.5,11.55,92.55,-503.41797,252.92969,833.98437,0.17439975657750578,-0.11417909059961863,-0.06115319539722772,51.75,28.2,38.1
-895.01953,227.53906,354.00391,-0.13602904203826086,0.058888281626914674,0.026646290756047828,9.45,32.1,46.05,250.97656,138.67187,883.78906,-0.021716608283789844,-0.12470447318669564,-0.15654678365885577,55.5,11.55,92.55,-486.81641,264.64844,805.17578,0.12177336724089637,-0.16480707794269456,-0.07580855059329891,50.25,27.9,37.05
-914.0625,202.14844,343.75,-0.048762579438544375,0.018385996472209065,0.04223434990438478,9.45,32.1,46.05,268.55469,177.24609,866.69922,0.03837054000631974,-0.16747167211171432,-0.15441503851046992,54.3,12.15,92.4,-476.5625,227.53906,810.05859,0.14282395788212518,-0.2079739572664199,-0.06941348968106648,50.85,26.55,38.25
-909.17969,207.51953,359.86328,-0.03264167126957355,0.05808874629657607,0.02238280045927608,9.6,31.2,45.45,275.39062,187.98828,908.69141,0.06914697790428695,-0.182393539084565,-0.1212403436873373,54.75,12.75,93.3,-524.41406,282.22656,918.45703,0.2121041044083393,-0.2063752356715931,-0.12230621626153024,51.9,27.0,38.55
-902.83203,206.54297,371.09375,-0.015588059148336955,0.04596481664759746,-0.014389017952216851,9.3,33.0,46.95,299.80469,181.64062,958.49609,0.09232931369390163,-0.2800520411165061,-0.1341638086666545,54.45,15.0,94.35,-496.09375,282.71484,919.43359,0.15055122861240486,-0.18332624303683076,-0.06475031898558803,51.9,27.0,38.55
-874.02344,213.86719,387.69531,-0.04529862447211123,0.12070749466670343,0.019984718067035872,8.25,32.7,46.2,338.86719,161.62109,1009.27734,0.07434299762039927,-0.30256818473063457,-0.07181157207330668,53.55,12.15,92.7,-498.04687,238.28125,891.11328,0.16640579953752135,-0.18545781365229144,-0.09139660974163587,50.25,27.9,38.1
-914.0625,203.125,381.83594,0.011058231607710873,0.10032309620096086,0.017453292519943295,7.65,34.05,45.3,344.72656,145.99609,1009.76562,0.04956194023595778,-0.2508744993462909,-0.05555749528240869,55.2,12.0,93.6,-493.65234,250.48828,869.14062,0.29337518649453004,-0.20610872389481358,-0.07820680751846432,51.15,27.0,37.5
-920.41016,214.35547,386.23047,-0.06101985224237535,0.10432007472095307,-0.03530626543859329,7.65,34.05,45.3,372.07031,146.48437,1024.90234,-0.07460950939717881,-0.2568698798598167,-0.02091724748637644,52.8,11.4,93.75,-508.78906,234.86328,884.76562,0.3121608633654458,-0.2145023613335047,-0.07341046820105869,51.15,27.0,37.5
-947.75391,219.72656,372.07031,-0.10072277659966757,0.14042570095695978,-0.09179629014034256,8.4,33.6,46.65,333.00781,125.97656,1020.01953,-0.17013626628073403,-0.32575034598732405,0.005329188338039486,52.8,11.4,93.75,-492.67578,265.13672,893.55469,0.2920428021435576,-0.23248850287408188,-0.006794741310939124,50.1,26.25,38.55
-989.74609,231.44531,375.97656,-0.052226708937902724,0.07274427602557246,0.05835525807335561,7.95,34.2,46.5,369.14062,81.54297,990.72266,-0.2611331956236632,-0.3020351611770755,0.017986141540577164,52.8,11.4,93.75,-503.41797,237.79297,834.96094,0.22182995166507768,-0.16094326804462952,-0.0656830229378538,50.1,26.25,38.55
-1023.92578,216.30859,388.67187,-0.11178100820737844,0.1033873707686873,-0.05702304825530834,9.45,33.6,45.0,306.64062,104.98047,927.24609,-0.22049774184703042,-0.34213776593307443,-0.028111843728947466,53.7,11.25,93.6,-510.74219,250.48828,830.56641,0.23088978127925505,-0.21716695550252443,0.026779459377974997,50.25,28.2,39.15
-1031.73828,213.86719,385.74219,-0.17013626628073403,0.0738101485997654,-0.031575798695380616,7.95,32.4,47.25,314.45312,73.73047,901.36719,-0.077007591789419,-0.23115629305603458,-0.05395859915465669,55.35,11.4,93.45,-489.25781,269.53125,856.44531,0.20331096110386668,-0.10671815711319327,-0.08593407824874401,50.85,28.05,40.05
-1003.41797,201.66016,417.48047,-0.13003366152473514,0.009592678634811233,0.04463243229662499,7.95,32.4,47.25,296.38672,52.73438,960.9375,-0.07114555443074566,-0.218099484921865,-0.06621587195848767,54.3,11.85,93.45,-526.36719,315.42969,799.31641,0.09899088638291359,-0.15867835427431645,-0.09459422746421467,50.1,27.0,37.95
-942.87109,187.98828,453.61328,-0.1771975193684527,0.026779459377974997,0.006128723668378088,9.0,33.75,46.5,325.19531,54.19922,966.30859,0.009192998236104533,-0.23235533425215468,-0.047696706864351436,52.2,11.55,92.85,-494.14062,244.14062,842.28516,0.1662726309155942,-0.14375648730146573,-0.05395859915465669,51.9,27.3,38.55
-867.1875,190.91797,470.70312,-0.18865543137487029,0.10352071392353968,0.045032112695331694,8.4,32.55,47.1,310.05859,63.47656,954.58984,0.009992359033517936,-0.25034147579273186,-0.08420218803199005,54.45,12.45,94.35,-497.55859,240.23437,821.28906,0.08140425070811792,-0.08806582339712987,-0.040901965553412314,51.9,27.3,38.55
-827.14844,211.91406,471.67969,-0.12137368684218967,0.1793292645168386,0.09179629014034256,9.9,33.3,46.35,349.12109,41.01563,960.44922,0.0373046674321268,-0.24381324625857226,-0.05129400498563695,54.6,11.85,94.8,-485.35156,247.07031,834.47266,0.11244720038286467,-0.0928621627145355,0.02651294760119546,50.55,28.8,39.3
-809.08203,226.07422,446.28906,-0.1634746935917221,0.416081083154767,0.07833997614039148,9.9,33.6,46.05,328.125,50.78125,941.89453,0.10018992757903368,-0.24208118150889307,-0.11258036900479183,54.6,11.85,94.8,-458.98437,210.9375,866.21094,0.11764322009897699,-0.13789427540986718,-0.04010260475599891,50.55,28.8,39.3
-819.33594,248.53516,448.73047,-0.18292656263812407,0.5094762694228616,0.08726646259971647,9.9,33.6,46.05,340.82031,52.73438,954.10156,0.06248540521527499,-0.20411032190128006,-0.08446852527584436,53.7,11.55,93.3,-494.62891,184.57031,819.82422,0.07833997614039148,-0.02571358680378206,-0.04010260475599891,51.6,27.75,37.5
-828.61328,286.62109,425.78125,-0.2372848421914875,0.5868835416109873,0.12057432604477626,7.5,32.7,46.2,333.49609,87.40234,949.21875,0.08140425070811792,-0.1390934911389125,-0.11164783958545127,52.8,11.85,94.2,-480.95703,203.125,853.02734,0.15747931307819635,-0.01305663360124438,0.023448673033469015,51.75,28.2,39.15
-861.81641,276.36719,401.85547,-0.31349307318349307,0.7788697593303635,0.04889592259339674,9.45,33.6,45.6,349.12109,102.53906,958.49609,0.10938292581513821,-0.150018379591771,-0.04916225983725108,54.3,11.1,93.75,-483.39844,249.02344,836.42578,0.11830941227446322,0.004529827540626083,-0.026646290756047828,51.75,26.4,39.9
-933.59375,250.48828,379.88281,-0.35079791514854514,0.7608836177897863,-0.016920443499309427,7.2,33.0,46.2,363.76953,113.76953,959.47266,0.03077643789796721,-0.11271371215964421,-0.12110717506541013,54.3,11.1,93.75,-481.93359,277.34375,816.89453,0.06435063858688132,-0.0046631706954784495,-0.04716385784371757,48.45,27.45,39.15
-970.70312,236.32812,323.24219,-0.3336109598724561,0.6351132720288978,-0.04236751852631195,9.0,33.0,45.15,377.92969,143.55469,961.42578,0.055690663904335864,-0.09259565093775597,-0.052226708937902724,53.7,12.45,93.6,-479.49219,295.41016,873.53516,0.1017886491738605,0.005728868736746187,-0.04316687932372535,48.45,27.45,39.15
-961.42578,231.44531,292.96875,-0.2964394610622565,0.6275191699205452,-0.14055904411181214,9.0,33.0,45.15,360.35156,145.50781,973.14453,0.0063950609122324234,-0.04809656179598333,-0.042634030303091486,53.1,11.85,93.45,-492.1875,300.78125,851.07422,0.02224963183734891,0.011324568851565207,-0.09113009796485633,50.7,28.65,39.45
-954.58984,213.86719,260.74219,-0.2546049660895036,0.5780903983065147,-0.1545482071323971,8.55,33.0,45.9,365.72266,136.71875,979.49219,-0.04050228515470561,-0.08766614299842318,0.0002665117767795341,53.1,11.85,93.45,-493.65234,267.57812,864.74609,0.0063950609122324234,0.011724423783197109,-0.017453292519943295,50.7,28.65,39.45
-946.77734,208.49609,243.65234,-0.24061562853599347,0.5306600286860175,-0.15388201495691084,8.25,34.2,45.45,358.88672,110.83984,967.77344,-0.0019984019935335075,-0.057689065897869374,0.003996978519992214,53.55,12.6,94.2,-510.74219,264.16016,874.02344,-0.00039968039870670147,0.01252378458061051,-0.06581619155978097,49.95,27.9,40.2
-947.75391,198.24219,232.91016,-0.19811476685482912,0.5250643285711986,-0.12696938695700868,7.5,34.5,42.75,342.77344,85.9375,992.1875,-0.05182702853919601,-0.06834761710687355,0.02198312006056938,52.05,11.1,93.75,-521.48437,254.88281,852.53906,-0.03424039286440035,0.04436592051984546,-0.053558918755949994,50.25,28.2,39.45
-944.33594,172.36328,242.1875,-0.22569376156314275,0.5299938365105312,-0.13789427540986718,8.1,34.35,43.95,346.67969,77.14844,980.46875,-0.06062017184366865,-0.047430369620497105,0.07687442316749184,53.4,11.55,94.35,-525.87891,249.51172,867.1875,-0.03637213801278623,0.009192998236104533,-0.04210100674953242,51.45,27.15,39.15
-951.66016,180.17578,234.86328,-0.1430902951259795,0.3887687747561581,-0.13269825569375487,8.1,34.35,43.95,309.57031,84.47266,979.49219,-0.03357420068891412,-0.04676417744501087,0.032375159492794015,53.4,11.55,94.35,-541.99219,261.23047,846.67969,-0.05688970510045597,0.05542415212755633,0.0030642745677264445,50.7,27.15,38.7
-943.35937,162.10937,235.83984,-0.17200149965234038,0.3771776941278134,-0.22302916739412298,8.1,34.35,43.95,314.45312,97.16797,979.49219,0.011724423783197109,-0.06395095818817463,0.07234459562686575,52.95,11.25,94.65,-513.18359,263.18359,851.5625,-0.04956194023595778,0.017453292519943295,0.024914226006368657,51.45,27.45,39.9
-936.52344,157.22656,223.14453,-0.094860564708069,0.3453353836556532,-0.06714857591075343,7.65,33.6,44.7,305.17578,121.09375,952.14844,0.005995380513525721,-0.04476577545147736,0.10312103352483297,53.1,12.15,94.2,-514.16016,265.13672,853.02734,-0.09939056678162028,0.02851152412765417,0.015454890526409788,50.55,28.8,39.6
-953.61328,153.80859,217.77344,-0.10565245907192554,0.35612710348658455,-0.10192181779578767,7.05,33.3,45.0,316.89453,115.23438,950.68359,-0.055690663904335864,-0.029977077100553806,0.028777861371508503,53.1,12.15,94.2,-515.13672,240.23437,833.00781,-0.14055904411181214,-0.005995380513525721,0.034107224242473186,50.55,28.8,39.6
-960.9375,155.27344,228.02734,-0.05782240905272174,0.2335543754482748,-0.043699902877284424,8.1,34.05,43.65,321.28906,115.72266,947.75391,-0.03024341434440814,-0.055690663904335864,0.11551147495059111,51.9,11.25,94.65,-492.1875,236.32812,864.74609,-0.14082538135566647,0.02038439846574257,-0.007727445263204894,50.55,28.8,39.6
-920.89844,161.13281,221.67969,-0.07367680544491303,0.2206309104689576,-0.0863337586474507,7.5,34.2,43.8,347.65625,106.93359,953.125,-0.05116083636370978,-0.04636449704630416,0.11457894553125055,51.9,11.25,92.55,-488.76953,236.81641,838.86719,-0.19851462178646104,-0.016920443499309427,0.13229857529504815,50.55,28.5,38.25
-936.03516,169.92187,219.23828,-0.028644692749581334,0.2194318692728375,-0.052226708937902724,7.5,34.2,43.8,337.40234,87.89063,946.28906,-0.07167840345137952,-0.05102749320885741,0.1220398790176759,52.95,11.55,94.35,-515.625,242.1875,831.05469,-0.20264476892838043,-0.04036911653277844,-0.05475795995207009,49.2,27.9,38.7
-930.66406,171.875,218.75,-0.005329188338039486,0.19331860207034873,0.03903673218180597,7.95,33.75,43.05,341.30859,91.30859,937.01172,-0.061419532641082054,-0.009459335479958867,0.10591879631577987,52.95,11.55,94.35,-504.39453,236.81641,841.79687,-0.15721280130141685,0.023182161256689485,-0.008659974682545464,50.55,27.75,39.3
-941.89453,178.71094,208.00781,-0.0291777163031404,0.15881169742916884,-0.07247776424879292,7.65,34.05,42.9,328.61328,94.72656,946.28906,-0.021849951438642212,-0.0466310088230837,0.11684385930156357,52.5,10.35,93.75,-499.02344,243.16406,852.05078,-0.21716695550252443,0.04050228515470561,0.0190520141147701,51.15,27.75,39.3
-920.89844,171.875,223.63281,-0.0058622118915985545,0.2343537362456882,-0.02731248293153406,9.0,34.2,44.85,356.44531,99.60938,946.77734,-0.030509926121187674,-0.052626389336609423,0.14815314622016465,52.5,11.4,94.2,-499.51172,230.46875,840.33203,-0.17040277805751358,0.034773416417959425,0.0377045223637587,50.7,27.9,38.7
-934.57031,186.03516,238.28125,0.02651294760119546,0.03557277721537283,0.04676417744501087,8.1,33.3,43.95,334.96094,84.96094,940.91797,-0.048496242194690044,-0.02038439846574257,0.1557472483285172,51.75,10.65,94.5,-497.55859,223.63281,858.39844,-0.17053594667944072,0.02331550441154185,-0.04916225983725108,49.8,26.55,38.25
-954.10156,189.45312,225.58594,-0.02331550441154185,0.09046408032229529,-0.03290818304635308,8.1,33.3,43.95,341.30859,73.24219,979.00391,-0.08953137637002952,0.05395859915465669,0.17519911737491917,52.8,11.4,93.75,-510.74219,229.98047,836.42578,-0.17693100759167316,0.025047394628295826,0.004263315763846549,49.8,26.55,38.25
-958.00781,190.42969,219.72656,0.0377045223637587,0.047430369620497105,0.07967236049136395,7.65,32.85,43.2,333.49609,68.84766,974.12109,-0.10924958266028587,0.013722825776730615,0.13816078718664673,52.5,10.35,94.2,-501.46484,218.75,836.91406,-0.19358493931420306,0.04210100674953242,0.05249304618175705,51.45,27.45,39.9
-1004.39453,185.05859,209.47266,0.05649002470174927,-0.07061253087718658,-0.022516143614128445,6.15,33.0,42.3,335.44922,67.87109,940.42969,-0.03210864771601448,0.035173096816666125,0.14841965799694418,52.05,12.15,95.25,-529.29687,235.35156,847.16797,-0.17852990371942518,0.06861412888365308,0.034107224242473186,50.1,27.3,38.25
-979.49219,187.98828,207.51953,0.013323145378023914,-0.007594102108352528,-0.04210100674953242,7.35,34.35,42.9,337.40234,52.24609,969.23828,-0.03450690464117989,0.031309286918601076,0.15801233663175543,52.05,12.15,95.25,-509.27734,197.26562,810.05859,-0.2900444001500241,0.0046631706954784495,0.04290054207987102,51.0,28.65,39.45
-974.12109,187.5,222.16797,0.03370754384376649,-0.07660791139071231,0.022915824012835147,7.35,33.3,42.15,320.3125,60.54688,949.70703,0.01358965715480345,-0.015987739547043658,0.1694700741052478,51.9,11.25,94.35,-506.34766,216.30859,824.70703,-0.15188361296337732,0.10671815711319327,0.06168604441786158,51.15,28.05,39.0
-983.88672,174.80469,223.63281,0.02704597115475453,-0.07314395642427915,-0.05142717360756412,7.35,33.3,42.15,339.84375,70.3125,933.10547,-0.013855994398657782,0.12510415358540233,0.15108425216596394,52.5,11.4,94.2,-510.74219,252.44141,815.91797,-0.20464317092191392,0.07900616831587771,0.07354363682298586,50.7,27.45,38.1
-988.28125,171.38672,244.62891,-0.013189976756096747,-0.07194491522815906,-0.034107224242473186,7.65,33.3,43.2,332.51953,84.96094,937.98828,0.030643269276040042,0.1496186991930643,0.16720516033493477,53.4,12.0,93.6,-512.20703,210.9375,821.77734,-0.19851462178646104,0.08926486459324998,0.08513471745133061,50.25,26.4,38.7
-998.04687,180.17578,245.11719,-0.00746093348642536,-0.14975186781499147,0.002664594169019743,7.2,32.4,44.4,329.58984,76.17188,951.66016,-0.0013323843509724712,0.1819938586858583,0.18665702938133677,53.4,12.0,93.6,-526.36719,233.88672,861.32812,-0.22675963413733566,0.12323892021379601,0.05835525807335561,50.25,26.4,38.7
-987.79297,172.36328,245.60547,0.032375159492794015,-0.14682076186919218,0.0025314255470925756,7.65,35.85,43.2,316.89453,83.98438,972.16797,0.06674889551204674,0.1496186991930643,0.16094326804462952,52.95,10.8,95.1,-533.20312,200.68359,802.24609,-0.28245029804167154,0.16853754468590723,0.11777638872090417,50.55,27.0,38.25
-998.04687,176.75781,259.76562,-0.03264167126957355,-0.16813786428720054,-0.00279793732387211,7.35,34.8,44.25,318.84766,95.21484,951.17187,0.041301645952119014,0.11977496524736285,0.15321599731434982,51.6,10.5,95.1,-536.13281,199.21875,809.08203,-0.2700596820829882,0.15308265415949743,0.09312867449131504,50.55,27.0,38.25
-980.46875,179.6875,261.71875,-0.014522186574144018,-0.18585766858392339,-0.05169368538434365,7.35,34.8,44.25,298.82812,67.87109,948.73047,0.0361056262360067,0.13776110678794004,0.22289582423927062,52.65,11.25,95.1,-528.32031,233.88672,841.79687,-0.2777871273461931,0.1508177403891844,0.10525260414029364,51.15,27.75,40.65
-935.54687,198.24219,263.18359,-0.03277483989150072,-0.18838891959809073,0.06541651116107426,6.9,32.4,43.8,312.01172,111.81641,963.37891,0.08007204089007065,0.1353630243956998,0.21849916532057173,52.65,11.25,95.1,-545.89844,231.44531,834.47266,-0.29564010026484305,0.10405356294417353,0.08806582339712987,51.15,28.8,38.25
-929.19922,202.63672,270.01953,-0.04330022247857772,-0.11684385930156357,-0.0652833425391471,7.35,33.6,43.2,289.55078,98.14453,957.51953,0.08979788814680904,0.23408722446890867,0.18945479217228367,52.5,10.35,94.2,-537.10937,229.00391,873.53516,-0.2331546950495681,0.14122506175437316,0.07860648791717102,51.0,28.2,39.45
-943.84766,188.96484,273.92578,-0.017852972918649995,-0.04343339110050489,0.022915824012835147,9.0,34.2,44.4,287.59766,112.30469,994.14062,0.07873965653909817,0.2474103698469326,0.2335543754482748,52.05,11.85,94.5,-553.71094,213.37891,863.76953,-0.2981715258119357,0.162275652395602,0.07087904265396612,51.0,26.7,39.45
-950.68359,173.82812,255.85937,0.017852972918649995,-0.06994633870170035,0.051560516762416485,8.4,34.05,43.95,286.62109,94.72656,1024.90234,0.04210100674953242,0.1452220402743654,0.2226293124624911,52.95,10.8,92.55,-565.91797,190.91797,831.05469,-0.3348101756015014,0.12696938695700868,0.08247012328231085,51.0,26.7,39.45
-984.86328,161.13281,276.36719,-0.035039753661813756,-0.012656953202537678,-0.05808874629657607,8.4,34.05,43.95,287.10937,85.44922,991.21094,0.006128723668378088,0.14841965799694418,0.24181466973211357,52.5,12.9,94.2,-558.59375,187.01172,862.30469,-0.2959066120416226,0.1601439072472161,0.0648836621404404,51.45,26.4,39.45
-974.60937,167.96875,265.625,0.02704597115475453,-0.09805818243064782,0.03743801058697916,9.0,32.4,44.85,297.85156,79.10156,1003.41797,-0.017320123898016127,0.24527879923147192,0.23635213823922172,53.1,11.1,95.55,-548.82812,182.12891,870.60547,-0.3126937123860797,0.13189889489634146,0.017053612121236593,51.45,26.4,39.45
-979.98047,183.59375,258.30078,0.0567565364785288,-0.08193727426167699,0.0660827033365605,9.0,31.95,44.1,287.10937,89.35547,1000.0,0.02571358680378206,0.16893722508461392,0.22329550463797732,52.65,11.55,92.55,-560.54687,147.46094,865.23437,-0.3064318200957744,0.1228392398150893,0.007194421709645826,51.45,26.4,39.45
-979.98047,177.24609,257.8125,0.0482297304179105,0.03663864978956576,-0.016120908168970823,7.05,33.6,43.65,310.05859,64.94141,981.93359,0.013722825776730615,0.24860958557597787,0.24461260705598567,52.65,11.55,92.55,-568.35937,177.24609,886.71875,-0.2343537362456882,0.1009892883764471,0.03184231047216015,51.45,27.15,39.45
-972.65625,209.96094,266.11328,0.02731248293153406,-0.035839288992152364,0.03543943406052046,7.65,33.6,42.9,312.01172,87.40234,983.88672,0.03743801058697916,0.23701833041470793,0.20291110617223476,52.95,11.25,94.35,-565.42969,176.75781,858.39844,-0.3060321396970677,0.10032309620096086,0.04756353824242427,51.15,27.75,39.0
-967.77344,206.05469,270.99609,0.077007591789419,-0.03930324395858551,0.05968764242432808,7.65,33.6,42.9,329.58984,77.63672,1000.48828,-0.0006661921754862356,0.2318223106985956,0.22489440076572934,53.7,11.55,94.65,-541.01562,152.34375,879.39453,-0.22942422830635542,0.10978260621384492,0.00039968039870670147,49.05,27.3,40.05
-956.05469,199.21875,255.85937,-0.01958503766832917,0.01625425132382319,0.028245012350874635,8.55,33.45,43.35,311.03516,31.73828,973.14453,0.04156815772889855,0.26459732512302153,0.21423584955672517,52.5,10.65,94.5,-537.10937,164.55078,886.71875,-0.24381324625857226,0.07687442316749184,0.009192998236104533,51.15,26.25,39.3
-958.00781,214.35547,265.625,-0.05409194230950906,0.0190520141147701,0.04796321864113097,7.95,33.75,44.1,260.74219,50.29297,981.44531,0.0019984019935335075,0.24754371300178496,0.1963828766380752,52.5,10.65,94.5,-540.52734,109.375,823.24219,-0.2651301741436554,0.11897542991702426,0.03304135166828025,51.15,26.25,39.3
-976.07422,205.56641,268.55469,0.005329188338039486,-0.09046408032229529,0.08273663505909039,6.9,33.0,44.1,301.26953,15.13672,1003.41797,-0.005728868736746187,0.2315559734547413,0.18319289988197843,54.0,12.75,94.05,-526.36719,134.27734,867.67578,-0.15921137782787553,0.1204409828899239,0.020650910242522108,51.45,27.45,38.4
-971.67969,203.61328,253.90625,-0.0652833425391471,-0.057689065897869374,0.03663864978956576,7.35,34.05,45.0,297.36328,35.15625,965.33203,-0.019451694513476805,0.1771975193684527,0.1803951370910315,54.75,10.8,94.35,-521.48437,146.48437,850.09766,-0.21423584955672517,0.14029253233503258,0.026779459377974997,51.45,27.45,38.4
-966.30859,194.33594,260.74219,-0.06794793670816685,-0.03837054000631974,-0.011058231607710873,7.35,34.05,45.0,303.71094,21.48438,952.63672,0.001065872574192937,0.15947771507172986,0.15747931307819635,54.75,10.8,94.35,-492.1875,120.11719,839.35547,-0.14122506175437316,0.11697702792349074,0.04929560299210344,51.75,27.15,38.7
-968.26172,191.89453,279.29687,-0.014522186574144018,-0.1119141768293056,-0.005995380513525721,7.95,33.75,43.35,315.42969,25.39063,941.40625,0.034773416417959425,0.2943077159138706,0.10911641403835869,54.45,11.55,95.1,-500.0,152.34375,875.48828,-0.09552675688355523,0.09419454706550798,0.028777861371508503,50.55,27.0,40.05
-946.77734,201.17187,279.29687,-0.06981317007977318,-0.10245484134934674,0.048762579438544375,9.45,33.6,43.65,285.15625,8.30078,945.80078,0.0031976177225788113,0.3433368071291945,0.0924624823158288,54.45,11.55,93.3,-506.83594,140.625,858.88672,-0.1353630243956998,0.11417909059961863,0.10205516095064003,50.85,26.55,39.3
-934.08203,191.89453,277.83203,-0.019718206290256335,-0.09019756854551575,0.05555749528240869,6.6,32.55,43.65,332.03125,48.33984,985.35156,0.020784078864449274,0.3509310837704723,0.14562172067307208,53.55,12.15,95.25,-492.1875,164.0625,896.48437,-0.08979788814680904,0.09859103145128169,0.023848353432175718,51.9,27.3,38.55
-936.03516,176.75781,291.99219,0.0186523337160634,-0.14668759324726502,0.09046408032229529,8.25,34.5,43.35,349.12109,65.91797,981.93359,0.02944405354699474,0.34773346604789346,0.10045643935581322,53.55,12.15,95.25,-503.41797,175.78125,859.375,-0.12190653586282353,0.16200914061882243,-0.0031976177225788113,50.55,27.75,39.0
-955.07812,160.64453,285.64453,0.0017320647496791726,-0.1200413024912172,0.04223434990438478,8.25,34.5,43.35,344.23828,79.10156,982.91016,0.039569755735365045,0.3433368071291945,0.08979788814680904,54.0,11.55,95.1,-516.11328,159.66797,886.71875,-0.12377176923442987,0.2051760199425478,-0.03224199087086685,51.0,26.7,38.1
-990.23437,192.38281,283.69141,0.021183759263155976,-0.09605978043711431,0.014122506175437317,8.25,34.5,43.35,325.19531,62.01172,988.28125,0.02704597115475453,0.30150231215644163,0.12097400644348297,54.75,12.0,93.3,-515.625,189.94141,936.52344,-0.1552143993078833,0.18679019800326394,-0.0283781809728018,51.0,26.7,38.1
-1004.39453,202.14844,290.52734,0.09113009796485633,-0.21396933777994562,0.05475795995207009,8.1,34.05,44.7,324.70703,51.75781,961.91406,0.12137368684218967,0.16880405646268679,0.08513471745133061,54.75,12.0,93.3,-512.20703,162.59766,856.93359,-0.15841201703046212,0.1775971997671594,0.015588059148336955,52.35,27.0,39.6
-997.55859,219.72656,308.10547,-0.008260294283838763,-0.23235533425215468,0.005728868736746187,7.65,33.6,43.65,327.14844,53.71094,975.09766,0.06435063858688132,0.11218068860608514,0.09845786282935451,54.3,11.85,96.0,-513.67187,175.29297,885.74219,-0.1057856276938527,0.2173001241244516,0.0011990411961201044,51.6,26.55,36.45
-1003.90625,230.46875,316.40625,0.028245012350874635,-0.2973721650145223,0.02931088492506757,7.95,32.4,44.4,324.70703,65.91797,984.375,0.07101221127589329,0.04396624012113876,0.053292581512095656,55.35,12.15,92.7,-515.13672,159.17969,914.0625,-0.21343648875931176,0.19838127863160868,-0.009192998236104533,51.15,25.5,37.5
-950.68359,228.02734,346.19141,-0.012790121824464847,-0.3587916976556043,0.06088668362044818,7.35,33.3,42.9,326.66016,63.96484,965.33203,0.09113009796485633,0.06475031898558803,0.07021285047847989,55.2,12.75,93.3,-500.48828,130.37109,841.79687,-0.21117157498899872,0.21077189459029202,0.05275955795853659,50.55,25.8,39.0
-931.64062,211.42578,349.60937,0.005995380513525721,-0.37411324502716176,0.10831705324094529,7.35,33.3,42.9,329.10156,68.35938,980.46875,0.048762579438544375,0.059421130647548545,0.09739199025516157,55.2,12.75,93.3,-492.1875,145.99609,885.25391,-0.17733086252330507,0.15161710118659782,0.0022649137703130416,50.7,26.7,37.65
-908.20312,169.92187,363.28125,0.02038439846574257,-0.3039003945486819,0.05009496378951684,8.25,32.7,44.1,332.03125,71.28906,966.79687,0.02851152412765417,0.05489130310692246,0.03384071246569365,54.3,12.6,93.45,-502.92969,153.80859,862.79297,-0.23621896961729455,0.1934517706922759,-0.047430369620497105,52.05,27.15,38.7
-869.14062,162.10937,359.375,0.12070749466670343,-0.2659295349410688,0.07567538197137175,8.55,33.45,44.4,330.56641,66.89453,945.3125,0.07074587403203896,0.0462311538914518,0.02145027103993551,53.55,11.4,93.75,-504.88281,166.50391,860.83984,-0.2121041044083393,0.1646737347878422,-0.020650910242522108,52.05,27.15,38.7
-868.65234,174.80469,346.19141,0.13975950878147356,-0.18292656263812407,0.07074587403203896,8.25,33.0,43.8,314.94141,88.37891,935.54687,0.08020520951199782,0.09779167065386828,0.02011788668896304,55.65,11.85,94.5,-490.72266,151.85547,873.53516,-0.18585766858392339,0.21716695550252443,-0.029710565323774273,51.6,26.55,39.3
-921.875,180.66406,346.19141,0.1442895108550248,-0.11484528277510488,0.04303371070179819,8.1,33.6,45.3,309.08203,83.00781,936.03516,0.04156815772889855,0.11551147495059111,0.05022813241144401,55.35,13.65,94.5,-507.32422,151.36719,825.68359,-0.11870909267316991,0.14935218741628475,0.003996978519992214,52.65,26.55,38.25
-930.17578,187.5,332.03125,0.24034911675921392,-0.08526806060618297,0.01585457092511649,8.1,33.6,45.3,295.89844,92.77344,952.14844,-0.00013316862192716734,0.18292656263812407,0.024381376985734785,55.65,11.4,94.8,-510.74219,144.53125,854.98047,-0.1192419416938038,0.1869233666251911,0.006661572689011957,52.65,26.55,38.25
-935.05859,204.58984,337.89062,0.23168914207666846,-0.1759984781723326,-0.01678710034445706,9.15,34.35,44.25,291.01562,76.17188,935.54687,0.05609034430304257,0.12870145170668787,0.0365053066347134,54.0,12.45,94.35,-520.01953,147.46094,847.65625,-0.12084066328863059,0.11990813386929003,0.011058231607710873,50.7,26.4,37.65
-919.43359,191.89453,321.77734,0.20117921595548077,-0.11711019654541792,-0.04463243229662499,7.65,32.85,45.6,266.60156,67.38281,937.01172,0.021583439661862675,0.13696174599052663,0.03557277721537283,54.0,12.45,94.35,-527.34375,131.83594,812.5,-0.04143498910697138,0.10831705324094529,0.012656953202537678,51.6,26.25,38.55
-911.13281,205.07812,325.68359,0.24274737368437935,-0.1398928519363259,0.05982081104625525,9.0,34.5,45.15,242.67578,52.24609,938.96484,0.04729702646564473,0.08566774100488968,0.030643269276040042,54.0,12.45,94.35,-531.25,130.37109,859.375,-0.0928621627145355,0.11471211415317771,0.023048992634762316,50.55,27.0,38.25
-910.15625,187.5,323.24219,0.23342120682634765,-0.14455584809887914,0.1103154552344788,7.95,34.5,44.1,247.07031,71.28906,944.82422,0.07101221127589329,0.04276719892501865,-0.021716608283789844,54.75,11.55,93.6,-545.41016,131.34766,813.96484,-0.09219597053904927,0.11098164740996504,-0.0005328490206338688,51.75,26.4,38.4
-889.64844,197.75391,316.40625,0.20917299846254003,-0.10618530809255941,0.05662319332367644,7.95,34.5,44.1,238.76953,63.96484,931.64062,0.07314395642427915,0.034107224242473186,0.0011990411961201044,55.5,13.5,93.3,-537.10937,123.04688,832.51953,-0.03530626543859329,0.06275191699205453,-0.030909606519894377,51.75,26.4,38.4
-881.83594,194.33594,305.17578,0.25154051698885194,-0.016920443499309427,0.059421130647548545,8.1,34.05,44.7,243.16406,71.28906,931.64062,0.06461715036366086,0.04916225983725108,-0.004529827540626083,54.0,12.75,92.85,-539.55078,136.71875,842.77344,-0.03970292435729221,0.01771980429672283,-0.03543943406052046,51.75,26.7,38.4
-886.71875,224.60937,302.73437,0.25247322094111774,-0.08020520951199782,0.08047172128877735,8.1,33.3,44.7,233.88672,101.5625,947.75391,0.010791719830931338,-0.004263315763846549,-0.010525208054151804,56.1,12.15,92.7,-560.54687,128.41797,830.07812,-0.034773416417959425,0.027712163330240767,-0.038903563559878805,51.75,26.7,38.4
-859.375,229.49219,289.55078,0.17080245845622027,0.023448673033469015,0.09419454706550798,7.35,33.6,44.7,241.21094,79.58984,950.68359,0.02411486520895525,0.005196019716112318,0.009992359033517936,56.1,12.9,94.2,-546.875,127.92969,850.58594,-0.010791719830931338,0.013989337553510148,-0.05502447172884963,51.15,26.25,37.5
-877.92969,232.42187,291.01562,0.1694700741052478,0.030909606519894377,0.024514545607661954,9.0,33.0,44.4,240.72266,51.26953,966.79687,-0.002131745148385874,-0.01625425132382319,-0.09139660974163587,54.75,12.45,94.05,-567.38281,118.16406,825.19531,0.03663864978956576,0.03210864771601448,-0.02931088492506757,51.45,27.15,38.1
-880.37109,246.09375,271.97266,0.14002602055825306,0.010924888452858507,0.10325420214676014,9.0,33.0,44.4,234.375,27.34375,966.79687,0.013855994398657782,-0.00746093348642536,-0.05688970510045597,54.75,12.45,94.05,-558.10547,128.41797,811.52344,0.01065855120900417,0.035173096816666125,-0.05275955795853659,51.6,25.8,37.2
-901.85547,240.72266,257.32422,0.14495552849758583,0.06994633870170035,0.07127872305267281,9.15,34.35,43.65,232.91016,38.08594,953.125,0.06208572481656829,-0.025047394628295826,-0.08153759386297028,54.9,12.6,94.8,-554.19922,126.95313,859.86328,-0.02558041818185489,0.019185357269622467,-0.010125527655445103,51.0,27.45,37.35
-934.57031,245.60547,237.30469,0.13722825776730616,0.09073041756614963,0.0656830229378538,7.05,32.85,45.0,234.375,42.48047,962.40234,0.052226708937902724,-0.05808874629657607,-0.06861412888365308,54.6,13.35,93.75,-569.33594,126.95313,807.12891,-0.005462531492891852,-0.009992359033517936,0.01025887081029747,51.0,27.45,37.35
-936.03516,236.81641,264.64844,0.18385909205746465,0.021050590641228807,0.08513471745133061,8.1,34.05,44.25,254.39453,47.85156,967.28516,0.027712163330240767,-0.0632847660126884,-0.05582383252626303,54.3,12.6,92.7,-565.42969,125.97656,848.63281,0.052626389336609423,-0.0017320647496791726,0.00839363743869113,50.7,26.7,38.1
-941.40625,235.35156,262.20703,0.13109953409892808,0.07127872305267281,0.014522186574144018,7.2,33.45,44.1,262.20703,47.85156,978.51562,0.029044373148288036,-0.07434299762039927,-0.06941348968106648,55.2,14.7,94.05,-566.89453,124.02344,824.70703,0.07127872305267281,-0.060487003221741484,0.03637213801278623,50.7,26.7,38.1
-978.02734,223.63281,251.95312,0.12577034576088858,0.03104294967474674,0.02091724748637644,7.2,33.45,44.1,256.34766,51.75781,971.67969,0.06368444641139509,-0.05609034430304257,-0.07314395642427915,54.45,13.2,93.6,-572.75391,147.46094,826.66016,0.10312103352483297,-0.09152977836356303,0.0005328490206338688,51.9,27.0,38.55
-993.16406,229.49219,259.27734,0.17546562915169872,-0.02145027103993551,0.03877022040502644,7.65,33.6,43.95,262.69531,72.75391,976.5625,0.1029876903699806,-0.07407648584361974,-0.09899088638291359,54.6,14.1,93.15,-579.58984,132.8125,830.07812,0.12390511238928224,-0.04476577545147736,0.03757117920890633,52.65,26.55,37.5
-983.39844,230.95703,263.67187,0.10671815711319327,-0.011457912006417574,-0.021583439661862675,7.5,34.5,44.1,246.58203,99.12109,975.58594,0.02984373394570144,-0.05822208945142844,-0.10858339048479962,54.6,14.1,93.15,-562.01172,166.50391,826.17187,0.13323127924731393,-0.08886518419454328,0.012390441425758144,52.05,26.4,37.65
-962.89062,226.07422,257.8125,0.1253706653621819,-0.04223434990438478,-0.06808110533009401,9.0,33.0,44.1,246.58203,90.33203,975.58594,0.035839288992152364,-0.08406884487713767,-0.0750091897958855,54.45,14.25,94.05,-575.68359,145.01953,822.26562,0.10405356294417353,-0.06861412888365308,0.014122506175437317,51.9,25.05,38.25
-964.84375,229.98047,269.04297,0.1163108357480045,-0.0644839817417337,-0.01771980429672283,8.4,33.6,44.7,234.86328,85.44922,995.11719,-0.009725847256738402,-0.08580090962681684,-0.06075351499852101,54.6,12.6,93.15,-571.28906,146.97266,829.58984,0.16094326804462952,-0.0644839817417337,0.02464771422958912,51.9,25.05,38.25
-973.14453,218.75,279.29687,0.047430369620497105,-0.03277483989150072,-0.020784078864449274,8.4,33.6,44.7,254.39453,62.98828,977.53906,0.03557277721537283,-0.10192181779578767,-0.1065849884912661,54.75,12.75,93.6,-573.24219,157.71484,833.49609,0.1525498051388636,-0.07394331722169258,0.009859190411590769,50.25,25.65,38.7
-978.02734,229.98047,267.57812,0.08220361150553133,-0.0571562168772355,-0.035173096816666125,8.4,31.8,45.0,258.78906,71.77734,979.98047,0.055290983505629165,-0.07074587403203896,-0.09046408032229529,55.2,13.5,93.3,-552.73437,161.62109,826.17187,0.16547327011818078,-0.10112245699837426,-0.005062851094185151,50.25,25.65,38.7
-971.67969,239.25781,281.73828,0.07754061534297808,-0.11750987694412462,0.021583439661862675,8.4,33.6,44.7,269.04297,92.77344,994.14062,0.04729702646564473,-0.05395859915465669,-0.14082538135566647,55.8,12.45,94.05,-563.47656,161.62109,819.33594,0.2023782571516009,-0.11271371215964421,0.0182526533173567,50.55,26.25,37.2
-952.63672,244.14062,270.50781,0.02424803383088242,-0.02224963183734891,-0.056356856079822104,9.15,34.05,44.7,250.0,98.14453,970.21484,0.09819135105257498,-0.10818371008609293,-0.1236386006125027,55.35,13.35,94.2,-553.71094,154.29687,807.61719,0.15921137782787553,-0.07487602117395832,0.0182526533173567,50.55,26.55,39.3
-933.59375,256.34766,292.48047,0.0041301471419193814,-0.08993105676873621,-0.06075351499852101,9.15,32.55,45.3,261.71875,104.49219,977.53906,0.031708967317307775,-0.09885754322806121,-0.10538594729514601,55.35,13.35,94.2,-549.80469,158.69141,833.49609,0.13882697936213295,-0.1103154552344788,0.013722825776730615,50.55,26.55,39.3
-947.26562,251.95312,297.36328,0.04676417744501087,-0.05728938549916267,-0.03304135166828025,9.15,32.55,45.3,276.36719,101.5625,955.56641,0.053292581512095656,-0.13323127924731393,-0.1029876903699806,54.9,11.85,93.75,-553.22266,171.38672,832.51953,0.1698697545039545,-0.07687442316749184,-0.034773416417959425,51.75,27.9,38.7
-953.125,253.90625,287.59766,0.009192998236104533,-0.07794029574168478,0.05062781281015071,7.35,34.8,45.3,247.55859,88.37891,950.19531,-0.009725847256738402,-0.05169368538434365,-0.10365388254546684,53.85,12.6,95.55,-537.59766,161.13281,835.9375,0.1726676918278266,-0.07993869773521828,-0.025980098580561592,50.85,27.75,39.0
-946.77734,257.32422,305.17578,-0.02931088492506757,-0.013189976756096747,-0.026912627999902163,7.5,34.5,43.35,271.48437,104.49219,958.49609,-0.018785676870915768,-0.11098164740996504,-0.10645181986933895,54.75,13.2,94.35,-537.10937,145.50781,860.83984,0.17519911737491917,-0.09339518626809457,-0.0186523337160634,52.35,25.5,39.0
-941.89453,275.87891,310.05859,0.007993957039984428,-0.11098164740996504,-0.03877022040502644,8.1,33.3,44.7,296.38672,62.98828,965.82031,-0.02424803383088242,-0.14175808530793224,-0.11084847878803786,54.75,13.2,94.35,-544.43359,156.73828,837.40234,0.19185304909744907,-0.12803525953120162,-0.03837054000631974,51.15,27.3,38.25
-943.84766,265.13672,320.80078,0.023448673033469015,-0.08766614299842318,-0.03277483989150072,7.95,34.5,44.1,299.31641,56.64063,999.02344,-0.005462531492891852,-0.07487602117395832,-0.11298004940349854,55.2,11.25,93.3,-550.78125,131.83594,856.93359,0.2133031456044594,-0.1248376418086228,-0.06115319539722772,51.15,27.3,38.25
-937.01172,264.16016,314.45312,-0.022915824012835147,0.00652840406708479,-0.09179629014034256,7.95,34.5,44.1,301.75781,63.47656,979.00391,-0.010525208054151804,-0.1057856276938527,-0.1552143993078833,52.95,12.45,92.55,-546.38672,128.41797,853.02734,0.20997235925995342,-0.10418690609902591,-0.05036147556629638,49.8,26.55,38.55
-929.19922,236.81641,314.45312,0.0019984019935335075,-0.05302606973531612,-0.09139660974163587,7.95,34.5,44.1,270.99609,50.29297,981.44531,-0.029044373148288036,-0.1248376418086228,-0.1224395594163826,52.95,12.45,92.55,-526.85547,114.74609,782.22656,0.2051760199425478,-0.12137368684218967,-0.019185357269622467,51.0,27.15,38.1
-952.63672,224.60937,313.47656,0.007860613885132062,-0.03797085960761303,-0.02238280045927608,8.25,34.2,44.1,288.57422,65.91797,961.91406,-0.015321547371557422,-0.12177336724089637,-0.1277687477544221,54.45,12.0,93.6,-539.0625,130.85937,854.49219,0.19824811000968148,-0.0831363154577971,-0.053292581512095656,52.05,27.15,38.4
-958.00781,219.23828,285.15625,-0.02224963183734891,0.007993957039984428,-0.10605213947063225,9.0,34.2,44.1,265.13672,45.41016,950.68359,-0.06261874837012736,-0.0811377389313384,-0.18345941165875795,55.35,11.85,93.15,-541.99219,161.62109,854.00391,0.17040277805751358,-0.09312867449131504,-0.07833997614039148,50.7,27.45,38.4
-962.40234,216.79687,293.94531,0.060087322823034785,-0.05835525807335561,-0.14149157353115271,7.5,33.0,43.35,266.60156,64.94141,955.56641,-0.00279793732387211,-0.08540122922811014,-0.19878095903031537,53.7,13.2,93.6,-546.38672,157.71484,841.30859,0.22436137721217028,-0.07034601910040704,-0.04916225983725108,51.15,27.0,37.2
-945.80078,231.93359,306.64062,0.055290983505629165,-0.0385038831611721,-0.11804290049768368,8.4,34.05,45.3,281.73828,59.57031,967.77344,-0.020650910242522108,-0.1111148160318922,-0.19225272949615577,53.7,13.2,93.6,-538.08594,156.25,856.44531,0.27978552933972656,-0.06661555235719438,-0.009725847256738402,49.95,27.15,37.65
-950.19531,211.91406,314.94141,0.02278248085798278,0.008260294283838763,-0.1460214010717788,8.4,34.05,45.3,275.87891,89.84375,979.98047,0.017453292519943295,-0.06781476808623968,-0.22556041840829036,54.3,12.9,93.6,-536.13281,161.62109,821.28906,0.22316233601605018,-0.08406884487713767,-0.010525208054151804,49.95,27.15,37.65
-945.3125,230.95703,303.71094,0.05475795995207009,-0.004263315763846549,-0.10591879631577987,9.45,33.6,45.6,282.22656,103.51563,986.81641,0.023448673033469015,-0.07674125454556469,-0.21756663590123115,53.55,12.9,93.75,-543.94531,196.28906,850.58594,0.2532725817385311,-0.11497862592995724,-0.06621587195848767,51.15,28.05,38.25
-960.44922,243.16406,301.26953,0.05169368538434365,-0.03464007326310706,-0.15028489136855053,7.65,32.55,44.7,293.45703,115.23438,953.125,0.006261892290305255,-0.07367680544491303,-0.18279321948327173,53.55,11.1,94.2,-538.57422,209.96094,873.04687,0.23408722446890867,-0.09672579807967534,-0.03304135166828025,50.7,26.7,37.05
-936.03516,241.69922,291.99219,-0.005995380513525721,-0.0486294108166172,-0.1513507639427435,7.95,32.7,44.85,309.08203,125.48828,984.86328,-0.0063950609122324234,-0.07087904265396612,-0.22529408116443603,53.55,11.1,94.2,-532.22656,211.42578,829.10156,0.20890666121868567,-0.02145027103993551,-0.13323127924731393,51.6,26.25,39.0
-910.64453,235.35156,297.36328,0.04436592051984546,-0.02424803383088242,-0.11604432397122498,7.65,32.85,46.05,305.17578,116.69922,996.09375,-0.007993957039984428,-0.05036147556629638,-0.19438430011161645,55.35,11.85,94.5,-531.25,244.14062,885.25391,0.21663393194896538,-0.047430369620497105,-0.09073041756614963,50.85,27.0,39.0
-937.98828,223.14453,291.50391,-0.00186523337160634,-0.023981696587028086,-0.04210100674953242,7.65,32.85,46.05,315.42969,151.85547,980.46875,-0.020784078864449274,-0.02051756708766974,-0.18172734690907877,54.0,12.45,93.6,-532.22656,238.28125,861.81641,0.18479179600973042,-0.010924888452858507,-0.11764322009897699,50.1,27.0,37.2
-958.49609,224.60937,305.66406,-0.04250068714823912,-0.0279785005740951,-0.10924958266028587,8.1,32.85,44.25,329.58984,159.17969,988.28125,-0.014389017952216851,-0.04290054207987102,-0.17240118005104707,54.9,12.15,93.75,-532.71484,256.34766,869.14062,0.1442895108550248,-0.03024341434440814,-0.10432007472095307,51.6,27.3,37.2
-958.98437,240.72266,296.38672,-0.05915461887076901,-0.04423275189791829,-0.13682840283567427,8.55,34.2,45.15,321.77734,148.4375,984.86328,-0.02518073778314819,-0.05982081104625525,-0.14109189313244602,54.9,12.15,93.75,-532.22656,251.95312,830.56641,0.14229093432856613,-0.04183466950567808,-0.13349761649116829,51.6,27.3,37.2
-962.89062,249.51172,300.78125,-0.07261110740364529,-0.13722825776730616,-0.03490658503988659,8.25,33.0,45.45,312.01172,159.66797,982.42187,-0.044099583275991124,-0.1013889687751538,-0.17426641342265342,54.3,13.65,93.15,-539.0625,260.74219,846.67969,0.194650811888396,-0.06421746996495417,-0.08606742140359638,49.95,27.45,39.45
-964.35547,232.42187,304.6875,-0.12297240843701647,-0.11604432397122498,-0.06621587195848767,8.25,33.0,45.45,307.12891,159.66797,959.47266,-0.09925722362676792,-0.06621587195848767,-0.15055122861240486,54.3,12.15,95.25,-527.83203,243.65234,884.76562,0.09952373540354745,-0.05649002470174927,-0.11218068860608514,49.95,27.45,39.45
-967.77344,222.65625,332.51953,-0.14508887165243822,-0.11950845347058334,-0.09539358826162808,8.25,33.0,45.45,289.0625,125.97656,956.54297,-0.10112245699837426,-0.0644839817417337,-0.08913169597132281,55.2,12.75,94.05,-501.95312,223.63281,826.66016,0.09819135105257498,-0.05382543053272952,-0.15614692872722388,51.6,27.75,37.5
-929.6875,212.89062,333.49609,-0.07780712711975761,-0.1698697545039545,-0.09086376072100198,7.5,33.75,46.95,326.17187,123.53516,963.37891,-0.1329647674705344,-0.07767378396490525,-0.05142717360756412,54.3,12.9,94.2,-517.57812,225.58594,872.55859,0.08193727426167699,-0.052626389336609423,-0.10538594729514601,52.65,27.0,39.0
-921.38672,201.66016,338.37891,-0.09139660974163587,-0.10978260621384492,-0.06368444641139509,9.15,32.55,45.3,315.91797,100.58594,972.16797,-0.15707963267948966,-0.05555749528240869,-0.11377941020091194,54.6,11.85,94.5,-517.57812,231.93359,862.30469,0.05955429926947571,-0.0579555776746489,-0.15161710118659782,52.05,27.0,39.0
-903.32031,198.73047,351.5625,-0.11870909267316991,-0.08153759386297028,-0.11990813386929003,8.55,33.75,44.1,323.24219,103.51563,966.79687,-0.14282395788212518,-0.058488601228207975,-0.09446088430936231,53.4,12.0,94.35,-502.44141,210.9375,816.40625,0.07034601910040704,-0.0190520141147701,-0.0831363154577971,52.05,26.4,38.7
-920.41016,198.24219,351.5625,-0.0283781809728018,-0.1107151356331855,-0.03570594583729999,8.55,33.75,44.1,320.3125,101.5625,947.75391,-0.18465845285487806,-0.0754088701945922,-0.08526806060618297,53.4,12.0,94.35,-504.39453,231.44531,837.40234,0.08193727426167699,-0.07927250555973205,-0.1077840296873862,51.15,27.0,39.6
-936.52344,187.01172,341.30859,-0.025980098580561592,-0.006661572689011957,-0.06901380928235978,8.55,33.75,44.1,339.84375,87.40234,943.35937,-0.2105053828135125,-0.07727410356619854,-0.09219597053904927,54.75,10.5,94.35,-505.85937,239.74609,846.19141,0.053292581512095656,-0.0025314255470925756,-0.06381778956624745,51.15,27.0,39.6
-922.36328,181.64062,342.28516,-0.04929560299210344,-0.045032112695331694,-0.08420218803199005,9.3,33.45,44.85,284.17969,68.35938,885.74219,-0.06861412888365308,-0.034373736019252726,-0.12656970655830196,55.8,12.45,92.85,-490.72266,236.32812,862.30469,0.06235223659334782,-0.01585457092511649,-0.07940584871458442,51.9,27.3,38.55
-915.52734,188.96484,328.61328,0.03916990080373314,-0.06888046612750741,-0.05129400498563695,8.25,32.7,45.15,282.22656,94.23828,936.03516,0.002398082392240209,-0.08140425070811792,-0.06941348968106648,54.6,10.65,94.5,-503.90625,239.25781,853.51562,-0.0011990411961201044,-0.031575798695380616,-0.060487003221741484,51.9,27.3,38.55
-930.66406,208.00781,328.61328,-0.07447634077525163,-0.06288508561398169,-0.07314395642427915,7.95,31.95,45.45,318.35937,113.76953,956.05469,-0.00186523337160634,-0.028644692749581334,-0.07913933693780488,54.75,11.25,94.35,-493.16406,242.67578,820.80078,-0.016920443499309427,-0.0031976177225788113,-0.10312103352483297,51.75,27.15,39.15
-935.54687,200.19531,322.26562,-0.03570594583729999,-0.01771980429672283,-0.05649002470174927,7.95,31.95,45.45,324.21875,105.95703,945.80078,-0.06022049144496195,-0.018918845492842937,-0.03863705178309927,53.85,11.1,94.5,-500.0,258.30078,905.76172,0.018785676870915768,-0.009725847256738402,-0.05422511093143622,51.6,27.75,39.0
-935.54687,193.84766,318.35937,-0.011857592405124276,-0.07820680751846432,-0.01065855120900417,9.0,31.2,45.9,320.3125,102.05078,951.17187,-0.06288508561398169,-0.002398082392240209,-0.0279785005740951,53.55,11.1,93.45,-507.32422,251.95312,901.36719,-0.12430479278798894,0.01958503766832917,-0.07594189374815126,51.0,26.7,38.1
-925.29297,217.28516,313.47656,-0.08273663505909039,-0.09392803528872844,-0.07061253087718658,7.05,32.85,45.3,352.53906,75.19531,977.53906,-0.04956194023595778,-0.06554985431592662,0.005196019716112318,53.55,11.1,93.45,-514.64844,196.77734,922.85156,-0.0069280844657914915,0.016653931722529894,0.012390441425758144,50.7,26.7,38.4
-886.71875,208.98437,317.38281,-0.11164783958545127,-0.13856046758535343,-0.04196783812760525,7.5,31.95,45.15,361.81641,73.73047,1025.39063,-0.0668820641339739,-0.06514999938429474,-0.03210864771601448,54.3,11.4,94.5,-513.67187,174.31641,922.85156,-0.0811377389313384,-0.060087322823034785,0.005728868736746187,50.7,26.7,38.4
-885.74219,207.03125,315.91797,-0.04223434990438478,-0.20490968269869347,-0.04396624012113876,7.35,32.85,47.1,356.44531,44.92188,1051.75781,-0.06928032105913931,-0.06914697790428695,-0.0458314734927451,53.4,12.0,93.6,-505.37109,82.03125,933.10547,-0.0579555776746489,0.01025887081029747,0.12710255557893585,51.6,27.3,39.0
-880.37109,232.91016,290.52734,-0.06062017184366865,-0.24288054230630649,-0.03743801058697916,7.35,32.85,47.1,364.25781,-4.88281,1038.08594,-0.11457894553125055,-0.013189976756096747,-0.06475031898558803,54.3,10.65,95.25,-493.16406,87.89063,992.1875,0.10818371008609293,-0.08326948407972427,-0.034107224242473186,51.6,27.3,39.0
-909.66797,259.27734,287.59766,-0.1337641282679478,-0.2165007633270382,-0.09845786282935451,9.15,32.85,45.6,375.97656,-52.73438,1002.92969,-0.02704597115475453,0.031309286918601076,-0.11804290049768368,53.7,11.25,93.3,-508.30078,93.75,896.97266,0.1017886491738605,0.015588059148336955,-0.07434299762039927,51.15,27.3,39.3
