IMU1_AccX,IMU1_AccY,IMU1_AccZ,IMU1_GyrX,IMU1_GyrY,IMU1_GyrZ,IMU1_MagX,IMU1_MagY,IMU1_MagZ,IMU2_AccX,IMU2_AccY,IMU2_AccZ,IMU2_GyrX,IMU2_GyrY,IMU2_GyrZ,IMU2_MagX,IMU2_MagY,IMU2_MagZ,IMU3_AccX,IMU3_AccY,IMU3_AccZ,IMU3_GyrX,IMU3_GyrY,IMU3_GyrZ,IMU3_MagX,IMU3_MagY,IMU3_MagZ
-964.35547,12.20703,-103.51563,-0.05982081104625525,-0.29710565323774274,0.009992359033517936,1.8,22.35,29.1,311.03516,-118.16406,937.98828,-0.12390511238928224,0.08020520951199782,0.09419454706550798,53.85,3.9,94.2,-599.12109,-117.1875,826.66016,-0.05649002470174927,0.06355127778946792,-0.00839363743869113,52.65,21.75,41.1
-965.33203,12.20703,-91.30859,-0.0567565364785288,-0.29310867471775054,-0.04476577545147736,2.25,21.9,28.8,292.96875,-87.40234,953.61328,-0.08207044288360416,0.11750987694412462,0.08180393110682463,53.85,3.9,94.2,-604.49219,-102.05078,827.63672,-0.014655355196071187,0.06381778956624745,0.04156815772889855,52.65,21.75,41.1
-951.66016,-0.97656,-85.44922,-0.0754088701945922,-0.24314705408308604,-0.13842729896342626,2.25,21.9,28.8,270.01953,-53.22266,946.28906,-0.13722825776730616,0.034373736019252726,0.059421130647548545,53.85,3.45,94.8,-604.98047,-89.35547,849.60937,0.009059655081252166,0.010791719830931338,-0.001065872574192937,52.05,20.55,40.5
-935.54687,-1.95312,-72.75391,-0.07873965653909817,-0.18172734690907877,-0.14149157353115271,2.55,23.1,30.15,282.22656,-46.38672,932.12891,-0.12643636340344963,-0.0058622118915985545,0.10418690609902591,53.85,3.9,94.5,-595.21484,-61.03516,814.94141,-0.05102749320885741,-0.005995380513525721,0.03224199087086685,53.25,20.55,41.55
-925.78125,-16.11328,-67.87109,-0.05369226191080236,-0.15468155028724945,-0.17839656056457281,2.55,23.1,29.4,282.71484,-65.91797,929.19922,-0.10232167272741956,-0.005995380513525721,0.07101221127589329,54.9,4.95,95.25,-581.54297,-64.45313,821.28906,-0.1033873707686873,-0.05808874629657607,0.03290818304635308,53.25,20.55,41.55
-929.6875,-16.11328,-60.05859,-0.010525208054151804,-0.1077840296873862,-0.18106132926651775,3.0,24.15,29.1,323.73047,-146.97266,930.17578,-0.01771980429672283,0.014788698350923554,0.03224199087086685,54.9,4.95,95.25,-573.24219,-83.98438,828.61328,-0.0932618431132422,-0.04796321864113097,-0.04156815772889855,51.15,19.2,41.7
-954.10156,-45.89844,-67.38281,0.03543943406052046,-0.11617766712607734,-0.15468155028724945,2.4,22.5,28.95,331.05469,-166.99219,927.73437,0.04476577545147736,-0.02145027103993551,-0.011724423783197109,54.3,3.9,95.25,-564.94141,-112.79297,840.33203,-0.09979024718032699,-0.0656830229378538,0.015987739547043658,51.15,20.25,41.4
-960.9375,-65.91797,-71.28906,0.019185357269622467,-0.06621587195848767,-0.11671051614671123,2.4,22.5,28.95,318.84766,-121.58203,917.48047,0.1540153581117632,0.03264167126957355,-0.027712163330240767,53.7,3.75,93.6,-558.59375,-145.01953,839.35547,-0.06275191699205453,-0.03916990080373314,-0.03344103206698695,51.9,19.2,41.4
-944.33594,-57.61719,-60.54688,0.025846929958634426,-0.06754825630946014,-0.1698697545039545,2.4,22.95,29.55,312.01172,-83.00781,919.43359,0.16587295051688747,-0.04196783812760525,-0.012923464979317213,53.7,3.75,93.6,-571.28906,-131.34766,809.08203,0.015055210127703087,0.04036911653277844,0.021849951438642212,51.6,20.25,42.45
-963.37891,-57.12891,-72.75391,0.10884990226157916,-0.09259565093775597,-0.08286980368101757,2.25,21.15,29.85,326.17187,-36.13281,929.6875,0.12110717506541013,0.017053612121236593,-0.05502447172884963,54.6,4.2,93.75,-557.61719,-115.23438,818.84766,0.026912627999902163,0.002664594169019743,0.01252378458061051,51.6,20.25,42.45
-964.35547,-48.33984,-82.03125,0.12976714974795558,-0.06208572481656829,-0.01958503766832917,4.05,21.6,28.05,296.38672,-20.50781,937.01172,0.06861412888365308,-0.023582016188321384,-0.03916990080373314,53.85,4.2,95.25,-566.40625,-96.19141,785.15625,0.052226708937902724,-0.00186523337160634,-0.028644692749581334,51.45,19.8,40.5
-972.65625,-18.55469,-97.16797,0.053558918755949994,0.007860613885132062,-0.02464771422958912,3.0,23.1,28.8,290.03906,2.92969,949.21875,0.06355127778946792,-0.06301842876883405,-0.04476577545147736,54.75,4.05,95.1,-588.86719,-87.89063,788.57422,0.017852972918649995,0.024381376985734785,-0.008926486459324997,51.45,19.8,40.5
-973.14453,-24.90234,-115.23438,0.07794029574168478,-0.05555749528240869,0.06541651116107426,3.0,23.1,28.8,269.53125,-13.67187,940.91797,0.05449162270821576,-0.07527570157266503,-0.035839288992152364,54.75,4.05,95.1,-608.39844,-94.72656,792.48047,0.07034601910040704,-0.07034601910040704,0.017586461141870464,51.75,19.35,41.55
-1007.32422,5.85937,-135.25391,0.07634157414685798,-0.014389017952216851,0.07527570157266503,4.2,23.7,29.25,277.34375,-14.64844,954.10156,0.04423275189791829,-0.02891120452636087,-0.0069280844657914915,54.45,4.8,94.65,-622.07031,-76.66016,814.94141,0.006261892290305255,-0.07420982899847209,-0.02518073778314819,51.0,20.85,40.95
-1034.17969,19.53125,-148.92578,0.014655355196071187,-0.00279793732387211,0.04796321864113097,3.15,22.2,29.55,280.27344,-57.61719,986.81641,0.03450690464117989,-0.02278248085798278,-0.06368444641139509,56.55,3.75,94.65,-631.83594,-64.45313,833.98437,-0.0011990411961201044,-0.06461715036366086,-0.02851152412765417,51.15,21.0,41.4
-1041.99219,22.94922,-138.67187,0.021316927885083145,0.015987739547043658,0.04929560299210344,3.45,22.95,28.95,281.25,-68.84766,984.86328,0.035839288992152364,-0.03490658503988659,-0.031575798695380616,54.75,4.05,95.1,-632.32422,-82.03125,853.51562,0.011724423783197109,-0.10272135312612628,-0.04836289903983767,52.65,20.7,41.7
-1015.13672,16.60156,-134.76562,0.008260294283838763,-0.07301078780235198,0.06954665830299364,3.15,21.75,30.3,276.36719,-83.00781,982.91016,0.01678710034445706,-0.0009327039522657697,-0.0458314734927451,53.55,3.9,95.55,-632.32422,-71.28906,827.63672,0.08020520951199782,-0.114312433754471,-0.05995397966818241,52.8,20.85,42.6
-1000.97656,14.16016,-125.97656,0.021583439661862675,-0.04489894407340452,0.019718206290256335,3.15,21.75,30.3,291.01562,-75.19531,1004.39453,0.04689734606693803,-0.023582016188321384,-0.12643636340344963,53.1,3.15,93.75,-635.74219,-79.58984,853.51562,0.04463243229662499,-0.08180393110682463,-0.031708967317307775,51.9,19.95,41.7
-990.23437,-2.92969,-110.35156,-0.05702304825530834,0.013989337553510148,0.005329188338039486,2.7,21.75,28.5,282.71484,-76.66016,1000.97656,0.05702304825530834,-0.047430369620497105,-0.11897542991702426,54.6,4.65,94.5,-651.36719,-94.23828,852.05078,0.028111843728947466,-0.0458314734927451,-0.015188378749630253,51.9,19.95,41.7
-1007.32422,-18.06641,-115.23438,0.05049464418822355,-0.00186523337160634,0.009859190411590769,3.0,22.65,29.1,278.32031,-66.89453,1007.8125,0.05475795995207009,-0.0648836621404404,-0.13030017330151467,54.6,4.65,94.5,-619.62891,-101.07422,844.23828,0.09832469420742734,-0.08193727426167699,-0.004796339317405617,51.45,20.55,42.3
-990.23437,-1.46484,-118.65234,0.030643269276040042,-0.045032112695331694,-0.05116083636370978,3.45,21.45,27.45,279.78516,-51.26953,1000.97656,0.09765850203194111,-0.045032112695331694,-0.09885754322806121,54.45,3.75,94.35,-632.32422,-117.1875,838.37891,0.09739199025516157,-0.07181157207330668,0.021716608283789844,51.45,20.55,42.3
-999.51172,-27.83203,-121.09375,0.0182526533173567,0.014655355196071187,-0.05475795995207009,3.3,22.65,30.15,284.66797,-48.82813,991.21094,0.09779167065386828,-0.08620059002552354,-0.13309793609246157,55.5,4.05,95.1,-589.35547,-98.14453,821.28906,0.14975186781499147,-0.11324656118027807,0.02051756708766974,52.95,19.2,42.15
-1029.78516,-16.11328,-138.18359,0.05475795995207009,-0.0035972981212855125,-0.04463243229662499,3.3,22.65,30.15,322.26562,-41.01563,972.65625,0.05742272865401504,-0.11671051614671123,-0.1325650870718277,54.0,3.0,94.05,-577.14844,-84.96094,831.54297,0.14042570095695978,-0.1276355791324949,0.013189976756096747,53.4,20.7,42.15
-1052.73438,-37.59766,-138.18359,0.07314395642427915,-0.0385038831611721,-0.013456313999951081,4.05,21.15,29.4,316.89453,-44.92188,964.35547,0.08513471745133061,-0.04996179516758968,-0.10152213739708096,54.0,3.0,94.05,-562.98828,-88.86719,855.46875,0.12923430072732173,-0.114312433754471,0.0093261668580317,52.05,19.05,42.3
-1046.875,-46.38672,-118.65234,0.0722112524720134,-0.04809656179598333,-0.05116083636370978,3.45,21.75,29.55,335.9375,-51.26953,979.00391,0.05782240905272174,-0.02331550441154185,-0.12830177130798115,53.85,3.45,95.25,-562.5,-90.82031,840.82031,0.09019756854551575,-0.10831705324094529,0.017053612121236593,51.75,19.35,41.55
-1024.41406,-30.76172,-97.16797,0.09885754322806121,-0.055690663904335864,-0.05076115596500308,2.25,22.35,29.1,324.70703,-46.38672,960.44922,0.08593407824874401,0.0279785005740951,-0.08193727426167699,54.45,5.55,95.25,-574.70703,-89.84375,828.125,0.11084847878803786,-0.06501683076236757,-0.026912627999902163,52.5,20.55,41.25
-1030.76172,-31.73828,-94.23828,0.09659262945774817,-0.06781476808623968,-0.037171498810199634,2.25,22.35,29.1,352.53906,-69.82422,974.60937,0.09019756854551575,-0.03677181841149293,-0.12377176923442987,54.45,5.55,93.6,-565.91797,-92.28516,844.72656,0.12577034576088858,-0.05129400498563695,0.0025314255470925756,51.45,20.1,42.3
-1053.22266,-2.44141,-71.77734,0.09033073716744291,-0.026912627999902163,-0.03224199087086685,2.25,22.35,29.1,340.82031,-40.03906,973.14453,0.08446852527584436,-0.010525208054151804,-0.1540153581117632,54.45,5.55,93.6,-564.45312,-110.35156,846.19141,0.17906275274005903,-0.05489130310692246,-0.022516143614128445,51.45,20.1,42.3
-1034.17969,15.13672,-67.38281,0.07740727218812571,-0.07580855059329891,0.01678710034445706,2.25,22.35,29.1,330.56641,-28.32031,957.03125,0.08047172128877735,-0.0567565364785288,-0.15588059148336955,54.75,4.8,95.1,-570.3125,-95.70313,863.28125,0.2407487971579206,-0.06395095818817463,-0.03823737138439257,51.45,20.1,42.3
-1031.25,-21.48438,-53.22266,0.05062781281015071,-0.05928796202562137,0.030909606519894377,2.4,21.75,29.25,363.28125,-52.73438,965.33203,0.08247012328231085,-0.0470306892217904,-0.16573960736203514,55.2,3.3,95.4,-570.80078,-79.10156,878.41797,0.18266005086134454,-0.09832469420742734,-0.02198312006056938,52.65,20.25,42.15
-1014.16016,-25.39063,-48.33984,0.01625425132382319,0.009459335479958867,0.002398082392240209,3.3,23.1,29.4,345.21484,-21.48438,977.05078,0.12950081250410125,-0.06075351499852101,-0.14682076186919218,55.5,4.8,93.3,-564.94141,-90.33203,826.66016,0.21876567709735123,-0.045698304870817934,-0.023048992634762316,52.65,20.25,42.15
-1024.90234,-26.36719,-53.71094,0.06208572481656829,0.04276719892501865,0.04076879693148514,1.8,21.9,29.1,338.86719,-0.97656,968.75,0.04676417744501087,-0.05515781488370199,-0.16640579953752135,55.5,4.8,93.3,-572.75391,-70.3125,843.26172,0.21303680836060507,-0.02931088492506757,-0.02091724748637644,51.15,20.7,42.15
-1055.66406,-16.60156,-49.31641,0.05449162270821576,0.0839356762552105,0.01119140022963804,1.8,21.9,29.1,347.16797,-5.37109,967.28516,0.002664594169019743,-0.02224963183734891,-0.08926486459324998,53.85,3.9,94.8,-573.73047,-52.73438,855.95703,0.24208118150889307,-0.005728868736746187,-0.0936615235119489,51.45,20.55,42.6
-1068.35938,4.39453,-42.96875,0.05742272865401504,0.0652833425391471,0.04343339110050489,2.55,22.35,29.85,344.23828,-20.99609,955.07812,-0.013989337553510148,-0.07341046820105869,-0.14269061472727282,54.6,3.45,95.25,-562.5,-57.61719,853.02734,0.2547381347114308,-0.04183466950567808,-0.07434299762039927,51.75,19.8,41.25
-1043.45703,8.30078,-43.94531,-0.058488601228207975,0.13083302232214852,-0.003996978519992214,3.3,22.65,29.4,365.23437,-26.85547,987.30469,-0.0190520141147701,-0.005995380513525721,-0.1033873707686873,53.85,4.65,94.5,-551.75781,-35.15625,879.88281,0.1950504922871027,0.013456313999951081,-0.09752533341001395,53.25,20.85,43.05
-1001.95312,11.71875,-37.59766,-0.006794741310939124,0.13629555381504038,0.07674125454556469,3.45,21.45,29.25,333.00781,-21.97266,982.42187,-0.01252378458061051,-0.03677181841149293,-0.12390511238928224,53.4,3.75,92.85,-547.85156,-53.22266,858.88672,0.1325650870718277,-0.012656953202537678,-0.14402299907824528,51.75,19.8,42.0
-979.00391,5.85937,-36.13281,-0.02651294760119546,0.16773818388849382,0.06554985431592662,4.95,22.95,29.25,333.00781,-41.99219,979.98047,-0.02238280045927608,-0.059421130647548545,-0.13123270272085524,53.1,5.4,96.0,-554.6875,-57.12891,860.35156,0.18479179600973042,-0.005062851094185151,-0.11018228661255162,51.6,20.7,41.7
-1007.32422,2.92969,-47.36328,-0.09192963329519492,0.3040337377035342,0.014122506175437317,4.95,22.95,29.25,351.5625,-54.6875,965.33203,0.07047936225525941,-0.060087322823034785,-0.14269061472727282,53.4,3.75,94.35,-557.12891,-64.94141,880.85937,0.21383616915801848,0.007194421709645826,-0.09099692934292915,51.6,20.7,41.7
-1018.06641,18.06641,-58.10547,-0.03357420068891412,0.24474577567791284,0.04170132635082572,3.3,20.55,27.3,345.21484,-64.45313,960.9375,0.009592678634811233,-0.05928796202562137,-0.20211174537482135,53.4,3.75,94.35,-548.33984,-81.05469,864.25781,0.20970602201609906,0.011457912006417574,-0.10711783751189999,49.95,20.1,41.55
-1022.46094,-1.46484,-42.96875,-0.0093261668580317,0.2596676426507636,0.03797085960761303,3.0,23.1,28.35,359.375,-59.57031,967.28516,-0.0025314255470925756,0.011990761027051442,-0.20690808469222696,52.95,4.5,94.05,-554.19922,-70.3125,874.51172,0.3043000749473886,0.023048992634762316,-0.07101221127589329,49.95,20.1,41.55
-1011.23047,0.97656,-68.35938,-0.09605978043711431,0.33161255787892263,0.06301842876883405,2.4,21.0,28.5,358.39844,-63.47656,959.96094,0.1021883295725672,-0.003463954966433146,-0.21117157498899872,54.45,3.75,95.4,-553.71094,-76.17188,874.02344,0.29603978066354975,0.04236751852631195,-0.08486838020747627,51.9,19.95,42.45
-990.23437,-9.76562,-89.84375,-0.04156815772889855,0.2760550625965139,0.08273663505909039,2.7,23.25,28.5,361.81641,-54.6875,957.03125,0.09512707648484854,-0.08007204089007065,-0.23635213823922172,53.55,3.15,94.8,-555.17578,-91.30859,834.47266,0.39356511407356376,0.04423275189791829,-0.0571562168772355,52.95,21.0,41.7
-990.72266,-24.41406,-79.10156,0.011724423783197109,0.20131238457740794,0.061819213039788753,2.7,23.25,28.5,350.09766,-60.05859,937.98828,0.07740727218812571,-0.12656970655830196,-0.2615328760223699,53.55,3.15,94.8,-555.17578,-83.00781,861.81641,0.4351332718024623,0.05462479133014293,-0.05982081104625525,50.85,20.25,42.75
-969.23828,-26.85547,-106.93359,-0.012656953202537678,0.3041669063254614,0.02704597115475453,2.1,22.2,29.55,354.98047,-69.33594,944.33594,0.09992341580225415,-0.11950845347058334,-0.28911187073068345,53.55,4.95,94.5,-536.62109,-64.45313,872.55859,0.47710110993006755,-0.021716608283789844,-0.05808874629657607,51.75,20.85,42.0
-955.56641,-27.83203,-108.39844,0.07940584871458442,0.24181466973211357,0.09392803528872844,2.25,23.1,29.4,359.86328,-65.91797,956.05469,0.10458658649773261,-0.12883462032861503,-0.30110263175773494,54.9,4.95,95.25,-517.08984,-26.85547,885.25391,0.5383874739492224,-0.01358965715480345,-0.09033073716744291,50.7,21.15,40.5
-968.26172,-16.11328,-96.19141,-0.00039968039870670147,0.23049010088054836,0.1281684281531288,2.1,23.7,28.95,352.53906,-40.03906,943.84766,0.15308265415949743,-0.0972588216332344,-0.29084376094743747,54.9,4.95,95.25,-499.02344,4.39453,885.25391,0.505878971301576,-0.0046631706954784495,-0.060487003221741484,51.9,22.2,41.4
-968.26172,-22.46094,-117.67578,-0.007061253087718659,0.20903982984061284,0.04489894407340452,1.65,22.95,28.2,373.53516,8.30078,943.35937,0.1313660458757076,-0.02984373394570144,-0.2949739080893568,54.75,4.05,94.05,-516.60156,41.50391,863.28125,0.5098759498215683,0.01119140022963804,-0.0462311538914518,51.9,22.2,41.4
-987.79297,-25.39063,-127.92969,0.07740727218812571,0.14868599524079854,0.162275652395602,1.65,22.95,28.2,344.72656,76.17188,916.01562,0.21143791223285305,-0.03797085960761303,-0.28031855289328567,54.0,4.05,94.05,-537.59766,84.96094,833.49609,0.5012159751390227,0.021716608283789844,-0.06315159739076123,52.8,19.8,40.5
-986.81641,11.23047,-132.32422,0.11737670832219745,0.13043334192344183,0.15628027188207627,3.15,23.7,28.2,327.63672,166.01562,933.10547,0.12470447318669564,-0.04250068714823912,-0.2368851617927808,54.75,4.8,94.35,-549.31641,92.77344,838.37891,0.4062220672761014,0.017852972918649995,-0.12670287518022916,52.8,19.8,40.5
-977.05078,57.61719,-144.04297,0.047696706864351436,0.194650811888396,0.053292581512095656,2.1,22.5,27.9,312.01172,205.56641,942.38281,0.07740727218812571,-0.05169368538434365,-0.1462879128485583,54.75,4.8,94.35,-573.24219,113.28125,851.07422,0.29937056700805575,0.031708967317307775,-0.16760484073364146,51.9,19.5,41.1
-985.35156,99.12109,-148.92578,0.05422511093143622,0.04356655972243205,0.02411486520895525,2.55,22.65,28.05,313.47656,210.44922,965.82031,-0.14801997759823748,-0.0722112524720134,-0.06275191699205453,54.0,3.75,93.3,-561.03516,127.92969,858.39844,0.1819938586858583,-0.010525208054151804,-0.15588059148336955,51.9,21.45,40.35
-982.42187,97.16797,-131.34766,-0.035173096816666125,0.06741508768753297,-0.023582016188321384,3.3,23.1,27.3,333.98437,102.53906,969.72656,-0.2671285761371889,-0.07167840345137952,0.06115319539722772,54.3,3.9,94.5,-557.12891,91.79688,868.65234,0.04103530870826468,-0.03024341434440814,-0.1716018192536337,52.5,21.9,40.35
-980.95703,66.89453,-130.37109,-0.09379486666680127,0.09419454706550798,-0.12510415358540233,3.3,23.1,27.3,328.125,-10.74219,944.33594,-0.3422711090879268,-0.12910113210539456,0.04596481664759746,54.75,4.05,94.65,-585.44922,50.78125,875.48828,-0.05275955795853659,-0.0093261668580317,-0.19371828246905543,51.75,20.1,40.95
-969.23828,48.33984,-120.11719,-0.06381778956624745,0.05982081104625525,-0.14535520889629253,2.4,22.5,27.45,352.53906,-96.19141,938.47656,-0.24980862677209797,-0.12750223597764257,0.02891120452636087,54.6,4.65,93.75,-583.00781,-18.55469,877.44141,-0.13616238519311322,-0.007327764864498192,-0.1974487492122681,51.75,20.1,41.55
-976.07422,35.64453,-113.76953,-0.03464007326310706,0.024381376985734785,-0.1548147189091766,2.25,23.4,28.05,347.65625,-125.0,965.82031,-0.1131133925583509,-0.09392803528872844,-0.06941348968106648,54.45,2.25,94.05,-588.37891,-80.07813,892.08984,-0.077007591789419,-0.005196019716112318,-0.18226037046263785,52.65,19.5,41.7
-972.65625,19.53125,-135.74219,-0.1513507639427435,0.06341810916754076,-0.22489440076572934,2.55,21.9,28.05,348.14453,-104.49219,967.77344,-0.026912627999902163,-0.11684385930156357,-0.03677181841149293,53.7,4.5,93.6,-579.10156,-116.21094,905.27344,-0.020251229843815406,0.006661572689011957,-0.10911641403835869,50.85,20.7,40.65
-971.67969,-8.30078,-142.08984,-0.09033073716744291,0.04676417744501087,-0.25234005231919054,0.75,22.35,28.8,369.62891,-85.9375,969.23828,-0.003996978519992214,-0.15921137782787553,-0.10978260621384492,53.7,4.5,93.6,-567.87109,-104.49219,860.83984,0.12377176923442987,-0.020251229843815406,-0.1013889687751538,50.85,20.7,40.65
-996.58203,-25.87891,-138.67187,-0.05835525807335561,0.017453292519943295,-0.192918921671642,0.75,22.35,28.8,365.23437,-47.36328,973.14453,-0.01625425132382319,-0.16440739754398787,-0.10018992757903368,54.6,3.45,95.25,-541.50391,-64.45313,852.53906,0.27672125477200016,-0.05102749320885741,-0.10232167272741956,51.45,21.15,40.5
-1020.50781,-34.66797,-140.13672,-0.077007591789419,0.0559571756811154,-0.22462788898894978,1.5,22.35,28.05,365.72266,-5.37109,937.01172,-0.023048992634762316,-0.14295712650405235,-0.08899852734939565,53.1,4.95,93.75,-511.71875,-32.22656,845.70312,0.31802290072411915,-0.05382543053272952,-0.006128723668378088,51.45,21.15,40.5
-1032.71484,-29.78516,-122.07031,-0.10112245699837426,0.02944405354699474,-0.23621896961729455,1.8,21.15,28.35,364.74609,18.55469,925.78125,-0.04516545585018406,-0.1446891912537315,-0.11018228661255162,54.3,4.65,94.2,-476.07422,12.69531,818.84766,0.3509310837704723,0.0017320647496791726,-0.053292581512095656,51.75,20.1,40.5
-1021.97266,-27.83203,-103.02734,0.010525208054151804,-0.040901965553412314,-0.267661599690748,1.2,22.35,28.8,360.35156,37.59766,907.22656,-0.03357420068891412,-0.19545017268580941,-0.04316687932372535,54.3,4.65,94.2,-482.42187,56.64063,828.61328,0.297771845413229,0.007993957039984428,-0.1033873707686873,51.75,21.6,41.55
-1000.0,-40.03906,-78.61328,-0.020650910242522108,-0.007727445263204894,-0.2900444001500241,3.6,23.1,28.05,383.30078,55.66406,861.32812,-0.10698466888997281,-0.06594953471463334,-0.0684807857288007,53.1,3.9,94.5,-461.91406,96.67969,781.73828,0.2542052856907969,0.059421130647548545,-0.14175808530793224,52.5,20.55,40.95
-1008.78906,-28.80859,-56.64063,-0.04436592051984546,-0.0058622118915985545,-0.24674417767144632,3.6,23.1,28.05,362.30469,35.64453,843.26172,-0.08646710180230308,-0.14295712650405235,0.021316927885083145,52.2,4.8,94.35,-469.23828,125.97656,777.34375,0.1593445464498027,0.05515781488370199,-0.08380250763328333,53.25,20.1,40.2
-960.9375,-39.0625,-65.91797,-0.015188378749630253,-0.0377045223637587,-0.1666723113143009,2.4,21.75,27.45,368.16406,20.01953,864.74609,-0.06874729750558024,-0.03264167126957355,-0.01025887081029747,53.85,4.2,95.55,-501.95312,92.28516,805.66406,-0.023715184810248553,0.04276719892501865,-0.16933690548332064,52.35,21.45,41.7
-953.125,-28.32031,-52.24609,-0.0283781809728018,0.034373736019252726,-0.16653896815944855,1.8,20.85,26.25,372.55859,16.60156,866.21094,0.01851916509413623,0.04809656179598333,0.05129400498563695,53.85,4.2,95.55,-527.34375,62.01172,778.80859,-0.077007591789419,0.0486294108166172,-0.1763981585710393,52.35,22.2,40.65
-952.14844,-24.41406,-41.50391,-0.023981696587028086,0.07727410356619854,-0.1358958734163337,2.1,23.25,28.2,366.69922,16.60156,916.99219,0.0186523337160634,0.0058622118915985545,0.00559570011481902,54.3,2.7,94.8,-560.54687,42.96875,800.78125,-0.04796321864113097,0.10418690609902591,-0.15041805999047772,52.35,22.2,40.65
-927.73437,-11.71875,-62.98828,-0.10392039432224637,0.21303680836060507,-0.12457113003184328,0.75,22.65,28.8,341.30859,-1.95312,919.43359,-0.0015987215948268059,0.020784078864449274,0.03797085960761303,54.45,3.3,95.1,-590.82031,7.8125,837.40234,-0.12390511238928224,0.06514999938429474,-0.1881225823542364,51.75,21.6,41.25
-946.77734,-19.04297,-78.61328,-0.0648836621404404,0.1893216235503565,-0.018785676870915768,0.75,22.65,28.8,323.73047,-13.67187,978.51562,-0.06301842876883405,-0.018385996472209065,0.025846929958634426,52.05,3.15,95.55,-610.83984,-16.60156,832.51953,-0.06741508768753297,-0.04103530870826468,-0.0920628019171221,51.75,21.6,41.25
-937.5,-30.27344,-103.02734,-0.08260329190423803,0.22769216355667624,-0.01625425132382319,0.75,22.65,28.8,316.89453,-12.20703,974.60937,-0.01025887081029747,-0.07980552911329111,0.05489130310692246,52.05,3.15,95.55,-625.0,4.39453,839.35547,-0.07940584871458442,0.0369049870334201,-0.09033073716744291,52.5,21.6,40.95
-943.35937,-32.22656,-122.55859,-0.10831705324094529,0.34879933862208634,-0.10565245907192554,2.1,22.5,27.45,314.94141,-34.66797,980.95703,-0.12190653586282353,-0.10085611975451993,0.03797085960761303,53.85,3.45,94.8,-634.27734,-5.37109,845.70312,-0.03743801058697916,-0.021050590641228807,-0.033973881087620825,51.6,21.45,40.65
-975.09766,-46.38672,-164.55078,-0.0762082309920056,0.31908877329831214,-0.012257272803830977,1.35,22.2,27.45,303.71094,-37.10938,972.16797,-0.09739199025516157,-0.04676417744501087,0.014788698350923554,52.65,4.05,94.65,-611.81641,-36.62109,821.28906,0.0381042027624654,-0.01811948469542953,-0.06248540521527499,51.9,22.2,41.7
-1007.8125,-17.08984,-179.6875,-0.08939820774810235,0.314558945757686,0.00186523337160634,0.6,22.5,27.15,283.69141,-63.96484,965.33203,-0.07567538197137175,-0.10365388254546684,-0.0279785005740951,52.65,4.05,94.65,-628.90625,22.94922,844.23828,-0.03983609297921937,0.0182526533173567,-0.025980098580561592,51.9,20.7,40.65
-1092.28516,-42.48047,-195.3125,-0.1341638086666545,0.35812550548011807,-0.030509926121187674,0.6,22.5,27.15,320.3125,-52.73438,964.84375,-0.020650910242522108,-0.09099692934292915,-0.014788698350923554,53.4,3.3,94.65,-611.81641,29.78516,835.44922,-0.06101985224237535,0.024781057384441488,-0.09659262945774817,51.9,19.5,42.15
-1059.57031,-41.99219,-228.02734,-0.10765086106545904,0.23608580099536736,0.055690663904335864,0.6,22.5,27.15,331.54297,-37.10938,946.28906,0.007727445263204894,-0.039569755735365045,-0.0291777163031404,52.65,1.5,94.65,-588.37891,34.66797,796.38672,-0.07034601910040704,-0.02331550441154185,-0.06022049144496195,52.35,20.7,42.15
-1028.80859,-40.52734,-244.62891,-0.10978260621384492,0.25207354054241105,0.011457912006417574,1.35,21.45,26.85,314.94141,-26.85547,947.26562,0.047696706864351436,0.008793317837397832,0.03330786344505979,54.0,2.55,94.35,-590.82031,43.45703,826.17187,-0.12683621833508152,0.00013316862192716734,-0.027179139776681696,52.35,20.7,42.15
-1016.60156,-55.17578,-216.79687,-0.09819135105257498,0.2921761452984099,-0.08127108208619076,1.5,22.35,27.3,338.86719,-12.69531,948.24219,0.014522186574144018,-0.0014655529728996386,-0.014255674797364485,54.0,2.55,94.35,-587.89062,39.0625,809.57031,-0.17373356440201956,-0.02984373394570144,-0.03543943406052046,51.15,19.95,41.4
-1015.13672,-37.59766,-204.58984,-0.1021883295725672,0.2792526803190927,-0.04250068714823912,1.8,23.85,25.2,321.28906,-11.23047,944.33594,0.04436592051984546,0.07274427602557246,0.025846929958634426,52.2,3.3,95.1,-584.96094,20.50781,826.66016,-0.2379510343669737,-0.01358965715480345,-0.05302606973531612,51.75,20.55,41.55
-1004.88281,-55.17578,-197.75391,-0.06674889551204674,0.20650840429352027,-0.030643269276040042,1.8,23.85,25.2,334.47266,-6.34766,939.45312,0.08859884695068895,0.03330786344505979,0.0660827033365605,53.1,4.2,96.0,-593.75,8.78906,827.63672,-0.24674417767144632,-0.057689065897869374,-0.0750091897958855,51.75,20.55,41.55
-1021.97266,-43.45703,-194.82422,-0.10285452174805344,0.2574027288804505,-0.11697702792349074,1.2,23.1,27.3,321.28906,-15.13672,950.68359,0.08913169597132281,0.05688970510045597,0.0660827033365605,52.8,3.15,96.0,-604.49219,-7.8125,820.3125,-0.26979334483913386,-0.02704597115475453,-0.08260329190423803,51.75,20.1,39.15
-1017.57812,-47.85156,-162.10937,-0.13189889489634146,0.2827166352855259,-0.0660827033365605,1.2,21.6,26.25,335.9375,-3.41797,964.84375,0.1220398790176759,0.028644692749581334,0.05622351292496973,54.45,4.05,96.15,-602.53906,-13.67187,826.66016,-0.2816509372442581,-0.020784078864449274,-0.10645181986933895,50.85,20.7,40.65
-1013.67187,-44.43359,-165.52734,-0.05342575013402282,0.2500749640159523,0.026379778979268294,2.25,22.65,26.25,317.38281,-31.25,949.70703,0.0896645449919567,0.009592678634811233,0.06381778956624745,52.95,3.75,95.7,-583.49609,-34.17969,850.58594,-0.32135368706862516,-0.0046631706954784495,-0.09499390786292138,52.5,19.8,40.2
-954.10156,-40.03906,-168.94531,-0.00746093348642536,0.2733904684274942,0.02411486520895525,1.5,21.6,26.7,352.05078,-30.76172,967.28516,0.047696706864351436,-0.010125527655445103,0.07181157207330668,53.1,4.2,94.8,-577.63672,-49.31641,838.86719,-0.35399535833819873,-0.012656953202537678,-0.013456313999951081,52.05,19.35,42.0
-946.77734,-53.71094,-160.64453,-0.052226708937902724,0.3794426078981264,-0.048762579438544375,1.5,21.6,26.7,347.65625,-30.27344,966.30859,0.052226708937902724,0.0,0.10032309620096086,53.1,4.2,94.8,-580.56641,-43.45703,843.26172,-0.34480253463501936,0.02038439846574257,-0.055290983505629165,52.5,20.55,40.2
-957.51953,-58.10547,-156.73828,-0.007061253087718659,0.3045665867241681,-0.024381376985734785,2.4,22.2,25.8,350.58594,-35.15625,964.35547,0.030643269276040042,0.02011788668896304,0.08806582339712987,52.8,3.9,94.2,-582.03125,-39.55078,879.39453,-0.31975496547379834,-0.04969528339081014,-0.023715184810248553,52.05,19.35,40.95
-968.75,-69.82422,-166.01562,0.015721227770264124,0.3028345219744889,0.0365053066347134,1.5,21.15,27.0,348.63281,-50.29297,969.23828,0.040901965553412314,-0.04290054207987102,0.08100457030941122,52.05,2.7,96.0,-577.63672,-103.51563,819.33594,-0.27805363912297265,-0.06208572481656829,0.005462531492891852,52.05,19.35,40.95
-1016.60156,-65.91797,-200.68359,0.019851374912183504,0.3855711570335793,-0.05049464418822355,-0.45,22.35,26.25,350.58594,-48.33984,963.86719,-0.005062851094185151,0.011857592405124276,0.031708967317307775,52.8,2.7,94.8,-574.70703,-73.24219,849.12109,-0.2623322368197833,-0.03637213801278623,-0.007594102108352528,50.85,19.2,42.15
-1055.17578,-77.63672,-226.5625,0.03637213801278623,0.3705161214388014,0.013989337553510148,0.75,21.15,26.7,362.30469,-73.24219,949.70703,0.023981696587028086,0.0381042027624654,0.0940612039106556,52.8,2.7,94.8,-563.96484,-84.47266,829.10156,-0.22596009880699708,-0.035173096816666125,0.0015987215948268059,51.6,19.2,42.75
-1073.73047,-64.94141,-238.28125,0.10045643935581322,0.2717917468326674,-0.03623896939085906,0.75,21.15,26.7,365.72266,-84.96094,958.98437,0.11777638872090417,0.03783769098568587,0.07967236049136395,52.2,3.75,95.4,-544.92187,-69.82422,823.24219,-0.22436137721217028,-0.0058622118915985545,0.02424803383088242,52.35,19.2,42.15
-1045.41016,-84.47266,-240.72266,0.03210864771601448,0.2768545979268525,-0.04183466950567808,1.8,23.85,26.25,375.0,-78.125,968.26172,0.08087140168748405,0.03264167126957355,0.05822208945142844,52.05,3.9,95.25,-555.66406,-75.19531,861.32812,-0.23275501465086137,0.018785676870915768,0.013189976756096747,52.8,17.55,40.95
-1026.36719,-83.49609,-239.74609,0.1273690673557154,0.25660336808303713,-0.0007993607974134029,-0.75,21.6,25.65,370.11719,-63.47656,971.67969,0.08087140168748405,0.04076879693148514,0.05502447172884963,52.05,3.9,95.25,-548.33984,-53.71094,859.375,-0.1382939558085739,0.035173096816666125,0.0279785005740951,52.05,19.8,41.25
-1003.41797,-82.03125,-249.51172,0.1192419416938038,0.17040277805751358,0.023848353432175718,1.5,23.4,24.9,369.62891,-12.69531,969.23828,0.11644417890285688,0.0738101485997654,0.04596481664759746,53.1,4.65,94.5,-561.52344,-41.50391,824.70703,-0.052226708937902724,0.031442630073453444,0.033973881087620825,52.65,18.75,41.1
-963.86719,-81.54297,-247.07031,0.07754061534297808,0.24181466973211357,0.08873201557261612,1.65,22.2,25.05,375.97656,-20.01953,967.77344,0.08286980368101757,0.11990813386929003,0.09552675688355523,52.65,4.05,95.1,-550.29297,-21.48438,844.23828,-0.07274427602557246,0.03943641258051267,0.04516545585018406,52.65,18.75,41.1
-943.35937,-89.35547,-229.49219,0.03210864771601448,0.12950081250410125,0.1728008604497538,1.65,22.2,25.05,364.74609,-14.64844,969.23828,0.04689734606693803,0.10432007472095307,0.08087140168748405,52.8,4.95,96.0,-561.52344,-25.39063,816.89453,-0.03970292435729221,0.08580090962681684,0.07687442316749184,52.5,17.85,41.55
-959.47266,-116.21094,-209.96094,0.0668820641339739,0.13656206559181994,0.2295573969282826,0.0,21.0,24.0,351.5625,0.0,971.19141,0.09992341580225415,0.10698466888997281,0.07314395642427915,52.8,4.95,96.0,-577.63672,-16.11328,847.16797,-0.094860564708069,0.10525260414029364,0.07953901733651159,52.5,17.85,41.55
-953.61328,-134.27734,-208.49609,0.03543943406052046,0.15801233663175543,0.15321599731434982,-0.45,20.85,24.9,323.73047,-27.83203,976.07422,0.03783769098568587,0.1131133925583509,0.11484528277510488,53.7,4.5,95.7,-586.91406,-37.10938,827.63672,-0.1430902951259795,0.1436233186795386,0.08366916447843097,51.75,19.8,40.95
-954.58984,-100.09766,-215.82031,0.02851152412765417,0.1353630243956998,0.28324965883908493,0.6,21.75,25.8,326.17187,-55.66406,985.83984,0.06861412888365308,0.1557472483285172,0.17466609382136014,52.8,4.65,95.25,-583.00781,-28.80859,859.86328,-0.1811944978884449,0.14722044226789888,0.05955429926947571,51.9,19.5,41.7
-984.375,-92.77344,-211.42578,0.060487003221741484,0.1216401986189692,0.30376722592675465,-0.3,22.95,25.8,328.61328,-48.33984,972.65625,0.07993869773521828,0.10312103352483297,0.17666467034781883,53.4,5.55,95.7,-586.42578,-19.53125,875.48828,-0.23755135396826701,0.13602904203826086,0.05902145024884184,52.05,18.6,40.95
-967.77344,-64.45313,-213.86719,0.0031976177225788113,0.13163238311956194,0.25034147579273186,-0.3,22.95,25.8,347.65625,-66.89453,975.58594,0.08193727426167699,0.06901380928235978,0.14975186781499147,53.4,5.55,95.7,-562.5,-44.43359,859.86328,-0.26073351522495647,0.13149921449763477,0.1613431229762614,51.9,19.5,41.4
-973.63281,-47.36328,-230.95703,-0.035839288992152364,0.12617002615959527,0.3242847930144244,0.45,22.65,25.2,370.11719,-57.12891,972.65625,0.07967236049136395,0.11271371215964421,0.11990813386929003,54.3,4.65,95.55,-569.33594,-50.78125,866.21094,-0.2691271526636476,0.10511943551836647,0.14082538135566647,52.35,19.2,41.7
-999.51172,-33.69141,-242.1875,-0.014522186574144018,0.09619294905904148,0.2772542783255592,0.45,21.6,24.6,367.67578,-47.36328,955.07812,0.11497862592995724,0.0632847660126884,0.15774582485497587,53.1,4.95,94.5,-559.57031,-54.19922,877.44141,-0.23368754407020198,0.11084847878803786,0.1448223598756587,51.9,19.5,40.65
-999.02344,-15.13672,-231.93359,-0.09885754322806121,0.11711019654541792,0.2921761452984099,-1.2,21.9,24.15,367.67578,-20.99609,937.5,0.16440739754398787,0.10032309620096086,0.07301078780235198,53.7,3.3,96.15,-542.96875,-68.35938,858.88672,-0.22675963413733566,0.14388983045631812,0.11950845347058334,51.9,19.5,40.65
-966.79687,-15.625,-236.32812,-0.09952373540354745,0.06381778956624745,0.3388069795885685,-0.6,22.95,23.25,378.41797,8.78906,973.14453,0.18319289988197843,0.10285452174805344,0.10951609443706539,53.7,3.3,96.15,-545.89844,-69.82422,875.0,-0.20251142577352804,0.11777638872090417,0.11324656118027807,51.9,19.5,40.65
-969.72656,20.50781,-227.53906,-0.12257272803830976,0.030376757499260505,0.3442695110814603,-0.6,22.95,23.25,352.53906,-6.83594,941.40625,0.09952373540354745,0.1684043760639801,0.11457894553125055,53.55,3.9,94.2,-547.36328,-97.65625,862.79297,-0.25127417974499766,0.1115144964305989,0.13682840283567427,52.65,20.25,41.4
-1008.78906,-20.50781,-193.35937,-0.12270589666023693,0.0385038831611721,0.3228192400415248,-1.35,23.7,24.3,364.74609,1.95312,955.56641,0.015188378749630253,0.1131133925583509,0.16001073862528895,54.3,3.9,94.8,-546.875,-89.84375,835.44922,-0.2972388218596699,0.1107151356331855,0.12417144963313657,52.65,20.25,41.4
-1058.10547,-7.8125,-175.78125,-0.10645181986933895,0.061819213039788753,0.2721914272313741,-0.15,21.9,24.6,349.12109,-49.31641,960.44922,-0.04250068714823912,0.1508177403891844,0.2274256517798967,52.95,4.05,94.65,-551.75781,-103.51563,849.60937,-0.24794339340049165,0.06661555235719438,0.1220398790176759,52.35,19.5,41.4
-993.65234,-52.73438,-222.16797,-0.06954665830299364,-0.12910113210539456,0.3364088971963282,-0.45,23.4,25.2,356.93359,-94.72656,921.38672,-0.08540122922811014,0.1366952342137471,0.19598319623936847,52.95,4.05,94.65,-560.05859,-91.30859,871.09375,-0.2695268330623543,0.08819916655198225,0.11737670832219745,51.15,19.5,39.3
-889.16016,-45.41016,-249.51172,-0.03970292435729221,-0.04916225983725108,0.2617993877991494,-0.3,24.3,24.75,347.16797,-92.77344,934.57031,-0.006661572689011957,0.12990049290280797,0.14415616770017245,52.8,6.15,95.55,-560.54687,-114.25781,828.125,-0.2635314525488286,0.09752533341001395,0.1552143993078833,52.05,18.6,41.25
-905.76172,-2.92969,-201.66016,-0.03077643789796721,0.016520588567677526,0.18425877245617137,-0.3,24.3,24.75,330.07812,-110.83984,943.35937,-0.015321547371557422,0.17506577422006683,0.17040277805751358,54.0,4.05,92.85,-589.35547,-120.60547,850.58594,-0.24101530893470016,0.11324656118027807,0.1329647674705344,53.25,18.6,41.25
-944.33594,10.74219,-193.35937,0.026779459377974997,-0.018785676870915768,0.17053594667944072,-0.3,24.3,24.75,328.61328,-84.47266,954.58984,0.02931088492506757,0.13736142638923332,0.12976714974795558,54.0,4.05,92.85,-577.14844,-124.51172,853.02734,-0.2318223106985956,0.09392803528872844,0.1524164619840112,51.75,19.8,40.2
-991.69922,37.59766,-208.49609,0.009592678634811233,0.01678710034445706,0.16094326804462952,-1.05,22.95,25.8,320.80078,-87.89063,961.42578,0.009592678634811233,0.1394931715376192,0.15348233455820415,54.45,4.8,95.4,-590.82031,-140.13672,863.28125,-0.16094326804462952,0.0462311538914518,0.13802761856471957,51.75,19.05,40.5
-993.65234,-5.85937,-197.26562,-0.0022649137703130416,-0.02038439846574257,0.11138132780867173,1.05,22.2,25.35,348.63281,-103.51563,966.79687,-0.05142717360756412,0.07021285047847989,0.0972588216332344,54.6,3.9,94.8,-590.82031,-119.14063,919.43359,-0.19811476685482912,0.023981696587028086,0.17892958411813187,51.75,19.05,40.5
-970.70312,-15.625,-195.3125,0.06541651116107426,-0.09432771568743514,0.1553475679298105,-1.05,24.75,25.35,353.51562,-94.72656,969.72656,0.02611326720248876,0.0932618431132422,0.1462879128485583,54.0,5.25,94.35,-575.68359,-115.72266,921.38672,-0.2067749160702998,-0.0470306892217904,0.23088978127925505,52.8,19.05,42.0
-1056.15234,-44.43359,-176.75781,0.10911641403835869,-0.10511943551836647,0.12137368684218967,-1.65,23.7,24.3,385.74219,-77.63672,981.44531,0.01771980429672283,0.0025314255470925756,0.06901380928235978,54.0,5.25,94.35,-536.62109,-148.4375,864.25781,-0.21223744756319168,0.01585457092511649,0.2242282085902431,52.8,19.05,42.0
-1010.74219,-90.82031,-251.95312,0.1807948174897382,-0.1541485267336904,0.23462024802246773,-1.65,23.7,24.3,363.28125,-76.17188,960.9375,-0.0369049870334201,0.03184231047216015,0.09992341580225415,53.7,4.5,96.15,-548.82812,-136.71875,884.76562,-0.18359258028068512,0.0063950609122324234,0.24474577567791284,53.25,19.35,42.0
-901.36719,-133.78906,-287.10937,0.35852518587882476,-0.20344412972579382,0.31629101050736524,-0.3,23.25,25.35,381.34766,-83.98438,958.98437,-0.07061253087718658,0.06674889551204674,0.08979788814680904,53.55,5.4,97.05,-547.85156,-143.55469,881.83594,-0.07607506237007844,0.04250068714823912,0.20824046904319946,52.8,18.6,42.3
-1037.59766,-70.3125,-241.21094,0.41621442630961936,-0.19118685692196286,0.2508744993462909,-0.3,23.7,25.8,377.44141,-97.65625,1004.39453,-0.15494788753110378,0.08446852527584436,0.08300314683586993,54.3,3.15,93.45,-558.59375,-157.71484,875.0,-0.15734614445626918,0.09925722362676792,0.20011334338128786,52.5,19.35,40.95
-1063.96484,-21.48438,-236.32812,0.5045467614835287,-0.22516073800958367,0.23115629305603458,-0.75,23.85,24.9,376.95312,-121.58203,1008.78906,-0.017053612121236593,0.13722825776730616,0.08220361150553133,54.3,5.4,94.8,-567.38281,-169.43359,871.09375,-0.023848353432175718,0.14841965799694418,0.2672619192920413,51.45,18.6,40.95
-1025.87891,4.88281,-250.0,0.5242649677737851,-0.4252740813908715,0.20091270417870125,-1.65,23.7,25.35,382.8125,-87.89063,1040.52734,0.03344103206698695,0.0847350370526239,0.10432007472095307,54.75,3.75,95.7,-555.66406,-155.76172,857.42187,0.12803525953120162,0.1821270273077855,0.2925758256971166,53.4,18.45,41.4
-1027.34375,28.80859,-266.60156,0.5327917738344035,-0.4792328550784534,0.2558040072856237,-1.65,23.7,25.35,367.1875,-117.67578,1001.46484,-0.1033873707686873,0.05462479133014293,0.03930324395858551,54.3,4.2,94.8,-551.75781,-143.06641,865.72266,0.10951609443706539,0.19171970594259674,0.26046700344817697,53.4,19.2,39.6
-1075.68359,36.13281,-260.74219,0.5076110360512552,-0.5417182602937284,0.2367519931708536,-0.45,23.85,24.6,345.21484,-95.70313,962.40234,-0.08220361150553133,0.10392039432224637,0.008659974682545464,54.3,4.2,94.8,-544.92187,-105.95703,829.10156,0.05076115596500308,0.1791960958949114,0.21476869857735903,53.4,19.2,39.6
-1056.15234,45.41016,-244.14062,0.511474671416395,-0.581154672874241,0.261000027001736,-0.45,23.85,26.7,340.82031,-44.92188,966.30859,-0.01851916509413623,0.10232167272741956,0.01678710034445706,53.55,4.95,95.25,-557.12891,-93.26172,859.86328,-0.003996978519992214,0.1617428033749681,0.17972894491554528,52.8,20.55,41.55
-1039.55078,5.37109,-203.125,0.4575160722617384,-0.6598943294133393,0.28937820797453784,0.0,24.75,24.75,335.9375,-10.74219,924.80469,0.1716018192536337,0.20770744548964037,0.011324568851565207,55.2,4.05,95.1,-565.42969,-66.89453,871.58203,-0.03783769098568587,0.19331860207034873,0.1973154060574157,53.85,20.85,39.9
-968.75,-4.88281,-179.6875,0.42434155197153095,-0.660427178433973,0.23128946167796177,0.0,24.75,24.75,317.87109,59.08203,942.38281,0.0932618431132422,0.12150685546411683,0.028644692749581334,54.9,4.65,95.55,-603.51562,-56.15234,869.14062,-0.11804290049768368,0.18186069006393116,0.150018379591771,51.6,21.0,42.15
-947.75391,3.90625,-149.90234,0.47750079032877424,-0.5924792417258062,0.21356965738123893,-1.2,24.15,24.9,312.98828,44.43359,967.28516,-0.02891120452636087,0.1649402465646217,0.09899088638291359,54.0,3.75,94.05,-600.58594,-72.75391,858.88672,-0.10392039432224637,0.13043334192344183,0.09472739608614184,51.9,20.25,40.65
-914.55078,38.08594,-92.28516,0.4953537632474242,-0.5551745742936794,0.17493260559813967,0.3,22.2,27.15,313.47656,74.21875,962.40234,-0.12843493992990834,0.11204751998415798,0.1606769308007752,54.45,4.5,94.35,-578.61328,-47.85156,833.98437,-0.1276355791324949,0.13602904203826086,0.06888046612750741,51.9,20.25,40.65
-897.46094,66.40625,-83.98438,0.45884845661271084,-0.4608468586062443,0.12417144963313657,0.3,23.7,26.85,314.45312,20.50781,947.75391,-0.1593445464498027,0.06541651116107426,0.103787051167394,55.2,4.8,95.7,-556.64062,-63.47656,821.28906,-0.07927250555973205,0.12617002615959527,0.05382543053272952,52.5,20.55,40.95
-935.54687,90.33203,-70.3125,0.399827006363869,-0.4188790204786391,0.21476869857735903,0.15,23.4,25.95,321.28906,6.83594,908.20312,-0.10631847671448658,0.017586461141870464,0.1276355791324949,55.2,4.8,95.7,-532.22656,-66.40625,815.91797,-0.09113009796485633,0.11857574951831756,0.02011788668896304,52.35,20.25,40.35
-934.57031,90.82031,-68.35938,0.3843721158374592,-0.36625263114202966,0.12856810855183548,0.15,23.4,25.95,329.58984,-25.87891,937.01172,-0.14162474215307985,0.015721227770264124,0.12710255557893585,53.4,3.75,96.45,-518.55469,-87.89063,780.76172,-0.14682076186919218,0.13363095964602065,0.030376757499260505,52.35,20.25,40.35
-947.26562,106.44531,-62.5,0.2712587232791083,-0.28324965883908493,0.10418690609902591,1.8,23.1,26.7,351.5625,-15.625,904.29687,-0.22009806144832372,0.05049464418822355,0.15614692872722388,54.45,3.75,94.65,-556.15234,-80.56641,784.66797,-0.09925722362676792,0.1434899755246862,0.07287744464749962,51.0,19.8,42.0
-1002.44141,94.72656,-84.47266,0.2157014025296248,-0.23395405584698148,0.05449162270821576,-0.75,22.35,27.0,329.58984,-35.15625,904.29687,-0.1021883295725672,0.11564464357251827,0.10085611975451993,53.85,4.2,94.2,-564.45312,-100.09766,796.38672,-0.09632611768096865,0.17466609382136014,0.09899088638291359,51.0,19.8,42.0
-1080.56641,84.96094,-93.26172,0.1552143993078833,-0.2575358975023777,-0.010125527655445103,1.2,22.35,27.75,336.42578,-86.91406,905.76172,-0.056356856079822104,0.09579326866033477,0.08500154882940344,53.85,4.2,94.2,-558.10547,-100.58594,792.96875,-0.03970292435729221,0.13389747142280017,0.08833233517390941,52.8,21.15,40.5
-1070.80078,60.05859,-160.15625,0.11164783958545127,-0.24354673448179273,-0.003996978519992214,1.2,21.15,24.9,321.28906,-97.65625,870.60547,-0.04596481664759746,0.048496242194690044,0.09885754322806121,54.45,4.5,95.1,-575.68359,-96.67969,808.10547,-0.008793317837397832,0.11711019654541792,0.12110717506541013,51.75,20.55,40.2
-967.77344,42.48047,-175.78125,0.12070749466670343,-0.2833828274610121,0.04729702646564473,1.2,21.15,24.9,321.77734,-93.75,903.32031,0.00559570011481902,0.1277687477544221,0.019984718067035872,54.9,3.9,94.5,-593.26172,-94.72656,801.26953,0.03264167126957355,0.055290983505629165,0.11777638872090417,53.4,21.0,41.1
-930.66406,37.10938,-141.60156,0.12617002615959527,-0.22689280275926285,-0.00652840406708479,0.6,21.0,26.4,266.60156,-85.44922,898.4375,0.06968000145784602,0.06115319539722772,0.02091724748637644,54.9,3.9,94.5,-613.76953,-69.82422,815.42969,0.05609034430304257,-0.010125527655445103,0.07287744464749962,52.05,21.15,39.9
-907.71484,0.48828,-104.98047,0.09872437460613405,-0.10645181986933895,-0.0377045223637587,1.05,22.5,27.15,281.25,-64.94141,951.17187,0.1966493884148547,0.0013323843509724712,0.009992359033517936,54.9,3.9,94.5,-631.34766,-64.94141,833.00781,0.018918845492842937,-0.0369049870334201,0.13602904203826086,52.8,20.85,40.2
-992.1875,-19.04297,-81.54297,0.19238589811808296,-0.03823737138439257,0.020650910242522108,1.8,21.9,26.7,259.76562,-12.69531,962.40234,0.15654678365885577,-0.008526806060618296,0.019185357269622467,53.1,3.9,93.45,-658.20312,-48.82813,838.37891,-0.038903563559878805,-0.01305663360124438,0.13109953409892808,52.35,20.25,40.65
-1025.39063,9.76562,-68.35938,0.1994471512058016,-0.03543943406052046,0.07913933693780488,1.35,21.75,27.15,275.87891,-16.60156,963.86719,0.1706692898342931,-0.05289272658046376,0.058488601228207975,54.45,5.25,94.65,-627.44141,-42.96875,834.47266,-0.05968764242432808,-0.060087322823034785,0.09552675688355523,52.35,20.25,40.65
-1005.37109,40.03906,-98.63281,0.08913169597132281,-0.010525208054151804,0.02704597115475453,1.35,21.75,27.15,295.41016,9.27734,983.39844,0.09805818243064782,-0.06861412888365308,0.04356655972243205,55.2,3.3,95.4,-623.53516,-51.75781,843.26172,-0.047430369620497105,-0.10884990226157916,0.10791737284223858,51.15,20.7,40.65
-916.50391,32.22656,-147.94922,0.10538594729514601,-0.08899852734939565,0.13682840283567427,1.35,21.45,25.35,319.82422,0.97656,936.03516,0.07847314476231865,-0.1248376418086228,0.05462479133014293,55.2,3.3,95.4,-583.49609,-48.33984,816.89453,-0.017586461141870464,-0.05009496378951684,0.0738101485997654,51.15,20.7,40.65
-912.10937,47.36328,-164.55078,0.04210100674953242,-0.05235987755982989,0.13736142638923332,2.4,21.45,26.1,331.05469,-0.48828,967.28516,0.11164783958545127,-0.08380250763328333,0.06634921511334003,55.35,2.7,94.5,-568.35937,-25.87891,828.61328,0.03464007326310706,-0.07061253087718658,0.10418690609902591,51.75,21.6,39.9
-915.03906,75.19531,-183.59375,-0.04636449704630416,0.0005328490206338688,0.024514545607661954,1.2,21.9,25.95,331.05469,-13.18359,945.80078,0.17813022332071848,-0.0559571756811154,0.03823737138439257,54.9,4.65,93.75,-555.66406,-55.66406,830.07812,0.02224963183734891,-0.06408430134302699,0.05036147556629638,53.25,21.15,41.25
-927.73437,85.44922,-173.82812,-0.1272358987337882,-0.025447249559927724,0.05728938549916267,0.75,20.55,25.95,326.17187,-29.78516,939.45312,0.15987757000336178,-0.027179139776681696,0.03264167126957355,55.5,4.05,94.05,-573.73047,-69.33594,830.56641,0.05688970510045597,-0.0575558972759422,0.08020520951199782,53.4,21.0,41.7
-896.97266,63.47656,-173.82812,-0.10538594729514601,-0.024514545607661954,0.11657734752478405,0.75,20.55,25.95,312.01172,-35.15625,933.10547,0.14855282661887137,-0.07487602117395832,0.04356655972243205,54.6,4.65,94.5,-602.05078,-60.54688,829.58984,0.05102749320885741,-0.02611326720248876,0.02038439846574257,52.65,21.75,40.65
-1007.8125,85.44922,-158.69141,-0.17986211353747242,-0.021183759263155976,0.022649312236055614,1.35,21.75,26.85,309.08203,-18.06641,943.84766,0.17439975657750578,-0.06821444848494637,0.0182526533173567,56.55,3.75,96.15,-611.81641,-58.59375,820.80078,0.10911641403835869,-0.012923464979317213,0.03543943406052046,51.9,23.25,40.65
-1062.98828,75.19531,-165.52734,-0.21383616915801848,-0.005995380513525721,-0.009459335479958867,0.75,21.9,27.0,303.22266,-33.69141,940.91797,0.18892194315164978,-0.03570594583729999,-0.007594102108352528,54.75,3.3,94.65,-604.49219,-42.48047,805.17578,0.09592643728226194,-0.023182161256689485,0.0668820641339739,51.9,20.25,41.4
-1066.40625,84.96094,-181.64062,-0.17479943697621247,-0.15201678158530452,0.0361056262360067,0.3,22.95,26.4,294.92187,-19.53125,943.35937,0.2222296320637844,-0.11617766712607734,0.00559570011481902,54.75,3.3,94.65,-593.75,-14.16016,817.38281,0.10538594729514601,-0.07141189167459998,0.07514235841781267,51.9,20.25,41.4
-1037.59766,82.51953,-161.13281,-0.1991806394290221,-0.12470447318669564,0.023182161256689485,0.75,21.15,26.7,316.89453,-5.37109,945.3125,0.2250275693876565,-0.11377941020091194,-0.010791719830931338,55.2,6.0,94.05,-587.40234,-7.8125,795.41016,0.13856046758535343,-0.09312867449131504,0.04529862447211123,50.1,20.7,42.15
-979.49219,76.17188,-157.22656,-0.23368754407020198,-0.18266005086134454,0.015987739547043658,0.75,21.15,26.7,323.24219,9.76562,939.94141,0.24034911675921392,-0.08153759386297028,-0.04836289903983767,53.7,6.0,95.1,-566.40625,-21.48438,811.52344,0.07780712711975761,-0.07967236049136395,0.1341638086666545,52.05,20.85,41.25
-978.51562,63.47656,-124.51172,-0.20411032190128006,-0.15188361296337732,0.02038439846574257,0.75,21.15,26.7,308.10547,21.48438,935.54687,0.1722680114291199,-0.05609034430304257,-0.034107224242473186,53.1,5.7,94.8,-582.51953,-21.48438,829.10156,0.004263315763846549,-0.10445324334288024,0.0656830229378538,51.0,21.15,41.25
-958.98437,63.47656,-121.58203,-0.24994179539402517,-0.06435063858688132,-0.06435063858688132,0.75,21.9,27.3,326.17187,4.88281,953.61328,0.2290245479076487,-0.06475031898558803,-0.02704597115475453,53.1,5.7,94.8,-598.63281,-32.71484,809.08203,0.023448673033469015,-0.07141189167459998,0.053558918755949994,51.0,21.15,40.95
-973.63281,68.84766,-107.42188,-0.20490968269869347,-0.014255674797364485,-0.059421130647548545,1.65,22.95,26.1,297.36328,11.71875,957.03125,0.21636759470511105,-0.09872437460613405,-0.008260294283838763,53.85,6.15,93.75,-591.30859,-48.82813,836.91406,0.04796321864113097,-0.08526806060618297,-0.014255674797364485,51.0,21.6,41.25
-1006.34766,72.75391,-101.5625,-0.1991806394290221,-0.01585457092511649,0.008260294283838763,1.35,22.95,27.45,297.85156,2.44141,955.07812,0.2117044240096326,-0.06808110533009401,-0.05435827955336339,54.0,4.8,93.6,-610.83984,-49.31641,854.00391,0.03743801058697916,-0.08833233517390941,0.04956194023595778,51.9,21.45,40.35
-990.23437,68.35938,-117.1875,-0.1452220402743654,0.07141189167459998,-0.029710565323774273,3.0,21.15,27.75,298.82812,15.625,969.23828,0.19038749612454944,-0.06501683076236757,-0.07767378396490525,54.0,4.8,93.6,-602.05078,-74.70703,827.14844,0.0924624823158288,-0.09566010003840761,0.07301078780235198,51.0,21.6,41.25
-1002.44141,90.82031,-101.5625,-0.16094326804462952,0.15588059148336955,0.035839288992152364,3.0,21.15,27.75,304.19922,11.71875,971.19141,0.18132766651037208,-0.05249304618175705,-0.0664823837352672,52.95,5.55,94.35,-600.09766,-65.91797,871.09375,0.07101221127589329,-0.11697702792349074,0.002131745148385874,51.0,21.6,41.25
-1008.30078,81.54297,-95.70313,-0.1434899755246862,0.12150685546411683,0.038903563559878805,1.2,21.9,26.25,333.49609,15.13672,982.91016,0.16400771714528115,-0.05382543053272952,-0.09739199025516157,54.0,5.25,94.65,-603.02734,-70.3125,851.07422,0.13323127924731393,-0.15161710118659782,0.05129400498563695,52.5,20.85,42.0
-996.58203,74.21875,-96.67969,-0.14029253233503258,0.2555374955088442,-0.0063950609122324234,0.6,23.7,26.85,345.21484,27.34375,1006.83594,0.1793292645168386,-0.05116083636370978,-0.07274427602557246,54.45,5.55,94.65,-604.00391,-64.94141,843.75,0.13629555381504038,-0.10645181986933895,0.029710565323774273,52.5,20.85,42.0
-962.40234,103.51563,-83.49609,-0.12297240843701647,0.3519969563446652,0.0015987215948268059,1.05,23.25,26.85,341.79687,60.54688,993.65234,0.17626498994911213,-0.11337972980220523,-0.0863337586474507,54.45,5.55,94.65,-609.86328,-61.52344,850.58594,0.13123270272085524,-0.07460950939717881,-0.005062851094185151,51.45,21.9,40.95
-1034.66797,151.85547,-69.33594,-0.09126344111970869,0.4074211084722215,-0.0190520141147701,2.25,23.85,27.3,352.05078,58.59375,985.35156,0.14015918918018025,-0.16760484073364146,-0.05449162270821576,54.75,4.05,95.1,-592.28516,-56.15234,818.84766,0.1845252842329509,-0.10405356294417353,-0.010924888452858507,51.45,21.6,40.2
-1056.64063,149.41406,-97.16797,-0.19558351584066178,0.4501883073972402,-0.023582016188321384,2.25,23.85,27.3,347.65625,47.85156,979.49219,0.08420218803199005,-0.16107661119948188,-0.052626389336609423,55.2,5.55,95.1,-591.79687,-80.07813,816.40625,0.1945176432664688,-0.09006439992358858,-0.012923464979317213,52.05,21.15,41.55
-1010.74219,119.14063,-110.83984,-0.21863250847542406,0.4373981855727753,0.10072277659966757,-0.75,23.4,27.75,351.5625,35.64453,976.5625,0.04929560299210344,-0.2022450885296737,-0.08873201557261612,55.2,5.55,95.1,-569.33594,-81.54297,826.17187,0.16613928776074183,-0.08366916447843097,-0.08020520951199782,50.85,19.95,41.4
-1007.8125,99.60938,-120.11719,-0.18305973126005126,0.40702142807351477,0.09552675688355523,0.3,21.45,25.05,356.44531,26.85547,968.26172,-0.01678710034445706,-0.1670719917130076,-0.096459460835821,53.7,6.3,94.35,-557.61719,-83.49609,811.52344,0.20264476892838043,-0.0668820641339739,-0.04343339110050489,50.85,22.2,42.15
-1028.80859,103.51563,-147.46094,-0.14668759324726502,0.4671087508965496,0.1212403436873373,-0.3,22.95,26.1,361.81641,6.83594,968.75,-0.00013316862192716734,-0.10032309620096086,-0.04942877161403061,54.3,5.7,94.2,-577.14844,-97.65625,854.49219,0.18612400582777772,-0.05022813241144401,-0.10232167272741956,50.7,20.85,40.5
-1024.90234,91.79688,-141.60156,-0.17080245845622027,0.5310597090847242,0.10072277659966757,-0.15,22.65,26.7,354.00391,-6.83594,973.63281,0.0762082309920056,-0.08993105676873621,-0.1135130729570576,53.4,4.8,93.6,-569.82422,-88.37891,829.58984,0.2242282085902431,-0.06168604441786158,-0.0684807857288007,50.7,20.85,40.5
-1009.27734,69.33594,-149.90234,-0.12990049290280797,0.4926891690784045,0.08939820774810235,-0.15,22.65,26.7,355.46875,41.50391,985.83984,-0.04489894407340452,-0.12510415358540233,-0.11124815918674456,53.4,4.8,93.6,-567.38281,-70.3125,813.47656,0.24794339340049165,-0.016520588567677526,-0.07687442316749184,51.45,22.35,41.55
-1011.71875,78.125,-160.15625,-0.10765086106545904,0.5687642314484829,0.14615474422663116,0.0,23.7,26.4,344.72656,18.55469,1011.23047,-0.103787051167394,-0.04423275189791829,-0.12950081250410125,54.3,6.6,95.55,-579.10156,-66.40625,838.37891,0.2611331956236632,-0.005995380513525721,-0.06395095818817463,51.45,22.35,41.55
-1004.88281,63.47656,-169.43359,-0.1184425808963904,0.5996738379683774,0.07767378396490525,0.3,22.5,25.8,332.03125,-26.36719,944.82422,-0.1309663654770009,-0.08406884487713767,-0.17200149965234038,53.55,6.15,94.5,-590.82031,-62.01172,835.44922,0.31162783981188674,-0.030509926121187674,-0.11764322009897699,50.85,21.45,40.65
-992.67578,74.70703,-173.33984,-0.07127872305267281,0.5983414536174049,0.0920628019171221,0.6,23.25,26.4,306.64062,-12.20703,940.91797,-0.015321547371557422,-0.16600611913881466,-0.1301670046795875,53.7,6.0,94.65,-618.16406,-55.66406,876.46484,0.26606287809592116,-0.01025887081029747,-0.09086376072100198,51.6,22.5,40.65
-1052.24609,80.56641,-168.45703,0.009725847256738402,0.6181930030625135,0.12017464564606957,0.6,23.25,26.4,326.66016,-19.53125,957.03125,-0.023848353432175718,-0.07900616831587771,-0.17133530747685413,53.4,6.0,94.65,-616.69922,-42.96875,879.39453,0.30616530831899486,-0.06834761710687355,-0.12976714974795558,52.35,22.95,41.1
-1038.57422,83.49609,-180.17578,-0.05382543053272952,0.5871500533877667,0.01119140022963804,0.6,22.5,25.8,339.35547,-32.22656,1011.23047,0.07127872305267281,-0.03970292435729221,-0.20451000229998678,53.4,5.25,95.1,-590.82031,-29.78516,873.04687,0.34600157583113944,-0.08007204089007065,-0.10471975511965978,52.65,22.2,41.7
-981.44531,85.9375,-193.35937,-0.007727445263204894,0.5573063194420653,0.04396624012113876,-0.3,23.25,25.05,345.70312,-18.06641,966.30859,0.023182161256689485,-0.017586461141870464,-0.19038749612454944,53.55,6.9,94.8,-601.07422,-9.76562,875.48828,0.3158913301086585,-0.1111148160318922,-0.17506577422006683,51.45,21.9,40.95
-945.80078,109.375,-199.70703,-0.0754088701945922,0.5641010607530045,-0.0029311059457992773,-0.45,23.85,25.2,327.63672,-26.85547,960.9375,-0.01212410418190381,-0.14682076186919218,-0.2015788963541875,54.0,6.75,94.65,-566.40625,2.44141,855.95703,0.26299842899526954,-0.07487602117395832,-0.2117044240096326,49.95,21.15,42.3
-930.17578,83.49609,-171.38672,-0.1726676918278266,0.5910136887529066,0.01492186697285072,-1.35,24.0,25.05,360.83984,-2.92969,967.28516,-0.03823737138439257,-0.22449472036702264,-0.20610872389481358,54.0,6.75,94.65,-579.58984,7.8125,854.49219,0.30110263175773494,-0.07780712711975761,-0.25020830717080467,49.95,21.15,42.3
-911.13281,36.62109,-192.38281,-0.13243191844990054,0.5659662941246109,0.09979024718032699,-1.35,24.0,25.05,336.42578,24.41406,950.19531,-0.01625425132382319,-0.23715167356956032,-0.2472772012250054,53.55,5.4,94.5,-571.77734,29.78516,843.26172,0.26979334483913386,-0.038903563559878805,-0.18479179600973042,51.15,21.45,42.75
-939.94141,14.16016,-197.75391,-0.17040277805751358,0.5767580139555422,0.09566010003840761,-1.8,24.15,25.95,356.44531,58.10547,928.71094,0.02611326720248876,-0.20424349052320723,-0.24647784042759202,53.4,6.75,95.1,-555.66406,44.43359,827.14844,0.2717917468326674,-0.11497862592995724,-0.19438430011161645,51.15,21.45,42.75
-961.91406,29.78516,-215.82031,-0.1446891912537315,0.6455053114611223,0.06981317007977318,-1.65,23.25,24.0,366.21094,48.33984,926.26953,-0.026246610357341126,-0.2563368563062576,-0.18266005086134454,54.45,4.8,94.05,-547.36328,51.26953,864.25781,0.19105351376711047,-0.07207808385008622,-0.1978484296109748,51.15,21.45,42.75
-972.16797,49.31641,-236.32812,-0.0567565364785288,0.5535758526988527,0.08753297437649601,-2.7,24.0,23.25,360.35156,47.36328,926.75781,-0.0279785005740951,-0.1212403436873373,-0.1524164619840112,54.45,4.8,94.05,-538.08594,55.66406,886.71875,0.14881933839565087,-0.11018228661255162,-0.1803951370910315,50.25,22.35,40.95
-973.14453,68.84766,-249.51172,-0.09792501380872065,0.5519769565711007,0.08873201557261612,-0.75,24.6,24.6,342.28516,51.26953,925.78125,-0.10352071392353968,-0.13443032044343403,-0.12563700260603622,52.5,3.15,94.8,-540.03906,48.82813,874.02344,0.08300314683586993,-0.09752533341001395,-0.1220398790176759,50.85,22.2,41.1
-973.14453,73.73047,-248.53516,-0.16533992696332844,0.49149012788228436,0.06461715036366086,-0.75,24.6,24.6,387.20703,27.34375,964.35547,-0.1508177403891844,-0.17426641342265342,-0.11058196701125833,53.55,4.95,94.8,-561.03516,50.29297,929.6875,0.02464771422958912,-0.09179629014034256,-0.15654678365885577,52.05,21.6,41.25
-966.79687,49.80469,-242.67578,-0.14935218741628475,0.4495222897546791,0.11937511031573096,-1.05,24.3,23.25,405.76172,5.37109,955.07812,-0.07514235841781267,-0.09685914123452771,-0.12750223597764257,53.55,4.95,94.8,-549.31641,38.08594,917.96875,-0.01958503766832917,-0.13802761856471957,-0.15734614445626918,51.15,22.2,40.35
-984.375,38.57422,-238.76953,-0.1119141768293056,0.3847717962361659,0.11657734752478405,-3.0,24.15,23.1,415.03906,1.95312,964.35547,-0.08899852734939565,-0.1252373222073295,-0.08087140168748405,52.05,5.4,95.25,-508.30078,11.71875,893.06641,-0.004263315763846549,-0.07740727218812571,-0.18279321948327173,51.15,22.2,40.35
-997.07031,52.73438,-259.27734,-0.12870145170668787,0.3890352865329376,0.08766614299842318,-4.05,23.1,24.15,416.50391,-14.64844,944.33594,-0.0676814249313873,-0.18545781365229144,-0.11044862385640596,52.65,6.0,95.4,-504.88281,2.44141,879.88281,0.008926486459324997,-0.03916990080373314,-0.17346705262524,51.45,22.35,40.5
-1027.34375,41.99219,-255.37109,-0.11671051614671123,0.3705161214388014,0.0015987215948268059,-4.2,25.05,22.95,405.27344,-12.20703,929.19922,-0.06554985431592662,-0.13762793816601288,-0.09113009796485633,51.9,4.8,93.3,-501.95312,-13.18359,888.18359,0.07420982899847209,-0.033973881087620825,-0.08073805853263168,51.45,22.35,40.5
-1080.07813,41.50391,-279.78516,-0.004396658918698916,0.23328786367149526,0.08873201557261612,-4.2,25.05,22.95,445.80078,-16.11328,920.89844,-0.06128636401915488,-0.14668759324726502,-0.07274427602557246,51.9,4.8,93.3,-487.79297,10.74219,860.83984,0.05968764242432808,-0.016520588567677526,-0.1107151356331855,51.0,20.85,40.2
-1068.84766,23.92578,-276.85547,-0.0361056262360067,0.17906275274005903,-0.01638741994575036,-3.75,23.7,22.95,415.52734,-1.46484,920.41016,0.017986141540577164,-0.015321547371557422,-0.06155287579593442,51.75,4.65,95.25,-482.91016,-5.85937,884.27734,0.09059724894422246,-0.0579555776746489,-0.024781057384441488,50.55,21.75,42.15
-1020.50781,41.01563,-274.41406,0.019185357269622467,0.15201678158530452,-0.07021285047847989,-3.0,23.85,22.05,405.27344,12.69531,917.96875,-0.0015987215948268059,-0.05515781488370199,-0.1196416220925105,52.2,4.05,96.15,-473.14453,16.60156,858.88672,0.14575488929499925,-0.015321547371557422,-0.04156815772889855,51.0,20.85,41.55
-1003.90625,35.64453,-256.83594,0.07780712711975761,0.0855343978500373,0.021050590641228807,-3.3,24.6,22.5,411.62109,16.60156,924.80469,0.002664594169019743,-0.029710565323774273,-0.06195255619464112,52.2,4.8,95.1,-477.53906,8.78906,848.14453,0.1448223598756587,0.021316927885083145,-0.05808874629657607,52.35,21.75,41.4
-1011.71875,48.33984,-268.55469,0.019451694513476805,0.03983609297921937,-0.02651294760119546,-3.75,24.6,22.5,400.87891,32.71484,904.29687,-0.011591080628344743,-0.028245012350874635,-0.016653931722529894,51.75,6.15,94.8,-478.02734,38.57422,868.65234,0.1272358987337882,0.08699995082293695,0.00039968039870670147,52.35,20.7,41.7
-1001.95312,59.08203,-270.99609,0.011058231607710873,-0.020650910242522108,-0.010125527655445103,-3.75,25.8,23.25,391.11328,4.88281,905.27344,-0.04982845201273731,-0.02464771422958912,-0.025846929958634426,51.9,6.3,94.65,-505.37109,41.50391,848.63281,0.17013626628073403,0.05835525807335561,-0.05555749528240869,51.0,21.6,42.0
-1038.57422,54.6875,-273.92578,0.06954665830299364,-0.08793265477520272,-0.029044373148288036,-3.75,25.8,23.25,387.20703,-13.67187,938.47656,0.002664594169019743,-0.02851152412765417,0.04969528339081014,51.15,3.75,96.15,-483.39844,79.58984,856.44531,0.19678255703678188,0.06248540521527499,-0.0190520141147701,51.0,21.6,42.0
-1049.31641,11.71875,-259.76562,-0.011990761027051442,-0.21876567709735123,-0.01305663360124438,-3.0,24.9,22.5,400.87891,19.53125,919.43359,0.09699230985645488,0.01492186697285072,-0.017186780743163762,51.15,3.75,96.15,-512.20703,87.89063,847.16797,0.132165406673121,0.06035383459981431,-0.0029311059457992773,51.75,21.9,40.95
-899.90234,0.48828,-255.85937,-0.020650910242522108,-0.3193552850750916,0.021050590641228807,-3.3,22.35,22.05,381.83594,19.04297,897.94922,0.13696174599052663,0.03077643789796721,-0.002664594169019743,53.1,3.45,94.8,-501.95312,84.47266,805.17578,0.1821270273077855,0.11750987694412462,-0.025447249559927724,51.75,21.9,40.95
-885.25391,23.4375,-286.62109,0.019851374912183504,-0.27472285277846664,0.07887282516102534,-3.75,24.75,23.7,378.41797,46.38672,893.55469,0.1317657262744143,0.05302606973531612,0.07634157414685798,52.5,4.2,95.55,-525.87891,96.19141,834.96094,0.08153759386297028,0.07194491522815906,-0.05808874629657607,51.75,20.1,40.95
-976.07422,21.97266,-282.22656,0.02931088492506757,-0.17346705262524,0.05609034430304257,-2.1,24.0,22.95,369.14062,52.73438,897.94922,0.0940612039106556,0.08207044288360416,0.0940612039106556,52.5,5.7,94.8,-547.36328,57.12891,838.86719,-0.0385038831611721,0.09113009796485633,-0.09179629014034256,51.9,21.0,41.1
-986.81641,66.40625,-299.80469,0.01811948469542953,-0.2920428021435576,0.027179139776681696,-2.1,24.0,22.95,354.49219,33.69141,931.15234,0.13896014798406012,0.09859103145128169,0.09832469420742734,52.5,4.95,94.8,-542.96875,13.67187,815.91797,-0.08167076248489745,0.08566774100488968,-0.1305666850782942,51.75,20.1,39.9
-949.70703,106.44531,-282.22656,0.015987739547043658,-0.3397396835408342,0.07460950939717881,-4.05,23.1,22.8,352.05078,62.5,978.51562,0.11671051614671123,0.10485292374158693,0.07953901733651159,52.5,5.4,95.25,-569.33594,-27.34375,831.05469,-0.1512174207878911,0.14921901879435762,-0.14082538135566647,51.75,21.15,41.55
-923.82812,118.16406,-269.04297,-0.0668820641339739,-0.2522067091643382,0.0190520141147701,-2.4,24.3,21.9,358.88672,45.41016,993.65234,0.034373736019252726,0.07194491522815906,0.05862176985013514,51.9,4.5,94.35,-606.93359,-51.75781,845.70312,-0.13203223805119385,0.09939056678162028,-0.07314395642427915,51.9,20.7,41.7
-874.02344,121.58203,-229.98047,-0.12084066328863059,-0.1958498530845161,0.048762579438544375,-2.4,24.75,22.95,347.16797,7.8125,989.25781,-0.08859884695068895,0.052626389336609423,0.058888281626914674,51.9,4.5,94.35,-618.16406,-69.33594,835.44922,-0.006661572689011957,0.08140425070811792,-0.0182526533173567,52.05,21.15,40.5
-882.32422,110.83984,-199.21875,-0.11910877307187663,-0.16973658588202734,0.09552675688355523,-3.0,25.35,23.85,322.26562,-29.29688,990.72266,-0.15841201703046212,0.004263315763846549,0.08540122922811014,52.8,5.4,93.45,-622.07031,-61.52344,843.75,0.008659974682545464,0.09899088638291359,-0.06101985224237535,52.05,21.15,40.5
-889.64844,71.77734,-188.47656,-0.11524496317381157,-0.10725118066675235,0.1686707133078344,-3.0,25.35,23.85,310.05859,-44.43359,977.05078,-0.08939820774810235,0.00279793732387211,0.05915461887076901,53.7,4.05,95.1,-637.69531,-32.71484,827.14844,0.05235987755982989,0.07714093494427138,-0.04396624012113876,52.05,21.15,40.5
-911.13281,70.80078,-183.10547,-0.14908567563950523,0.045032112695331694,0.10631847671448658,-4.05,24.6,22.8,301.26953,-40.03906,949.21875,-0.0029311059457992773,-0.015321547371557422,0.029044373148288036,51.9,3.75,95.1,-630.85937,-33.69141,841.79687,0.07527570157266503,0.1163108357480045,-0.05822208945142844,51.0,21.6,42.0
-941.89453,39.0625,-204.10156,-0.10352071392353968,0.0676814249313873,0.08606742140359638,-2.7,25.8,24.0,314.94141,-36.62109,959.96094,0.0660827033365605,0.027712163330240767,-0.04423275189791829,51.9,3.75,95.1,-617.1875,-25.87891,830.07812,0.008260294283838763,0.062219067971420655,-0.08540122922811014,51.0,21.6,42.0
-891.60156,32.71484,-249.02344,-0.03117611829667391,0.19265240989486246,0.0373046674321268,-1.8,24.6,24.15,302.73437,-24.41406,928.71094,0.04436592051984546,0.015188378749630253,0.04396624012113876,51.6,4.5,95.4,-637.69531,-26.85547,803.71094,-0.019318525891549636,0.03304135166828025,-0.07900616831587771,50.85,23.25,41.1
-903.32031,50.29297,-249.51172,-0.04902909121532391,0.33920665998727517,0.039969436134071744,-2.55,25.35,22.8,265.13672,-37.59766,943.84766,0.004529827540626083,0.04143498910697138,-0.06888046612750741,52.95,5.55,95.4,-638.18359,-46.38672,819.33594,-0.010525208054151804,0.02145027103993551,-0.05089432458693025,51.15,20.7,40.65
-964.84375,78.61328,-251.95312,0.007594102108352528,0.33068002845958205,0.1077840296873862,-2.55,25.35,22.8,288.57422,-18.55469,944.82422,0.05662319332367644,0.016520588567677526,-0.04836289903983767,52.95,5.55,95.4,-617.67578,-71.77734,797.85156,-0.058888281626914674,-0.013855994398657782,-0.04210100674953242,52.05,20.85,40.5
-979.49219,103.02734,-239.74609,-0.035039753661813756,0.3365420658182554,0.11524496317381157,-2.7,25.8,24.0,294.92187,6.34766,969.72656,0.10485292374158693,0.07607506237007844,-0.053292581512095656,52.95,5.55,95.4,-624.02344,-76.17188,823.24219,-0.1103154552344788,-0.06781476808623968,-0.04356655972243205,52.05,20.85,40.95
-943.84766,114.74609,-278.80859,-0.07474267801910597,0.33547619324406247,0.1244379614099161,-1.8,25.65,22.8,320.80078,1.46484,945.80078,0.09152977836356303,0.1029876903699806,-0.12323892021379601,52.05,5.7,96.0,-601.5625,-62.01172,812.5,-0.11497862592995724,-0.1305666850782942,-0.08739963122164364,50.85,21.0,40.05
-919.43359,109.86328,-281.25,-0.015454890526409788,0.2800520411165061,0.16041041902399564,-2.4,25.5,23.25,352.53906,18.06641,931.15234,0.08926486459324998,0.03370754384376649,-0.10525260414029364,53.4,3.75,96.45,-583.49609,-63.47656,820.3125,-0.1569464640575625,-0.0676814249313873,-0.11724353970027028,51.9,20.25,40.65
-942.38281,104.00391,-277.83203,-0.045698304870817934,0.26739508791396843,0.164540566165915,-3.75,25.5,22.95,363.28125,2.92969,953.61328,0.09512707648484854,0.025447249559927724,-0.11564464357251827,51.9,6.3,95.7,-562.01172,-41.99219,832.03125,-0.14295712650405235,-0.08526806060618297,-0.12297240843701647,51.9,20.25,40.65
-946.77734,93.75,-306.15234,-0.08673361357908262,0.3050996102777272,0.13349761649116829,-3.75,25.5,22.95,321.28906,-3.41797,919.43359,0.02704597115475453,-0.0559571756811154,-0.1325650870718277,51.9,6.3,95.7,-569.33594,-61.03516,785.64453,-0.1184425808963904,-0.16920373686139348,-0.10352071392353968,51.0,20.55,40.2
-910.64453,51.26953,-328.61328,-0.014655355196071187,0.25074115619143855,0.11564464357251827,-2.1,24.75,21.9,336.91406,-0.48828,910.64453,-0.01585457092511649,-0.14722044226789888,-0.11457894553125055,52.5,4.95,95.55,-570.80078,-67.38281,761.23047,-0.09192963329519492,-0.2510076679682181,-0.04556513624889076,51.9,20.7,39.6
-894.53125,32.71484,-315.91797,0.04076879693148514,0.24328022270501318,0.20464317092191392,-3.75,25.05,23.7,313.47656,-52.73438,973.14453,0.1293674693492489,-0.04889592259339674,-0.1212403436873373,52.65,4.8,96.45,-576.66016,-54.6875,844.72656,-0.05582383252626303,-0.21343648875931176,-0.0648836621404404,50.55,18.75,42.75
-912.59766,20.01953,-326.66016,0.008127125661911596,0.2547381347114308,0.09459422746421467,-4.05,26.4,22.8,292.48047,-32.22656,981.44531,0.18132766651037208,-0.06341810916754076,-0.1637412053685016,51.75,5.4,95.25,-582.51953,-30.27344,859.86328,0.002398082392240209,-0.19265240989486246,-0.008793317837397832,51.15,20.25,42.15
-953.125,29.29688,-332.51953,0.06621587195848767,0.22076425362380997,0.09619294905904148,-4.05,26.4,22.8,312.01172,-39.55078,991.69922,0.17133530747685413,-0.10565245907192554,-0.1301670046795875,50.85,5.55,95.1,-591.30859,-6.34766,918.45703,0.10618530809255941,-0.19478415504324836,0.017586461141870464,51.9,20.25,42.15
-1007.32422,51.75781,-355.46875,0.09885754322806121,0.07980552911329111,0.06115319539722772,-4.2,25.8,22.95,336.42578,-13.18359,974.60937,0.14095872451051883,-0.06968000145784602,-0.12963398112602842,51.6,6.3,95.4,-565.42969,-6.83594,887.69531,0.08913169597132281,-0.2047763395438411,0.0839356762552105,51.45,20.55,42.0
-1050.78125,81.54297,-396.97266,0.06888046612750741,-0.007061253087718659,-0.007594102108352528,-3.6,24.9,21.45,377.44141,0.97656,971.19141,0.12057432604477626,-0.11324656118027807,-0.1099157748357721,53.4,4.8,95.4,-542.48047,24.41406,850.58594,0.11817606911961086,-0.16653896815944855,0.09845786282935451,51.45,20.55,42.0
-1028.32031,105.95703,-419.43359,0.02038439846574257,-0.17679783896974602,-0.07447634077525163,-3.15,25.8,22.95,379.39453,47.36328,953.125,0.1991806394290221,-0.0811377389313384,-0.13389747142280017,53.4,4.8,95.4,-530.27344,54.6875,908.69141,0.03757117920890633,-0.11857574951831756,0.06168604441786158,51.45,19.8,40.5
-1001.46484,77.63672,-406.25,0.00279793732387211,-0.31908877329831214,-0.0361056262360067,-4.05,25.65,22.5,371.09375,72.75391,926.75781,0.1525498051388636,-0.04276719892501865,-0.10645181986933895,53.4,6.75,95.7,-531.25,32.22656,797.36328,0.08819916655198225,-0.11870909267316991,0.08540122922811014,51.45,19.8,40.5
-1017.57812,71.28906,-420.41016,-0.08366916447843097,-0.373047546985894,-0.11790973187575651,-4.05,25.65,22.5,374.02344,103.02734,844.72656,0.1398928519363259,-0.019851374912183504,0.003463954966433146,50.85,5.55,95.7,-540.03906,48.82813,832.03125,-0.009059655081252166,-0.17786371154393893,0.04956194023595778,50.7,19.35,42.6
-980.95703,14.16016,-362.79297,-0.13403064004472734,-0.44965545837660625,-0.09272899409260832,-4.2,24.0,21.6,368.16406,43.94531,896.48437,0.1103154552344788,0.048762579438544375,0.0738101485997654,52.8,6.15,94.8,-547.36328,65.42969,861.32812,-0.21103823183414636,-0.1333644478692411,0.051960197161123184,52.05,20.55,41.55
-913.57422,-10.74219,-288.57422,-0.04170132635082572,-0.4318024854579563,-0.05542415212755633,-3.45,24.0,22.95,376.46484,29.29688,970.70312,0.02558041818185489,0.08766614299842318,0.13722825776730616,51.6,6.3,94.65,-546.875,27.34375,834.96094,-0.1771975193684527,-0.11604432397122498,0.03077643789796721,49.95,20.55,42.3
-832.03125,-1.95312,-208.98437,-0.03424039286440035,-0.31162783981188674,-0.1135130729570576,-4.35,23.85,23.55,386.23047,-43.45703,967.77344,0.021716608283789844,0.14775346582145796,0.13962634015954636,51.9,5.25,96.15,-556.15234,23.4375,868.65234,-0.20451000229998678,-0.13429715182150687,-0.0058622118915985545,51.45,19.35,42.6
-937.01172,32.22656,-152.83203,-0.0762082309920056,-0.11777638872090417,-0.08646710180230308,-3.45,24.3,24.0,324.21875,-27.83203,947.26562,0.0924624823158288,0.1196416220925105,0.16960341726010017,52.8,6.6,94.8,-584.96094,29.29688,869.14062,-0.25607051906240325,-0.025313906405075356,0.0831363154577971,51.45,19.35,42.6
-979.00391,16.60156,-116.69922,-0.03304135166828025,-0.13842729896342626,-0.07913933693780488,-3.45,24.3,24.0,339.84375,-18.55469,928.22266,0.13203223805119385,0.06248540521527499,0.11364624157898477,52.8,6.6,94.8,-579.58984,13.18359,842.28516,-0.2208974222457371,-0.021183759263155976,0.11457894553125055,50.25,20.1,42.0
-949.21875,20.50781,-103.02734,-0.06928032105913931,-0.0041301471419193814,-0.14935218741628475,-4.65,24.3,24.0,363.76953,7.8125,929.6875,0.1474869540446784,0.10605213947063225,0.09126344111970869,52.8,5.7,94.5,-572.26562,-1.46484,850.58594,-0.29350835511645723,-0.009459335479958867,0.13469683222021359,49.95,19.8,41.25
-983.39844,51.75781,-112.30469,-0.07434299762039927,0.13602904203826086,-0.11058196701125833,-4.65,23.85,23.85,380.37109,30.27344,944.33594,0.26899380950879526,0.221430271266371,0.13403064004472734,52.95,5.25,95.1,-548.82812,12.69531,835.44922,-0.2857810843861775,-0.07114555443074566,0.17426641342265342,49.95,19.8,41.25
-1016.11328,48.82813,-107.42188,-0.06514999938429474,0.14788663444338515,0.010924888452858507,-2.7,24.3,22.65,423.33984,54.19922,1034.66797,0.28351599608293926,0.1358958734163337,0.16320818181494254,51.75,6.6,96.0,-509.76562,11.23047,861.32812,-0.2715252350558878,-0.011724423783197109,0.08993105676873621,51.45,20.55,42.6
-1068.35938,23.92578,-132.32422,-0.1131133925583509,0.2696600016842815,-0.07141189167459998,-2.55,25.65,23.55,393.06641,85.44922,988.76953,0.18385909205746465,0.0186523337160634,0.2027779375503076,51.75,6.6,96.0,-542.48047,13.67187,871.09375,-0.362522164398817,-0.021583439661862675,0.08993105676873621,51.45,20.55,42.6
-1060.05859,20.99609,-193.35937,-0.11910877307187663,0.2424808619075998,-0.08007204089007065,-3.0,23.4,23.1,395.01953,75.19531,916.99219,0.008926486459324997,0.10938292581513821,0.29617312381840216,53.1,6.6,95.25,-525.87891,-9.27734,841.30859,-0.43619914437665525,0.023182161256689485,0.14682076186919218,50.7,21.15,43.35
-1076.66016,57.12891,-212.40234,-0.05302606973531612,0.27099238603525394,-0.014255674797364485,-3.0,23.4,23.1,364.74609,69.82422,896.48437,-0.023715184810248553,0.05475795995207009,0.2731241311836399,53.7,6.3,95.1,-493.16406,-22.46094,862.30469,-0.4336677188295626,-0.0007993607974134029,0.13776110678794004,51.75,21.6,42.0
-1091.79688,93.26172,-219.23828,-0.10711783751189999,0.23875039516438712,-0.04902909121532391,-3.15,25.5,23.7,414.55078,63.47656,909.66797,-0.0458314734927451,0.04330022247857772,0.3284149401563438,53.7,6.3,95.1,-474.60937,-33.20313,873.04687,-0.4473905446062933,-0.01212410418190381,0.11577798672737065,49.95,21.6,43.35
-1070.3125,122.07031,-237.30469,-0.18066147433488583,0.24874275419790506,-0.028245012350874635,-3.0,25.65,22.8,416.99219,52.24609,961.42578,0.0009327039522657697,0.1276355791324949,0.3597244016078701,51.75,6.9,95.55,-455.07812,-47.85156,853.02734,-0.46204589980236443,0.0920628019171221,0.07460950939717881,51.6,20.25,43.2
-1065.91797,111.81641,-249.02344,-0.15774582485497587,0.17786371154393893,-0.04982845201273731,-4.65,24.6,22.8,495.60547,37.10938,946.28906,0.023048992634762316,0.0017320647496791726,0.34640125622984613,52.95,6.0,95.7,-475.09766,-64.45313,916.50391,-0.48083157667328025,0.10711783751189999,0.11671051614671123,50.25,21.9,42.6
-1041.50391,95.70313,-260.25391,-0.20784078864449274,0.16254216417238151,-0.06754825630946014,-3.6,24.9,22.5,429.19922,-18.55469,978.02734,-0.17093562707814744,0.15721280130141685,0.39436447487097714,52.95,6.75,94.35,-501.46484,-96.67969,888.67187,-0.45578400751205916,0.13389747142280017,0.06541651116107426,51.75,21.15,44.1
-987.79297,67.38281,-263.18359,-0.2600673230494703,0.18679019800326394,-0.1029876903699806,-3.6,24.9,22.5,456.05469,-68.35938,979.49219,-0.16400771714528115,0.1248376418086228,0.3827733942426324,52.95,6.75,94.35,-506.83594,-114.74609,912.59766,-0.40688825945158763,0.16041041902399564,0.08926486459324998,51.75,21.15,44.1
-983.39844,48.82813,-244.14062,-0.2031776179490143,0.07474267801910597,-0.01212410418190381,-3.0,25.35,21.75,433.10547,-150.87891,979.00391,-0.1970490688135614,0.09339518626809457,0.3028345219744889,52.2,6.3,95.4,-549.80469,-142.08984,934.57031,-0.3815741785135871,0.16400771714528115,0.07301078780235198,51.15,21.45,43.2
-898.92578,12.69531,-228.51562,-0.15841201703046212,0.07101221127589329,-0.06594953471463334,-5.1,26.1,23.1,403.32031,-186.03516,1011.71875,0.01638741994575036,-0.037171498810199634,0.2087733180638333,54.45,6.0,95.4,-570.80078,-163.08594,911.13281,-0.3100291182170599,0.15561407970659,0.16254216417238151,51.15,21.45,43.2
-860.83984,3.41797,-261.71875,-0.14015918918018025,0.15348233455820415,-0.011857592405124276,-3.45,24.3,21.9,375.97656,-141.60156,1015.13672,0.09819135105257498,0.01305663360124438,0.14229093432856613,53.7,6.75,95.4,-549.31641,-177.73437,910.64453,-0.1698697545039545,0.17733086252330507,0.16680547993622805,51.9,20.25,42.75
-894.04297,21.97266,-268.06641,-0.018385996472209065,0.23115629305603458,-0.011990761027051442,-4.35,26.1,22.8,322.26562,-44.43359,1022.46094,0.18305973126005126,0.02651294760119546,0.08220361150553133,53.4,6.75,94.65,-574.70703,-174.31641,932.12891,-0.11284688078157137,0.19065383336840377,0.21010570241480578,52.05,20.1,43.05
-936.52344,40.52734,-268.06641,0.009059655081252166,0.15974422684850942,0.04383307149921159,-4.35,26.1,22.8,316.40625,51.75781,974.60937,0.24820973064434598,0.16440739754398787,0.07927250555973205,53.85,6.15,96.3,-587.40234,-172.36328,889.64844,0.027845331952167932,0.14895250701757806,0.19838127863160868,51.75,19.8,43.05
-949.21875,83.98438,-300.78125,-0.017852972918649995,0.16587295051688747,0.10911641403835869,-3.3,25.65,22.8,270.99609,149.90234,933.10547,0.031442630073453444,0.05422511093143622,0.1424242774834185,52.5,6.9,95.25,-597.65625,-135.25391,886.23047,0.05249304618175705,0.09605978043711431,0.0722112524720134,52.05,20.55,43.05
-972.16797,80.07813,-315.42969,0.034773416417959425,0.06781476808623968,0.1374945950111605,-2.25,24.9,22.5,321.77734,89.35547,932.12891,-0.19691572565870902,0.024914226006368657,0.196249708016148,52.5,6.9,95.25,-593.26172,-101.07422,838.37891,-0.03663864978956576,0.08833233517390941,0.08286980368101757,50.25,19.05,44.4
-950.68359,104.00391,-301.75781,0.0275788201753884,0.0019984019935335075,0.08859884695068895,-3.45,25.8,23.7,358.88672,23.92578,931.15234,-0.1716018192536337,-0.021716608283789844,0.18425877245617137,52.5,6.9,95.25,-542.48047,-66.89453,846.19141,-0.09752533341001395,0.09033073716744291,0.14828631484209184,51.75,21.6,42.6
-944.33594,117.1875,-288.57422,-0.03317452029020742,0.022915824012835147,0.024781057384441488,-3.6,26.1,22.05,392.57812,-31.73828,913.08594,-0.15787899347690307,0.04250068714823912,0.16160946022011574,53.85,7.65,94.8,-518.55469,-68.84766,894.04297,-0.13509651261892028,0.061819213039788753,0.07167840345137952,51.75,21.6,42.6
-972.16797,93.26172,-281.25,0.007727445263204894,-0.032375159492794015,0.06874729750558024,-3.6,26.1,22.05,391.11328,-42.48047,891.11328,-0.05662319332367644,0.034107224242473186,0.14175808530793224,53.85,6.6,93.75,-480.46875,-76.66016,835.9375,-0.12030781426799673,0.11577798672737065,0.06101985224237535,51.75,19.8,42.6
-955.07812,71.28906,-262.20703,-0.032375159492794015,-0.10365388254546684,0.05915461887076901,-4.2,26.55,22.65,399.41406,-36.62109,894.04297,-0.03677181841149293,0.028777861371508503,0.11298004940349854,53.1,6.15,96.0,-464.84375,-86.91406,842.77344,-0.09832469420742734,0.17439975657750578,0.06901380928235978,51.75,19.8,42.6
-924.31641,58.59375,-251.46484,-0.0373046674321268,-0.05875493847206231,0.10205516095064003,-3.0,25.35,22.8,411.13281,-32.71484,899.41406,0.02051756708766974,0.05289272658046376,0.14988521096984384,53.1,6.15,96.0,-492.67578,-67.87109,872.55859,-0.06261874837012736,0.17413324480072626,0.06341810916754076,51.75,19.8,42.6
-954.58984,17.57813,-236.81641,0.08153759386297028,-0.18545781365229144,0.0058622118915985545,-3.6,24.9,22.05,395.01953,-44.43359,943.35937,0.05302606973531612,0.07420982899847209,0.1434899755246862,53.55,6.15,95.25,-499.51172,-71.77734,862.79297,-0.09752533341001395,0.2129034652057527,0.06461715036366086,52.65,19.5,43.8
-937.98828,33.69141,-232.42187,0.08660027042423024,-0.19558351584066178,0.0058622118915985545,-4.2,25.5,23.7,387.20703,15.625,940.91797,0.06968000145784602,0.08446852527584436,0.12323892021379601,52.05,6.15,94.5,-515.13672,-80.56641,859.375,-0.07754061534297808,0.1901209843477699,0.007194421709645826,51.6,19.5,41.7
-947.26562,58.10547,-221.19141,0.07420982899847209,-0.09819135105257498,0.05116083636370978,-4.2,25.5,23.7,356.93359,33.20313,932.12891,-0.00839363743869113,0.005062851094185151,0.13389747142280017,52.05,6.15,94.5,-524.41406,-60.05859,851.5625,-0.16613928776074183,0.17080245845622027,0.027712163330240767,51.75,20.85,42.3
-956.05469,74.70703,-213.37891,0.04556513624889076,-0.10871673363965198,0.0361056262360067,-3.15,24.75,22.95,350.58594,16.11328,920.41016,-0.04170132635082572,-0.0022649137703130416,0.14948553057113714,53.1,6.9,94.8,-526.36719,-71.77734,877.92969,-0.14002602055825306,0.18439211561102373,0.010525208054151804,52.95,20.25,43.5
-966.30859,88.37891,-209.96094,0.07833997614039148,-0.13109953409892808,0.09446088430936231,-3.15,25.5,22.65,371.09375,28.80859,966.79687,-0.043699902877284424,-0.005329188338039486,0.17573196639555305,54.3,6.6,95.25,-558.10547,-66.89453,867.67578,-0.14109189313244602,0.14881933839565087,0.04170132635082572,52.05,20.85,42.0
-993.65234,98.63281,-225.58594,0.055690663904335864,-0.11804290049768368,0.013722825776730615,-3.3,26.1,22.8,362.30469,-7.32422,946.28906,-0.03304135166828025,-0.03983609297921937,0.17413324480072626,53.1,6.6,94.8,-538.57422,-70.3125,837.40234,-0.16480707794269456,0.11098164740996504,0.03450690464117989,52.65,21.75,41.4
-957.51953,110.83984,-228.02734,0.021316927885083145,-0.10751769244353188,-0.028245012350874635,-3.6,25.35,24.15,376.46484,-5.85937,948.24219,-0.024381376985734785,-0.03597245761407953,0.1252373222073295,53.1,6.6,94.8,-558.10547,-66.40625,860.35156,-0.12563700260603622,0.09765850203194111,0.11391275335576431,52.65,21.75,41.4
-957.03125,116.69922,-235.35156,0.0093261668580317,-0.06101985224237535,-0.02038439846574257,-3.6,25.35,24.15,393.06641,16.60156,913.57422,0.030909606519894377,0.0365053066347134,0.18505813325358475,52.8,5.4,95.25,-568.84766,-92.28516,832.51953,-0.06235223659334782,0.07074587403203896,0.0482297304179105,50.55,19.5,42.45
-988.28125,110.35156,-226.07422,-0.05089432458693025,-0.027179139776681696,0.009592678634811233,-3.6,26.7,22.05,337.40234,21.48438,943.84766,0.08207044288360416,0.05688970510045597,0.12990049290280797,54.0,5.55,95.1,-574.21875,-73.24219,837.40234,0.00186523337160634,0.07740727218812571,0.07327712504620633,50.55,19.5,42.45
-1002.44141,87.89063,-233.88672,-0.04210100674953242,-0.005995380513525721,-0.10951609443706539,-4.5,25.5,24.0,336.42578,49.31641,942.38281,0.08953137637002952,0.0579555776746489,0.13522968124084744,52.8,6.15,94.5,-600.09766,-34.66797,856.44531,-0.06088668362044818,0.10884990226157916,0.05036147556629638,52.95,21.0,41.1
-964.35547,87.40234,-267.08984,-0.017986141540577164,-0.0029311059457992773,-0.018385996472209065,-3.15,26.25,23.25,316.89453,73.24219,964.84375,0.0660827033365605,-0.05409194230950906,0.14788663444338515,52.65,6.0,96.15,-589.35547,-4.88281,846.19141,-0.07460950939717881,0.056356856079822104,0.05968764242432808,50.85,21.0,42.45
-964.84375,81.05469,-266.11328,-0.0652833425391471,0.028245012350874635,-0.05728938549916267,-3.15,26.25,23.25,345.70312,77.63672,975.58594,-0.009192998236104533,-0.015454890526409788,0.21396933777994562,51.9,6.0,94.05,-583.98437,19.04297,880.85937,-0.06594953471463334,0.10045643935581322,0.02731248293153406,51.15,20.7,42.15
-982.42187,117.1875,-269.53125,-0.052226708937902724,0.04982845201273731,-0.18132766651037208,-2.7,25.05,21.9,344.72656,53.71094,992.1875,0.019185357269622467,0.035839288992152364,0.2127702965838255,52.95,6.75,95.1,-604.49219,41.99219,865.23437,-0.12976714974795558,0.08153759386297028,0.019318525891549636,52.5,21.15,41.55
-1005.37109,85.9375,-279.29687,-0.017852972918649995,0.03317452029020742,-0.1540153581117632,-4.2,25.05,24.3,348.14453,89.35547,964.35547,-0.03250850264764638,-0.08500154882940344,0.26246557997463565,52.95,6.75,95.1,-581.54297,-10.74219,813.96484,-0.2079739572664199,0.07447634077525163,-0.0007993607974134029,52.5,21.15,41.55
-1038.57422,126.95313,-301.26953,-0.016120908168970823,-0.02198312006056938,-0.12976714974795558,-3.3,26.7,23.1,313.96484,52.24609,940.91797,-0.03930324395858551,-0.015588059148336955,0.24820973064434598,53.55,6.15,94.5,-610.35156,-25.39063,841.30859,-0.2892450393526107,-0.03637213801278623,0.03277483989150072,50.85,20.7,40.65
-1027.34375,109.375,-300.78125,-0.05076115596500308,-0.0019984019935335075,-0.2083736376651266,-3.3,24.9,23.1,318.35937,17.57813,911.62109,-0.06368444641139509,0.04116847733019184,0.2623322368197833,54.0,6.75,95.4,-584.96094,-91.30859,796.38672,-0.3202878144944322,-0.08193727426167699,0.05089432458693025,50.85,20.7,40.65
-1027.83203,171.38672,-329.58984,-0.05808874629657607,-0.11084847878803786,-0.10458658649773261,-3.3,24.9,23.1,330.56641,-12.69531,933.59375,0.003996978519992214,0.11417909059961863,0.22835835573216248,53.7,7.8,95.4,-584.47266,-136.23047,809.57031,-0.2849817235887641,-0.02038439846574257,0.05049464418822355,52.35,19.5,41.7
-1006.83594,182.12891,-307.12891,-0.1248376418086228,-0.1464210814704855,-0.1057856276938527,-3.0,25.35,22.5,342.28516,-27.83203,928.22266,-0.025980098580561592,0.0932618431132422,0.17360022124716717,53.4,7.5,95.4,-568.35937,-161.13281,841.30859,-0.3226860714195976,-0.027845331952167932,0.012923464979317213,51.0,20.85,40.5
-930.66406,144.04297,-309.57031,-0.219698381049617,-0.08020520951199782,-0.14415616770017245,-4.05,25.65,23.1,377.92969,-16.11328,936.52344,-0.10525260414029364,0.09192963329519492,0.16813786428720054,53.4,6.75,95.1,-563.47656,-162.59766,828.125,-0.26060034660302933,-0.02744565155346123,0.014389017952216851,51.15,19.2,42.15
-899.90234,133.30078,-271.48437,-0.18865543137487029,-0.12830177130798115,-0.07367680544491303,-3.15,25.8,22.35,373.04687,-21.97266,917.96875,-0.06435063858688132,0.0182526533173567,0.15654678365885577,52.95,6.3,94.35,-536.62109,-109.375,854.00391,-0.14775346582145796,-0.003996978519992214,0.041301645952119014,52.05,19.8,42.0
-922.36328,101.07422,-232.91016,-0.18958813532713606,-0.08593407824874401,-0.1337641282679478,-3.15,25.8,22.35,349.60937,-35.64453,932.12891,-0.05875493847206231,0.0559571756811154,0.11084847878803786,52.95,6.3,94.35,-572.75391,-114.25781,852.53906,-0.08753297437649601,-0.01771980429672283,0.07167840345137952,51.45,20.1,41.25
-909.17969,49.80469,-193.35937,-0.1593445464498027,-0.01638741994575036,-0.15468155028724945,-3.15,26.55,22.95,335.44922,-25.39063,947.75391,-0.03384071246569365,0.06261874837012736,0.0811377389313384,52.95,7.5,94.05,-587.89062,-98.63281,848.63281,-0.04596481664759746,-0.01305663360124438,0.023048992634762316,51.0,20.1,43.05
-916.50391,26.36719,-178.22266,-0.05649002470174927,-0.03384071246569365,-0.13682840283567427,-3.15,26.55,22.95,300.78125,1.46484,926.75781,0.025047394628295826,0.0063950609122324234,0.11124815918674456,52.95,7.5,95.7,-604.00391,-112.30469,814.94141,-0.01811948469542953,-0.07047936225525941,0.004263315763846549,51.0,20.1,43.05
-878.41797,45.89844,-198.73047,-0.09552675688355523,0.0660827033365605,-0.1228392398150893,-3.6,24.6,23.1,298.33984,5.85937,921.875,0.04276719892501865,-0.009059655081252166,0.1033873707686873,52.05,6.6,95.55,-587.40234,-113.28125,805.17578,-0.0002665117767795341,-0.04356655972243205,0.022649312236055614,51.15,20.7,41.7
-859.375,44.43359,-249.51172,-0.011058231607710873,0.1528161423827179,-0.15228329336208404,-3.6,26.4,23.55,286.13281,-2.92969,933.10547,0.0373046674321268,0.009459335479958867,0.05235987755982989,52.05,6.6,95.55,-587.40234,-118.16406,833.98437,0.04756353824242427,-0.03983609297921937,0.010392039432224637,51.15,20.7,41.7
-886.71875,74.21875,-237.30469,0.031309286918601076,0.18305973126005126,-0.019984718067035872,-4.05,25.65,23.1,291.01562,-14.64844,941.89453,0.06368444641139509,0.006128723668378088,0.0279785005740951,52.65,5.25,94.35,-590.33203,-147.46094,819.33594,0.047696706864351436,-0.08846550379583658,0.04809656179598333,51.15,20.7,41.7
-879.88281,89.35547,-256.83594,-0.03424039286440035,0.2302235891037688,-0.014389017952216851,-4.05,24.6,24.6,306.15234,-12.20703,897.46094,0.08300314683586993,-0.0190520141147701,0.017586461141870464,53.4,7.5,95.1,-558.59375,-171.875,775.87891,0.1228392398150893,-0.0652833425391471,0.04423275189791829,52.35,19.5,41.4
-882.8125,60.54688,-278.80859,-0.015055210127703087,0.32348543221701104,-0.04942877161403061,-4.05,24.6,24.6,316.40625,-37.10938,928.71094,0.04996179516758968,0.02944405354699474,-0.04236751852631195,53.4,7.5,95.1,-583.49609,-165.52734,832.03125,0.09805818243064782,-0.13083302232214852,0.030509926121187674,52.35,20.7,43.2
-854.49219,64.45313,-269.53125,0.027845331952167932,0.24701068944822588,0.08247012328231085,-4.05,24.6,23.55,318.35937,-66.89453,990.23437,0.13522968124084744,-0.04223434990438478,-0.07247776424879292,52.5,5.7,95.25,-577.14844,-169.92187,802.73437,0.1462879128485583,-0.12670287518022916,0.04170132635082572,51.15,20.25,43.2
-886.23047,66.89453,-301.75781,0.006661572689011957,0.297771845413229,0.06781476808623968,-3.75,25.5,22.65,308.59375,-32.22656,982.91016,0.1476202971995308,-0.015055210127703087,-0.10605213947063225,53.55,7.65,96.3,-576.17187,-160.15625,822.75391,0.1945176432664688,-0.12870145170668787,0.04436592051984546,51.9,20.7,42.75
-925.78125,82.51953,-314.45312,-0.019185357269622467,0.2864471020287386,0.09952373540354745,-3.3,25.35,23.1,302.24609,-24.41406,940.91797,0.1119141768293056,-0.07287744464749962,-0.16560643874010797,52.95,8.25,96.15,-614.25781,-152.34375,849.60937,0.19771508645612243,-0.07341046820105869,-0.0291777163031404,52.35,20.7,41.7
-933.10547,80.56641,-325.19531,0.0373046674321268,0.23568612059666066,0.13922665976083967,-4.5,26.25,21.9,300.29297,-26.85547,955.07812,0.19998017475936067,-0.04796321864113097,-0.1301670046795875,52.95,8.25,96.15,-597.65625,-170.41016,798.33984,0.2194318692728375,-0.13123270272085524,0.005329188338039486,49.95,20.1,42.0
-922.85156,91.79688,-343.26172,-0.01305663360124438,0.25020830717080467,0.10525260414029364,-4.5,26.25,21.9,284.17969,-12.20703,966.79687,0.12577034576088858,-0.060087322823034785,-0.15588059148336955,52.95,8.25,96.15,-590.82031,-126.46484,823.73047,0.24434609527920614,-0.10538594729514601,-0.11484528277510488,49.95,20.1,42.0
-954.10156,102.53906,-333.98437,-0.013456313999951081,0.18279321948327173,0.09952373540354745,-5.55,25.8,22.35,301.75781,-2.44141,978.51562,0.11937511031573096,-0.06914697790428695,-0.1545482071323971,51.75,8.4,94.2,-580.07812,-141.11328,862.30469,0.24807656202241882,-0.11897542991702426,-0.048496242194690044,51.9,22.2,41.7
-990.72266,126.95313,-354.00391,0.04636449704630416,0.09805818243064782,0.1637412053685016,-2.7,25.8,23.7,316.89453,-19.53125,987.79297,0.07900616831587771,-0.09272899409260832,-0.2038438101245005,52.2,5.55,96.15,-571.77734,-134.27734,852.05078,0.28018520973843325,-0.12870145170668787,-0.10458658649773261,51.9,22.2,41.7
-973.63281,112.79297,-356.44531,-0.06195255619464112,0.12417144963313657,0.1244379614099161,-4.35,25.35,22.05,325.68359,0.0,973.14453,0.09712565301130725,-0.08007204089007065,-0.21396933777994562,53.55,6.6,94.2,-568.35937,-111.81641,847.65625,0.3362757285744011,-0.09845786282935451,-0.10471975511965978,51.0,21.15,42.3
-939.94141,108.39844,-338.86719,0.0011990411961201044,0.057689065897869374,0.09352835489002174,-3.75,24.3,23.25,341.79687,14.16016,941.40625,0.051960197161123184,-0.12683621833508152,-0.21237061618511882,52.95,7.8,94.35,-570.3125,-122.07031,845.21484,0.3288146205550505,-0.08673361357908262,-0.09259565093775597,51.0,19.8,42.6
-936.52344,106.44531,-315.91797,0.04449926367469782,0.0369049870334201,0.13509651261892028,-3.75,24.3,23.25,355.95703,32.71484,983.88672,0.0377045223637587,-0.13602904203826086,-0.20544253171932733,52.05,8.1,96.0,-568.84766,-112.30469,866.21094,0.27712093517070685,-0.023715184810248553,-0.14149157353115271,51.0,21.15,42.3
-987.30469,114.74609,-329.58984,-0.020650910242522108,0.08406884487713767,0.04436592051984546,-4.95,26.25,20.55,374.02344,41.50391,1014.64844,0.06714857591075343,-0.1333644478692411,-0.21916535749605795,53.55,7.65,94.2,-561.52344,-114.74609,881.34766,0.27805363912297265,-0.00839363743869113,-0.10951609443706539,50.7,22.35,42.6
-1018.55469,107.42188,-329.58984,-0.00039968039870670147,-0.03943641258051267,0.039569755735365045,-4.05,27.15,22.5,354.98047,23.92578,1012.69531,-0.007993957039984428,-0.10125580015322662,-0.19145336869874238,53.55,7.65,94.2,-571.77734,-83.49609,851.07422,0.3288146205550505,-0.03943641258051267,-0.1513507639427435,51.6,21.75,42.45
-1023.4375,126.95313,-327.14844,0.04036911653277844,-0.048762579438544375,0.1159111553492978,-4.35,27.45,21.75,354.00391,30.76172,967.77344,-0.1192419416938038,-0.16680547993622805,-0.17200149965234038,52.2,7.8,94.65,-567.38281,-92.28516,851.5625,0.34267078948663354,-0.019851374912183504,-0.10551911591707318,51.0,21.9,43.35
-1011.71875,143.55469,-327.14844,0.05289272658046376,-0.09685914123452771,-0.010125527655445103,-4.35,25.35,21.0,367.1875,-37.59766,953.61328,-0.10485292374158693,-0.13109953409892808,-0.17493260559813967,51.9,7.05,95.1,-558.10547,-74.21875,879.39453,0.30896324564286703,-0.05036147556629638,-0.10751769244353188,51.0,21.9,43.35
-1017.08984,119.14063,-321.77734,-0.02224963183734891,-0.05728938549916267,-0.05009496378951684,-4.35,25.35,21.0,375.0,-15.13672,960.9375,-0.03304135166828025,-0.14562172067307208,-0.24367990310371992,51.75,6.9,96.3,-548.82812,-53.22266,815.42969,0.3814410098916599,-0.09059724894422246,-0.11910877307187663,51.75,20.1,43.05
-1040.03906,107.91016,-306.15234,0.021583439661862675,-0.13349761649116829,-0.004396658918698916,-5.25,27.0,22.35,374.02344,-20.01953,965.82031,-0.03117611829667391,-0.02744565155346123,-0.2496752836172456,51.75,6.9,96.3,-552.73437,-44.43359,838.37891,0.3791760961213469,-0.07234459562686575,-0.09086376072100198,51.75,20.1,43.05
-1060.05859,78.61328,-283.69141,-0.024381376985734785,-0.11058196701125833,-0.0648836621404404,-3.6,24.9,20.7,376.95312,1.95312,958.00781,0.04103530870826468,0.0031976177225788113,-0.2619325564210766,51.75,6.9,94.8,-553.22266,-30.76172,866.69922,0.32388511261571773,-0.07061253087718658,-0.1204409828899239,51.15,20.7,43.2
-1023.92578,83.49609,-291.50391,-0.03264167126957355,-0.11804290049768368,0.010924888452858507,-4.05,26.7,22.8,386.71875,-3.41797,959.47266,0.01252378458061051,-0.01851916509413623,-0.2105053828135125,52.05,8.4,95.25,-553.22266,-31.25,847.16797,0.32295258319637715,0.01305663360124438,-0.10698466888997281,51.0,19.8,43.35
-1016.60156,68.84766,-273.92578,0.05915461887076901,-0.18465845285487806,-0.01305663360124438,-4.35,25.65,23.85,379.88281,2.92969,946.28906,0.04889592259339674,-0.0676814249313873,-0.23741801081341463,52.05,8.4,95.25,-567.38281,-26.85547,863.28125,0.3350765128453558,-0.019984718067035872,-0.15681312090271013,50.85,21.45,42.15
-1000.97656,86.42578,-245.11719,0.05169368538434365,-0.11244720038286467,0.025846929958634426,-4.35,25.65,23.85,391.11328,2.92969,963.37891,-0.0005328490206338688,-0.017453292519943295,-0.2883123354003449,53.1,6.9,95.55,-541.99219,10.74219,835.44922,0.3462679130749938,-0.00373046674321268,-0.1184425808963904,50.25,21.6,42.6
-1002.92969,87.40234,-228.02734,-0.014522186574144018,-0.0972588216332344,-0.013456313999951081,-5.1,26.1,22.5,383.30078,4.39453,953.125,0.026779459377974997,-0.009059655081252166,-0.2474103698469326,52.5,7.35,96.0,-555.66406,-20.50781,852.53906,0.32495098518991067,-0.0559571756811154,-0.1337641282679478,50.25,21.6,42.6
-955.07812,87.40234,-221.67969,0.07634157414685798,-0.03464007326310706,0.06195255619464112,-2.25,26.1,22.8,377.44141,33.69141,937.98828,0.05036147556629638,-0.031575798695380616,-0.27099238603525394,51.6,6.75,94.05,-550.78125,13.18359,893.06641,0.3365420658182554,-0.08873201557261612,-0.1301670046795875,51.15,21.45,42.45
-939.45312,80.56641,-195.3125,0.0006661921754862356,0.0041301471419193814,0.10245484134934674,-4.2,27.0,21.6,391.11328,41.99219,951.17187,0.06554985431592662,0.00559570011481902,-0.31069531039254616,51.6,6.75,94.05,-535.15625,5.85937,872.55859,0.4154150655122059,-0.04942877161403061,-0.10725118066675235,51.0,20.55,42.0
-934.57031,83.98438,-187.01172,-0.07647474276878514,0.07820680751846432,0.05702304825530834,-4.2,27.0,21.6,366.21094,41.50391,968.75,0.08739963122164364,-0.01678710034445706,-0.24927560321853892,51.15,6.3,96.15,-550.29297,24.41406,888.67187,0.3571929760607775,0.05449162270821576,-0.1682710329091277,51.0,20.55,42.0
-935.05859,75.68359,-182.12891,-0.04423275189791829,0.06461715036366086,0.13443032044343403,-4.2,27.0,21.6,385.74219,66.40625,940.42969,0.08673361357908262,-0.009859190411590769,-0.261000027001736,52.05,6.9,94.8,-541.99219,19.04297,878.41797,0.32015464587250503,0.05649002470174927,-0.12923430072732173,51.9,19.2,42.15
-949.70703,97.65625,-198.24219,-0.055290983505629165,0.12963398112602842,0.16387437399042878,-3.45,25.05,21.6,360.83984,77.14844,963.86719,0.09539358826162808,-0.06594953471463334,-0.22009806144832372,53.4,6.0,93.3,-551.26953,44.43359,886.23047,0.25713621710367096,0.03837054000631974,-0.12097400644348297,51.9,19.2,42.15
-951.66016,82.03125,-210.9375,-0.18679019800326394,0.1978484296109748,0.11697702792349074,-4.2,25.5,22.95,325.19531,156.73828,919.43359,0.06088668362044818,-0.15175044434145019,-0.12870145170668787,52.2,5.55,93.3,-531.73828,98.14453,852.05078,0.33987285216276136,-0.019718206290256335,-0.11377941020091194,52.05,21.15,42.0
-956.54297,102.53906,-254.88281,-0.12297240843701647,0.1865236862264844,0.12670287518022916,-4.95,25.8,23.25,381.83594,196.77734,904.29687,-0.019984718067035872,-0.1793292645168386,-0.12217304763960307,52.65,7.5,95.1,-546.38672,102.53906,875.48828,0.33174572650084977,-0.011324568851565207,-0.15148393256467063,49.95,21.15,43.05
-975.58594,131.83594,-281.25,-0.15628027188207627,0.19132002554389002,0.10285452174805344,-4.95,25.8,23.25,406.73828,249.51172,872.07031,-0.13509651261892028,-0.17439975657750578,-0.05862176985013514,52.5,6.6,95.25,-524.90234,127.92969,862.30469,0.18252688223941738,-0.04103530870826468,-0.13229857529504815,50.85,21.45,44.25
-940.42969,132.8125,-291.99219,-0.29524041986613636,0.2254272497863632,0.0365053066347134,-4.35,25.8,23.25,399.90234,208.98437,880.37109,-0.17733086252330507,-0.04436592051984546,-0.007993957039984428,52.5,6.6,95.25,-490.72266,119.62891,822.26562,0.12830177130798115,-0.05116083636370978,-0.18106132926651775,50.7,21.15,40.95
-890.13672,104.49219,-289.55078,-0.28991123152809695,0.20371064150257337,0.0843353566539172,-4.35,26.7,22.5,386.23047,118.65234,897.94922,-0.2535390935153107,0.05955429926947571,0.05462479133014293,52.05,5.4,94.8,-483.39844,110.35156,858.88672,-0.03530626543859329,0.03490658503988659,-0.21623425155025866,51.0,21.9,42.0
-952.14844,105.95703,-253.41797,-0.24168150111018638,0.24474577567791284,-0.05249304618175705,-5.1,26.4,22.5,393.55469,-8.78906,897.46094,-0.1893216235503565,0.026779459377974997,0.07207808385008622,52.65,7.5,94.05,-485.83984,97.65625,861.81641,-0.1252373222073295,0.019318525891549636,-0.24954211499531845,51.0,21.15,42.6
-1007.32422,51.26953,-218.26172,-0.2384838833876076,0.22556041840829036,-0.07127872305267281,-5.7,26.7,22.8,397.94922,-77.14844,909.17969,-0.0722112524720134,-0.009592678634811233,0.05808874629657607,52.95,6.3,93.6,-487.30469,60.05859,943.84766,-0.12683621833508152,-0.031309286918601076,-0.22835835573216248,51.0,21.15,42.6
-960.9375,0.0,-255.85937,-0.19318525891549634,0.11724353970027028,-0.10525260414029364,-4.65,26.4,21.75,401.85547,-91.30859,880.85937,0.03250850264764638,-0.021050590641228807,0.04143498910697138,52.8,6.15,95.25,-500.97656,-2.92969,934.08203,-0.07527570157266503,-0.06022049144496195,-0.17559879777362591,52.35,21.45,43.2
-879.39453,-18.55469,-278.32031,-0.1228392398150893,0.06901380928235978,-0.10911641403835869,-4.65,26.4,21.75,416.50391,-71.28906,906.25,0.13882697936213295,-0.24501228745469236,0.022516143614128445,53.7,7.05,94.05,-497.07031,-29.29688,924.31641,0.06741508768753297,-0.05542415212755633,-0.15827867387560976,52.35,21.45,43.2
-907.22656,-17.57813,-239.25781,-0.08286980368101757,0.11537830632866394,-0.04023577337792608,-4.95,26.55,21.9,428.71094,-20.99609,958.98437,0.15561407970659,-0.10272135312612628,0.023715184810248553,52.95,6.3,95.7,-511.71875,-42.48047,942.38281,0.03224199087086685,0.013323145378023914,-0.08686678220100978,51.15,20.25,42.45
-958.98437,-16.11328,-235.35156,0.009725847256738402,0.05728938549916267,-0.0466310088230837,-4.2,27.0,22.35,432.12891,34.66797,953.61328,0.13642872243696755,-0.09792501380872065,0.04929560299210344,52.95,6.3,95.7,-498.53516,-58.10547,912.59766,-0.01212410418190381,0.00652840406708479,-0.011324568851565207,51.15,21.0,42.15
-981.93359,44.92188,-235.83984,0.03983609297921937,-0.014655355196071187,0.07767378396490525,-4.65,26.7,21.45,422.85156,40.03906,1020.01953,0.10205516095064003,-0.12110717506541013,0.04649766566823133,52.95,6.3,95.7,-506.34766,-61.52344,928.71094,-0.006261892290305255,0.0466310088230837,-0.04116847733019184,50.1,20.25,42.45
-948.73047,109.375,-265.13672,-0.014389017952216851,-0.016520588567677526,0.07594189374815126,-4.05,26.1,21.75,393.06641,59.57031,965.82031,0.0466310088230837,-0.18838891959809073,0.05275955795853659,51.9,7.5,95.7,-516.11328,-77.14844,893.06641,0.08793265477520272,0.051960197161123184,0.0019984019935335075,51.0,21.15,40.95
-951.17187,137.69531,-282.22656,-0.05995397966818241,0.012257272803830977,0.12150685546411683,-4.05,26.1,21.75,422.36328,31.73828,955.07812,-0.034773416417959425,-0.20104587280062844,0.07474267801910597,51.0,5.7,94.2,-497.07031,-57.61719,874.02344,0.18625734898263008,0.1103154552344788,-0.03823737138439257,50.55,21.45,42.45
-968.26172,151.36719,-291.01562,-0.09539358826162808,-0.06421746996495417,0.16907039370654112,-4.65,26.1,22.8,408.20312,36.13281,935.05859,-0.048496242194690044,-0.16081009942270233,0.06661555235719438,50.7,6.9,94.2,-493.65234,-34.66797,859.375,0.19105351376711047,0.06581619155978097,-0.022516143614128445,50.25,21.9,41.55
-1020.50781,139.16016,-299.31641,-0.16001073862528895,-0.028245012350874635,0.1601439072472161,-5.1,26.7,23.1,400.87891,34.66797,920.41016,-0.030643269276040042,-0.07047936225525941,0.05955429926947571,50.7,6.9,94.2,-486.81641,-17.57813,804.19922,0.2468775208262987,0.1200413024912172,-0.026912627999902163,50.25,21.9,41.55
-1028.32031,135.25391,-305.17578,-0.19185304909744907,-0.04649766566823133,0.1224395594163826,-4.35,27.15,22.05,393.06641,-4.88281,911.13281,-0.08806582339712987,-0.022116463215421746,0.060487003221741484,51.9,6.3,93.6,-508.30078,19.53125,803.22266,0.08007204089007065,0.11604432397122498,-0.04050228515470561,52.35,20.7,42.45
-1056.15234,122.55859,-318.35937,-0.13816078718664673,-0.10245484134934674,0.25660336808303713,-3.75,26.25,21.6,385.25391,-11.71875,895.99609,-0.0567565364785288,0.016520588567677526,0.029044373148288036,51.9,7.05,95.1,-529.29687,25.87891,778.32031,0.03783769098568587,0.12257272803830976,-0.02224963183734891,50.55,19.5,42.15
-1038.57422,118.16406,-305.17578,-0.12337208883572316,-0.08526806060618297,0.12550383398410905,-3.75,26.25,21.6,375.0,4.88281,911.13281,-0.07394331722169258,0.04996179516758968,0.06088668362044818,51.9,7.05,95.1,-523.92578,-7.8125,793.45703,-0.11018228661255162,0.15801233663175543,-0.07967236049136395,50.55,19.5,42.15
-1000.48828,116.21094,-277.34375,-0.13576270479440652,-0.11218068860608514,0.10352071392353968,-5.25,27.3,22.35,389.16016,-10.74219,924.80469,-0.06101985224237535,0.04609798526952463,0.017986141540577164,52.05,6.15,94.5,-562.98828,-39.55078,822.75391,-0.14535520889629253,0.09392803528872844,-0.11537830632866394,51.45,20.55,43.05
-954.10156,104.00391,-279.78516,-0.05662319332367644,-0.14335680690275904,0.20211174537482135,-4.05,27.15,22.5,370.11719,-9.27734,935.54687,-0.05209336578305035,0.08047172128877735,0.03490658503988659,51.9,6.75,94.65,-583.98437,-73.24219,841.79687,-0.11830941227446322,0.13123270272085524,-0.1353630243956998,51.45,20.1,41.55
-921.38672,105.95703,-286.13281,-0.08446852527584436,-0.12257272803830976,0.1476202971995308,-4.05,27.15,20.4,334.96094,-14.64844,961.91406,-0.06661555235719438,0.08846550379583658,-0.01771980429672283,51.9,6.75,94.35,-601.5625,-116.69922,852.05078,-0.1135130729570576,0.10192181779578767,-0.08233695466038368,52.35,21.75,40.35
-900.39062,105.95703,-274.41406,-0.0843353566539172,-0.02238280045927608,0.11324656118027807,-4.2,27.3,22.65,332.51953,-18.06641,979.00391,-0.0656830229378538,0.0660827033365605,0.03424039286440035,51.9,6.75,94.35,-604.98047,-112.79297,855.95703,-0.03703833018827246,0.08686678220100978,-0.057689065897869374,51.0,21.15,42.3
-898.92578,102.05078,-282.71484,-0.013189976756096747,0.0029311059457992773,0.10312103352483297,-4.2,27.3,22.65,341.79687,-21.97266,998.53516,-0.015321547371557422,0.06088668362044818,0.03357420068891412,51.75,6.9,95.55,-606.44531,-101.5625,867.1875,-0.010125527655445103,0.03317452029020742,-0.0632847660126884,51.0,21.15,42.3
-929.6875,119.14063,-297.85156,-0.03743801058697916,0.019318525891549636,0.07007968185655272,-4.5,26.55,21.9,314.45312,-21.48438,985.35156,-0.05515781488370199,0.019318525891549636,-0.01492186697285072,52.95,5.55,95.1,-620.60547,-88.86719,843.26172,0.08087140168748405,0.06728174453268061,-0.11564464357251827,51.9,20.25,42.15
-925.29297,132.32422,-306.15234,-0.053292581512095656,0.09459422746421467,0.01585457092511649,-4.2,27.75,21.9,313.47656,-21.97266,996.09375,-0.03490658503988659,0.009059655081252166,-0.06701523275590107,52.05,6.6,95.25,-625.97656,-52.24609,832.51953,0.07287744464749962,0.0632847660126884,-0.06861412888365308,51.9,20.25,42.15
-911.13281,127.92969,-330.56641,-0.0033307863445059785,0.17479943697621247,0.03384071246569365,-3.3,28.65,22.05,294.92187,-8.78906,955.56641,-0.05915461887076901,-0.013456313999951081,-0.021583439661862675,53.1,5.4,96.3,-625.97656,-14.16016,830.07812,0.021183759263155976,0.04942877161403061,-0.11777638872090417,50.85,20.7,41.4
-956.05469,119.62891,-341.79687,-0.007327764864498192,0.114312433754471,-0.05449162270821576,-5.4,28.2,23.1,278.32031,0.97656,937.5,-0.06941348968106648,-0.027179139776681696,-0.06435063858688132,51.0,5.7,95.25,-621.58203,-36.62109,803.22266,0.01638741994575036,0.040901965553412314,-0.12177336724089637,49.2,21.15,42.3
-952.63672,118.65234,-357.91016,-0.07247776424879292,0.1629418445710882,-0.05169368538434365,-5.4,28.2,23.1,289.0625,-1.95312,942.87109,-0.045698304870817934,-0.012923464979317213,-0.07807346436361194,52.05,5.4,96.6,-607.42187,-36.62109,818.35937,-0.0567565364785288,-0.007993957039984428,-0.10152213739708096,51.45,17.85,43.35
-961.91406,118.16406,-366.21094,-0.02411486520895525,0.12217304763960307,0.0022649137703130416,-6.3,27.0,22.95,309.08203,23.4375,934.57031,-0.03757117920890633,-0.015055210127703087,-0.08073805853263168,52.05,5.4,96.6,-598.14453,-49.80469,811.03516,-0.05662319332367644,-0.07141189167459998,-0.11830941227446322,51.6,20.25,41.4
-953.125,103.51563,-353.51562,-0.035039753661813756,0.06208572481656829,-0.014255674797364485,-5.1,27.45,22.05,329.10156,25.87891,919.92187,-0.03743801058697916,0.05209336578305035,-0.08606742140359638,51.6,6.75,95.7,-583.98437,-33.69141,781.73828,-0.06075351499852101,-0.01305663360124438,-0.13896014798406012,51.9,20.25,42.15
-945.3125,81.54297,-362.79297,-0.04343339110050489,0.08326948407972427,-0.051960197161123184,-5.1,26.7,22.05,339.84375,14.16016,925.29297,-0.07034601910040704,0.05116083636370978,-0.04023577337792608,51.15,6.3,95.7,-591.30859,-23.4375,816.40625,-0.10605213947063225,-0.07207808385008622,-0.09699230985645488,51.75,19.8,42.0
-934.08203,74.70703,-325.68359,0.03930324395858551,0.024381376985734785,-0.02984373394570144,-5.1,28.65,22.8,330.56641,1.46484,938.96484,-0.05235987755982989,0.04436592051984546,0.011058231607710873,51.15,6.3,96.15,-574.21875,-11.23047,806.64062,-0.10964926305899256,-0.0470306892217904,-0.14548855205114491,51.75,19.8,42.0
-926.75781,61.03516,-308.10547,0.05968764242432808,0.026379778979268294,-0.013855994398657782,-5.1,28.65,22.8,326.17187,1.95312,930.66406,-0.0373046674321268,0.05249304618175705,-0.010791719830931338,51.15,6.3,96.15,-585.9375,-6.83594,836.91406,-0.15961105822658223,-0.03743801058697916,-0.09379486666680127,50.85,20.7,41.1
-931.64062,106.44531,-312.5,-0.012390441425758144,0.06941348968106648,-0.03863705178309927,-6.15,27.15,21.75,335.9375,7.32422,931.15234,-0.04956194023595778,0.07940584871458442,-0.020784078864449274,51.75,6.6,96.3,-591.30859,-5.85937,869.14062,-0.1730673722265333,-0.07354363682298586,-0.1374945950111605,50.85,20.7,41.1
-912.59766,88.37891,-304.6875,0.03557277721537283,0.06128636401915488,-0.06981317007977318,-5.1,28.65,21.45,338.86719,26.85547,955.56641,-0.031575798695380616,0.0373046674321268,-0.027845331952167932,52.8,7.65,96.3,-580.07812,-27.83203,797.85156,-0.06155287579593442,-0.047830050019203804,-0.13696174599052663,50.7,19.8,43.35
-884.76562,110.35156,-301.75781,0.03024341434440814,0.035173096816666125,-0.08580090962681684,-4.5,26.55,20.85,344.72656,10.74219,945.3125,-0.04156815772889855,0.005728868736746187,0.02238280045927608,52.8,7.65,96.3,-571.77734,-16.60156,846.19141,-0.09779167065386828,-0.1163108357480045,-0.0839356762552105,50.85,21.0,41.7
-913.57422,107.91016,-311.03516,-0.07101221127589329,0.13123270272085524,-0.0811377389313384,-4.95,27.0,22.95,335.9375,-17.57813,917.96875,-0.015588059148336955,0.017453292519943295,-0.0030642745677264445,52.2,4.05,95.1,-570.3125,-49.31641,859.86328,-0.16200914061882243,-0.12217304763960307,-0.07434299762039927,52.65,19.2,42.75
-929.6875,97.65625,-322.26562,-0.0275788201753884,0.0811377389313384,-0.05515781488370199,-4.95,27.0,22.95,354.98047,-18.55469,938.96484,-0.0035972981212855125,-0.020251229843815406,-0.029577396701847107,52.2,6.3,95.4,-558.59375,-48.33984,842.77344,-0.09099692934292915,-0.1289677889505422,-0.052626389336609423,51.0,18.6,42.6
-947.75391,89.84375,-313.96484,-0.094860564708069,0.05875493847206231,-0.07514235841781267,-4.5,28.05,21.6,375.0,-25.39063,928.22266,0.07274427602557246,0.008793317837397832,-0.04476577545147736,51.75,5.7,95.25,-537.59766,-39.0625,856.93359,-0.14295712650405235,-0.07674125454556469,-0.04103530870826468,49.8,18.75,42.45
-958.00781,84.96094,-303.71094,-0.15974422684850942,0.09272899409260832,-0.20464317092191392,-5.7,27.9,22.05,388.67187,-4.88281,930.66406,0.07913933693780488,0.025313906405075356,0.0190520141147701,51.75,5.7,95.25,-501.46484,-28.32031,839.35547,-0.13109953409892808,-0.052626389336609423,-0.03290818304635308,51.0,19.8,43.35
-984.375,71.28906,-294.43359,-0.1633415249697949,0.02731248293153406,-0.1684043760639801,-6.0,27.75,21.6,414.55078,19.04297,927.73437,0.096459460835821,0.010791719830931338,0.029977077100553806,51.6,5.25,95.4,-508.78906,-10.25391,887.20703,-0.1228392398150893,-0.0863337586474507,-0.05702304825530834,51.0,19.8,43.35
-1000.0,63.96484,-291.01562,-0.17693100759167316,-0.03290818304635308,-0.10725118066675235,-6.0,27.75,21.6,450.68359,8.78906,951.17187,0.06235223659334782,0.0567565364785288,0.038903563559878805,51.6,6.3,95.4,-527.34375,-7.32422,904.29687,-0.1811944978884449,-0.04956194023595778,-0.03290818304635308,51.0,19.8,43.35
-977.05078,69.82422,-296.38672,-0.2478100502456393,0.02411486520895525,-0.1248376418086228,-6.0,27.75,21.6,429.19922,-17.57813,989.25781,0.02224963183734891,0.09312867449131504,0.13030017330151467,52.05,5.4,95.25,-521.97266,-0.97656,856.44531,-0.14162474215307985,-0.02198312006056938,-0.05835525807335561,51.45,18.6,42.3
-989.25781,70.3125,-311.03516,-0.25660336808303713,-0.023582016188321384,-0.08673361357908262,-5.25,27.75,22.65,395.50781,-48.33984,972.16797,-0.05049464418822355,0.06621587195848767,0.11910877307187663,51.9,5.55,95.4,-535.15625,25.87891,874.51172,-0.15787899347690307,0.011857592405124276,0.008127125661911596,51.45,18.6,42.3
-986.81641,75.68359,-318.84766,-0.2224961438405639,-0.061419532641082054,-0.06781476808623968,-4.5,28.05,21.9,375.97656,-6.83594,987.30469,-0.010392039432224637,0.03304135166828025,0.11777638872090417,52.65,6.75,95.7,-531.73828,5.37109,891.11328,-0.18266005086134454,-0.0013323843509724712,0.0632847660126884,51.15,20.7,42.45
-1017.57812,72.75391,-327.63672,-0.22489440076572934,-0.0462311538914518,0.0029311059457992773,-4.5,26.55,21.3,386.23047,13.18359,988.28125,0.008926486459324997,0.08739963122164364,0.10392039432224637,51.9,5.55,95.7,-543.45703,14.64844,865.23437,-0.18665702938133677,0.07967236049136395,0.028245012350874635,51.45,18.6,42.3
-1016.11328,83.00781,-337.40234,-0.2335543754482748,-0.04809656179598333,-0.029044373148288036,-4.95,28.05,23.7,418.94531,6.34766,999.51172,0.019718206290256335,0.14282395788212518,0.13069985370022136,51.9,5.55,95.7,-532.71484,10.74219,872.07031,-0.2291577165295759,0.1305666850782942,0.09566010003840761,52.5,20.1,42.6
-1026.85547,79.58984,-339.84375,-0.16533992696332844,-0.1525498051388636,-0.01252378458061051,-4.95,28.05,23.7,382.8125,65.42969,988.28125,0.05302606973531612,0.16041041902399564,0.15721280130141685,51.9,5.55,95.7,-517.57812,14.16016,831.05469,-0.20464317092191392,0.14988521096984384,0.11497862592995724,50.85,20.25,42.75
-1018.06641,85.9375,-331.05469,-0.18372592343553748,-0.1869233666251911,-0.05515781488370199,-5.1,27.9,22.05,395.01953,12.69531,956.05469,-0.02091724748637644,0.2242282085902431,0.1990474708070949,52.2,6.3,94.65,-536.13281,5.85937,889.16016,-0.30629865147384727,0.13403064004472734,0.07754061534297808,53.4,19.95,42.45
-989.25781,82.03125,-338.37891,-0.1728008604497538,-0.2115712553877054,-0.1513507639427435,-6.15,28.65,22.05,386.71875,11.71875,956.54297,-0.07647474276878514,0.2596676426507636,0.23395405584698148,52.5,6.15,94.5,-528.80859,-8.30078,875.0,-0.3209540066699184,0.15055122861240486,0.14895250701757806,51.0,18.6,43.65
-991.21094,101.5625,-323.73047,-0.1272358987337882,-0.2695268330623543,-0.10445324334288024,-3.75,27.3,22.65,377.44141,3.41797,980.95703,-0.0482297304179105,0.33707508937181446,0.26486366236687586,51.75,6.6,95.25,-544.92187,-38.57422,851.07422,-0.3372082579937416,0.13509651261892028,0.13896014798406012,51.0,18.6,43.65
-978.51562,91.30859,-315.91797,-0.17852990371942518,-0.24354673448179273,-0.19798159823290198,-4.05,28.95,22.8,365.72266,-14.64844,970.70312,-0.044099583275991124,0.3527963171420786,0.2242282085902431,51.75,6.6,95.25,-554.19922,-43.45703,906.25,-0.4404624601405018,0.11711019654541792,0.16640579953752135,52.5,20.1,43.05
-975.09766,102.53906,-291.99219,-0.2031776179490143,-0.23781769121212135,-0.14801997759823748,-4.05,28.95,22.8,362.79297,-28.80859,943.84766,0.04916225983725108,0.3164241791292924,0.2307564381244027,52.8,5.7,95.55,-564.45312,-80.56641,885.25391,-0.3907671767496916,0.09539358826162808,0.16960341726010017,52.5,20.1,43.05
-971.67969,93.75,-289.55078,-0.1470872736459717,-0.3344104952027947,-0.14695410502404457,-4.05,28.2,23.1,396.48437,-13.18359,1015.625,-0.0482297304179105,0.302301672953855,0.2663292153397755,52.8,8.1,93.75,-580.07812,-82.03125,906.73828,-0.3615896349794764,0.18292656263812407,0.11258036900479183,50.1,19.5,41.7
-975.58594,90.82031,-287.59766,-0.16880405646268679,-0.3124272006093001,-0.21516837897606572,-4.95,28.05,23.25,378.90625,-20.50781,998.04687,-0.024381376985734785,0.37358039600652787,0.26446398196816917,52.8,8.1,93.75,-566.89453,-73.73047,896.97266,-0.339073491365348,0.14455584809887914,0.1718683310304132,51.6,18.75,43.2
-972.65625,113.76953,-265.13672,-0.1865236862264844,-0.30709801227126066,-0.24061562853599347,-3.45,27.75,22.95,360.83984,-4.39453,975.58594,-0.04183466950567808,0.2837825078597188,0.27472285277846664,52.65,6.3,95.7,-557.61719,-70.80078,861.32812,-0.25074115619143855,0.13003366152473514,0.18292656263812407,52.8,19.35,42.0
-962.89062,108.39844,-269.53125,-0.16600611913881466,-0.44885609757919287,-0.2103722141915853,-3.15,27.75,24.3,385.74219,-20.50781,973.14453,-0.07514235841781267,0.22302916739412298,0.2901775687719512,53.4,5.55,94.35,-537.59766,-58.59375,880.85937,-0.28991123152809695,0.18439211561102373,0.20171206497611466,49.95,19.8,42.0
-965.82031,89.35547,-260.74219,-0.17426641342265342,-0.40888666144512115,-0.23781769121212135,-3.15,27.75,24.3,398.92578,-12.20703,954.10156,-0.030509926121187674,0.35252980536529904,0.2582020896778639,52.8,5.4,93.75,-524.90234,-83.98438,862.79297,-0.29377486689323673,0.13642872243696755,0.20304444932708712,52.35,19.2,42.45
-974.12109,54.19922,-260.74219,-0.2023782571516009,-0.421010765627025,-0.2582020896778639,-4.95,26.55,24.3,363.76953,-52.24609,964.35547,-0.04636449704630416,0.3605237624052835,0.28058506467006517,52.8,5.4,93.75,-527.83203,-102.53906,854.00391,-0.2582020896778639,0.19331860207034873,0.1870567097800435,51.6,18.45,43.2
-950.68359,52.24609,-249.51172,-0.13882697936213295,-0.4006263671612824,-0.18945479217228367,-4.5,26.55,23.25,365.23437,-68.84766,930.17578,-0.03970292435729221,0.3960965396206563,0.25167386014370435,53.7,5.25,95.1,-548.33984,-100.58594,878.41797,-0.24061562853599347,0.19225272949615577,0.18878859999679742,51.6,18.45,43.2
-965.33203,42.48047,-253.90625,-0.12923430072732173,-0.45298624472111226,-0.1281684281531288,-4.2,27.75,23.7,343.26172,-58.10547,929.6875,0.013189976756096747,0.36225582715496263,0.20104587280062844,53.4,6.0,95.4,-519.53125,-117.67578,830.56641,-0.2133031456044594,0.23049010088054836,0.1958498530845161,51.15,19.5,41.7
-960.9375,44.92188,-239.25781,-0.10565245907192554,-0.377044350972961,-0.20810712588834707,-2.7,27.75,23.25,338.86719,-52.24609,933.59375,0.003996978519992214,0.3158913301086585,0.25034147579273186,53.55,4.95,94.2,-560.05859,-130.85937,850.58594,-0.1777305429220118,0.23328786367149526,0.16920373686139348,51.15,19.5,41.7
-980.95703,66.89453,-221.67969,-0.06381778956624745,-0.4451256308359802,-0.1033873707686873,-2.7,27.75,23.25,313.47656,-34.66797,928.22266,0.00039968039870670147,0.3401393639395409,0.14029253233503258,52.8,6.15,95.25,-558.10547,-111.81641,837.89062,-0.15841201703046212,0.2535390935153107,0.19558351584066178,50.85,18.45,41.7
-988.76953,81.54297,-224.60937,-0.05315923835724329,-0.44752371322822043,-0.0855343978500373,-3.3,26.7,24.15,289.55078,-20.99609,917.96875,-0.007993957039984428,0.31122815941318,0.19558351584066178,55.2,6.75,95.1,-542.48047,-137.20703,834.96094,-0.08193727426167699,0.21849916532057173,0.21117157498899872,51.6,19.95,41.7
-969.23828,84.47266,-199.21875,-0.04982845201273731,-0.3573261446827047,-0.06195255619464112,-4.05,27.15,23.85,393.06641,-14.64844,883.30078,-0.062219067971420655,0.39476415526968384,0.17613164679425974,54.45,6.3,95.4,-565.42969,-134.27734,866.69922,-0.08273663505909039,0.17852990371942518,0.19958031982772878,51.6,19.95,41.7
-974.60937,75.19531,-194.82422,0.00839363743869113,-0.41301680858704054,-0.03983609297921937,-1.2,28.65,24.6,316.89453,-5.85937,900.39062,-0.011457912006417574,0.28351599608293926,0.18639051760455722,54.45,6.3,95.4,-545.41016,-115.72266,799.31641,-0.04050228515470561,0.18745639017875018,0.2031776179490143,52.35,19.95,42.45
-965.82031,89.35547,-185.05859,-0.06022049144496195,-0.3725145234323349,-0.023448673033469015,-2.55,28.95,24.15,314.45312,-15.13672,918.94531,-0.0182526533173567,0.11298004940349854,0.1726676918278266,55.35,4.95,95.25,-560.54687,-99.12109,839.84375,-0.017852972918649995,0.1605435876459228,0.12470447318669564,51.75,21.15,40.5
-972.16797,105.46875,-175.78125,-0.05435827955336339,-0.3428039581085607,-0.05116083636370978,-2.55,28.95,24.15,309.57031,-8.78906,914.0625,-0.052226708937902724,0.15161710118659782,0.17733086252330507,55.2,6.75,95.1,-582.51953,-95.70313,833.00781,-0.09765850203194111,0.17320054084846048,0.09019756854551575,51.75,20.1,42.0
