IMU1_AccX,IMU1_AccY,IMU1_AccZ,IMU1_GyrX,IMU1_GyrY,IMU1_GyrZ,IMU1_MagX,IMU1_MagY,IMU1_MagZ,IMU2_AccX,IMU2_AccY,IMU2_AccZ,IMU2_GyrX,IMU2_GyrY,IMU2_GyrZ,IMU2_MagX,IMU2_MagY,IMU2_MagZ,IMU3_AccX,IMU3_AccY,IMU3_AccZ,IMU3_GyrX,IMU3_GyrY,IMU3_GyrZ,IMU3_MagX,IMU3_MagY,IMU3_MagZ
-887.69531,30.27344,-448.73047,0.1032542021467601,-0.1023216727274195,0.1338974714228001,-8.25,27.45,15.45,-316.40625,-22.46094,960.9375,0.0409019655534123,-0.0225161436141284,-0.1384272989634262,81.3,1.65,79.95,-950.68359,114.74609,395.50781,0.2808514019139195,-0.0050628510941851,0.1087167336396519,58.95,23.85,8.85
-878.41797,38.08594,-441.89453,0.1000565844241813,-0.150018379591771,0.1197749652473628,-8.4,27.3,17.4,-328.61328,-7.8125,964.35547,0.098724374606134,-0.0374380105869791,-0.091529778363563,83.1,-0.15,78.15,-934.57031,90.82031,396.48437,0.229290885151503,0.0181194846954295,0.1264363634034496,59.1,21.75,7.95
-886.71875,36.62109,-433.59375,0.0405022851547056,-0.0492956029921034,0.0654165111610742,-8.4,27.3,17.4,-331.54297,12.20703,957.03125,0.05475795995207,0.0023980823922402,-0.1116478395854512,82.8,0.9,77.7,-941.89453,70.3125,379.39453,0.2508744993462909,0.0724777642487929,0.1257703457608885,58.95,23.1,8.55
-884.76562,23.92578,-437.98828,0.068614128883653,-0.1253706653621819,0.1235054319905755,-8.1,27.75,17.4,-306.15234,4.39453,956.05469,0.0738101485997654,-0.016787100344457,-0.1212403436873373,82.8,0.9,77.7,-943.35937,99.60938,388.67187,0.2418146697321135,0.0684807857288007,0.0675482563094601,60.0,23.85,8.55
-902.83203,56.64063,-434.57031,0.10205516095064,-0.1733338840033128,0.1119141768293056,-8.4,27.75,16.65,-333.00781,19.53125,971.19141,0.0852680606061829,-0.0358392889921523,-0.1179097318757565,83.85,-0.15,79.95,-933.59375,91.79688,370.11719,0.2419480128869659,0.0782068075184643,0.1119141768293056,59.25,22.65,9.3
-908.69141,65.42969,-428.71094,0.0727442760255724,-0.1292343007273217,0.0723445956268657,-8.55,27.9,15.45,-312.98828,19.04297,995.60547,0.0181194846954295,-0.0674150876875329,-0.075275701572665,82.65,0.75,79.05,-942.38281,104.98047,374.02344,0.2263599537386289,0.0855343978500373,0.1039203943222463,59.25,22.65,9.3
-923.33984,60.05859,-422.36328,0.0671485759107534,-0.1065849884912661,0.0959264372822619,-9.9,28.05,16.35,-312.01172,10.74219,993.16406,-0.0133231453780239,-0.0779402957416847,-0.1004564393558132,82.65,0.75,79.05,-938.47656,125.48828,378.90625,0.2494089463733912,0.0907304175661496,0.1048529237415869,60.15,22.95,10.05
-919.92187,61.03516,-424.80469,0.0350397536618137,-0.1810613292665177,0.0860674214035963,-9.9,28.05,16.35,-321.77734,2.44141,969.23828,0.0230489926347623,-0.0562235129249697,-0.1124472003828646,85.5,1.5,78.3,-922.36328,125.48828,375.48828,0.2693934899075019,0.1160443239712249,0.0706125308771865,60.15,22.95,10.05
-930.17578,44.92188,-427.73437,0.002264913770313,-0.1638743739904287,0.0743429976203992,-8.1,26.55,16.35,-313.96484,6.34766,987.79297,0.085934078248744,-0.0527595579585365,-0.1404257009569597,82.95,1.5,79.05,-934.57031,144.04297,377.44141,0.2512741797449976,0.0285115241276541,0.0307764378979672,58.8,23.25,8.7
-926.26953,60.05859,-423.82812,0.0298437339457014,-0.203577298347721,0.0555574952824086,-8.1,28.05,16.35,-335.44922,19.04297,987.30469,0.0684807857288007,-0.0847350370526239,-0.114312433754471,84.45,0.3,79.8,-911.62109,164.0625,368.65234,0.2396829245837277,0.1069846688899728,0.0366386497895657,58.05,21.0,7.95
-909.66797,53.22266,-419.43359,0.0187856768709157,-0.189588135327136,0.0554241521275563,-8.4,27.0,15.3,-326.66016,20.01953,973.63281,0.0476967068643514,-0.0835359958565038,-0.0858009096268168,84.45,0.3,79.8,-942.38281,152.34375,361.32812,0.2351530970431016,0.0917962901403425,0.0303767574992605,59.7,22.35,8.55
-924.31641,54.19922,-416.99219,-0.0218499514386422,-0.1313660458757076,-0.0034639549664331,-8.4,27.0,15.3,-333.49609,42.96875,944.82422,0.0199847180670358,-0.0626187483701273,-0.0830031468358699,82.2,2.25,79.8,-916.99219,162.10937,364.74609,0.1947841550432483,0.0624854052152749,-0.004529827540626,57.6,22.95,7.65
-926.26953,74.21875,-434.57031,0.0131899767560967,-0.196249708016148,0.0387702204050264,-7.95,28.65,16.8,-336.42578,43.94531,953.125,0.0245145456076619,-0.0399694361340717,-0.0779402957416847,82.05,0.9,80.25,-925.29297,169.43359,350.09766,0.1763981585710393,0.0237151848102485,-0.0579555776746489,57.6,22.95,7.65
-933.59375,74.70703,-425.78125,0.0129234649793172,-0.2057090434961068,0.0169204434993094,-6.9,28.2,16.2,-317.38281,61.03516,955.56641,0.0311761182966739,-0.0492956029921034,-0.1047197551196597,82.05,0.9,80.25,-894.53125,180.66406,355.46875,0.1858576685839233,-0.0161209081689708,-0.0163874199457503,58.5,22.65,8.55
-944.82422,68.35938,-424.31641,-0.0907304175661496,-0.1686707133078344,-0.0708790426539661,-7.65,27.75,16.05,-312.01172,42.96875,947.75391,0.0343737360192527,-0.0198513749121835,-0.045165455850184,84.0,0.0,80.1,-908.69141,157.22656,338.86719,0.1682710329091277,0.0552909835056291,-0.0259800985805615,60.0,23.1,8.25
-939.94141,63.47656,-407.71484,-0.0387702204050264,-0.1536156777130565,-0.0129234649793172,-7.65,28.05,15.3,-330.56641,22.94922,944.33594,0.0014655529728996,-0.05475795995207,-0.041834669505678,83.25,0.3,79.05,-901.36719,158.69141,352.05078,0.131099534098928,0.0231821612566894,-0.043566559722432,60.0,23.1,8.25
-944.33594,59.57031,-404.29687,-0.0535589187559499,-0.1449555284975858,-0.0627519169920545,-7.65,28.05,15.3,-331.54297,13.67187,937.98828,-0.013456313999951,-0.0170536121212365,-0.0207840788644492,81.75,1.2,78.9,-909.17969,168.94531,341.79687,0.0941945470655079,0.0780734643636119,-0.0626187483701273,58.35,24.0,9.0
-953.61328,56.15234,-408.69141,-0.0634181091675407,-0.1594777150717298,-0.0691469779042869,-9.0,27.9,16.8,-326.66016,-15.625,953.125,-0.0615528757959344,-0.0174532925199432,-0.0311761182966739,81.75,1.2,78.9,-899.41406,172.36328,324.70703,0.0472970264656447,0.1273690673557154,-0.067015232755901,59.25,23.1,9.3
-942.38281,48.33984,-402.83203,-0.0391699008037331,-0.1249709849634751,-0.0295773967018471,-8.4,27.3,16.05,-323.24219,6.83594,922.36328,0.0339738810876208,0.0277121633302407,-0.0066615726890119,81.75,1.2,78.9,-909.66797,167.48047,342.28516,0.0405022851547056,0.0699463387017003,-0.0237151848102485,60.0,23.85,9.3
-944.33594,54.19922,-404.78516,0.0035972981212855,-0.132165406673121,-0.0960597804371143,-8.7,27.75,16.05,-321.28906,26.36719,952.63672,-0.006128723668378,0.039569755735365,-0.0566231933236764,83.1,1.65,78.9,-917.48047,154.78516,333.00781,0.015055210127703,0.0872664625997164,-0.0690138092823597,59.7,22.65,7.8
-948.24219,64.94141,-395.01953,-0.0503614755662963,-0.091529778363563,-0.105385947295146,-8.7,27.75,16.05,-316.89453,0.48828,953.125,0.0066615726890119,0.073676805444913,-0.0227824808579827,83.1,1.65,79.5,-923.82812,164.0625,363.76953,-0.0062618922903052,0.116577347524784,-0.0499617951675896,60.0,21.15,6.75
-949.21875,55.66406,-391.11328,-0.0664823837352672,-0.0895313763700295,-0.1272358987337882,-7.95,28.65,16.5,-327.63672,18.55469,979.98047,0.0113245688515652,0.0326416712695735,-0.0086599746825454,83.1,0.45,80.25,-935.54687,138.18359,354.49219,0.0099923590335179,0.0827366350590903,-0.0311761182966739,59.4,22.95,8.7
-924.80469,56.64063,-401.85547,0.0141225061754373,-0.0640843013430269,-0.1068515002680456,-7.05,27.0,16.5,-335.9375,15.625,969.23828,0.0117244237831971,0.0578224090527217,-0.0130566336012443,82.8,1.2,79.95,-938.47656,130.85937,348.63281,-0.0275788201753884,0.0967257980796753,-0.0478300500192038,59.4,22.95,8.7
-911.13281,62.98828,-393.06641,-0.0560903443030425,-0.0269126279999021,-0.1414915735311527,-7.95,27.0,16.35,-346.67969,-0.48828,959.96094,-0.0334410320669869,0.0349065850398865,-0.0452986244721112,83.25,1.05,78.0,-946.77734,113.76953,359.375,-0.0091929982361045,0.0731439564242791,-0.0727442760255724,60.6,23.7,7.65
-910.15625,55.66406,-407.71484,-0.0739433172216925,-0.0077274452632048,-0.1839922606793918,-7.95,27.15,17.55,-357.91016,1.46484,950.19531,0.0049295079393327,0.0165205885676775,-0.0030642745677264,84.0,0.75,79.8,-969.72656,107.42188,353.51562,-0.031309286918601,0.1112481591867445,-0.0754088701945922,60.6,23.7,7.65
-892.08984,50.78125,-426.75781,-0.0105252080541518,-0.0274456515534612,-0.0592879620256213,-7.95,28.95,16.5,-347.16797,7.32422,983.88672,-0.013456313999951,0.0415681577288985,-0.0247810573844414,84.0,0.75,79.8,-959.47266,96.67969,359.86328,-0.0640843013430269,0.0863337586474507,-0.0879326547752027,57.9,22.35,7.8
-906.25,39.0625,-419.43359,-0.0508943245869302,0.050761155965003,-0.0760750623700784,-7.95,28.95,16.5,-342.28516,-17.08984,978.51562,-0.0007993607974134,0.0230489926347623,-0.0532925815120956,83.7,1.5,79.35,-960.44922,103.51563,361.32812,-0.0730107878023519,0.064750318985588,-0.0916631215184153,58.8,24.0,7.95
-917.96875,39.55078,-425.29297,-0.0378376909856858,0.0389035635598788,-0.068614128883653,-6.6,27.3,16.65,-349.12109,-5.37109,971.67969,-0.0062618922903052,0.0122572728038309,-0.0804717212887773,82.8,0.9,78.9,-956.54297,98.14453,351.5625,-0.0444992636746978,0.0483628990398376,-0.1077840296873862,58.2,22.65,8.85
-912.10937,19.04297,-418.94531,0.0249142260063686,-0.0181194846954295,-0.074209828998472,-8.7,29.25,16.65,-341.30859,-7.32422,968.75,0.0001331686219271,-0.0083936374386911,-0.0427671989250186,84.6,-0.15,79.2,-927.24609,91.79688,342.28516,-0.032908183046353,0.0440995832759911,-0.0863337586474507,60.15,24.3,7.95
-908.20312,33.69141,-423.82812,-0.0003996803987067,0.0178529729186499,-0.0687472975055802,-7.2,27.45,14.4,-333.00781,-0.48828,949.70703,-0.0281118437289474,0.0310429496747467,-0.0287778613715085,82.95,1.5,80.4,-923.33984,95.70313,331.54297,-0.0137228257767306,0.0476967068643514,-0.1629418445710882,60.15,24.3,7.95
-921.38672,24.90234,-430.17578,0.0042633157638465,0.0213169278850831,-0.1289677889505422,-7.2,27.45,14.4,-339.35547,5.37109,946.77734,-0.077007591789419,0.0283781809728018,-0.0250473946282958,84.45,1.5,78.6,-904.78516,130.37109,312.98828,-0.0159877395470436,0.1147121141531777,-0.1406922127337393,60.9,22.95,7.65
-906.25,29.29688,-438.47656,0.0594211306475485,-0.0514271736075641,0.0159877395470436,-7.95,27.9,17.25,-320.3125,7.8125,960.44922,-0.0678147680862396,0.018385996472209,-0.0125237845806105,83.7,1.05,78.6,-893.55469,159.17969,294.92187,-0.0869999508229369,0.1148452827751048,-0.1476202971995308,60.9,22.95,7.65
-918.94531,47.85156,-460.9375,0.0187856768709157,-0.0009327039522657,-0.0452986244721112,-7.5,26.4,16.5,-345.70312,16.60156,946.28906,-0.1213736868421896,0.0464976656682313,0.0142556747973644,83.7,1.05,78.6,-919.43359,157.71484,347.65625,-0.0820704428836041,0.0895313763700295,-0.1706692898342931,59.1,23.25,8.7
-924.80469,40.52734,-448.73047,-0.0025314255470925,-0.0359724576140795,-0.0880658233971298,-6.9,27.9,16.8,-343.75,25.39063,929.6875,-0.1209740064434829,0.0041301471419193,-0.0099923590335179,83.85,-0.45,78.45,-883.78906,151.85547,400.39062,-0.1432236382808319,0.0373046674321268,-0.196249708016148,59.85,22.2,7.65
-946.28906,18.06641,-428.22266,0.0556906639043358,-0.0544916227082157,-0.031309286918601,-7.95,28.2,17.25,-323.73047,-7.8125,938.47656,-0.087532974376496,0.0371714988101996,-0.0229158240128351,84.6,0.15,78.9,-913.08594,134.27734,363.28125,-0.1068515002680456,-0.0202512298438154,-0.1502848913685505,59.1,22.2,8.7
-917.48047,32.22656,-395.99609,0.0229158240128351,-0.0407687969314851,-0.0714118916745999,-7.95,28.2,17.25,-324.70703,-25.39063,945.3125,-0.0660827033365605,0.020117886688963,0.0198513749121835,82.2,0.75,78.0,-927.73437,138.18359,337.40234,-0.128834620328615,-0.027312482931534,-0.1877227274226045,59.85,21.45,7.95
-889.16016,28.32031,-356.44531,0.0007993607974134,-0.0508943245869302,-0.1028545217480534,-7.65,28.5,16.65,-325.19531,-47.85156,940.42969,-0.0516936853843436,0.0486294108166172,-0.0206509102425221,83.55,-0.45,78.9,-947.26562,104.98047,360.35156,-0.1056524590719255,-0.0151883787496302,-0.0891316959713228,59.85,21.45,7.95
-868.65234,23.4375,-366.21094,0.0756753819713717,-0.0527595579585365,-0.0985910314512816,-8.7,28.8,16.35,-332.03125,-31.73828,958.49609,-0.0114579120064175,0.0495619402359577,0.0250473946282958,84.0,1.05,79.35,-955.56641,70.80078,397.94922,-0.1656064387401079,-0.0325085026476463,-0.0747426780191059,59.25,21.6,7.5
-851.07422,15.625,-375.97656,0.0227824808579827,0.0377045223637587,-0.1967825570367818,-7.65,28.05,16.05,-330.56641,-29.78516,955.56641,-0.0365053066347134,0.0544916227082157,-0.0310429496747467,82.65,0.0,79.05,-952.14844,31.25,404.29687,-0.2134364887593117,-0.0267794593779749,-0.0666155523571943,61.05,21.9,7.8
-887.69531,-12.69531,-401.36719,0.0261132672024887,0.0075941021083525,-0.1741332448007262,-7.65,28.05,16.05,-312.5,-51.75781,981.93359,-0.0406354537766327,0.0399694361340717,-0.0162542513238231,82.65,0.0,79.05,-948.73047,42.48047,416.01562,-0.2111715749889987,-0.0421010067495324,-0.0984578628293545,61.05,21.9,7.8
-905.27344,-40.03906,-422.36328,0.1049862668964393,0.0099923590335179,-0.0726111074036452,-8.4,27.0,16.05,-317.87109,-55.66406,992.67578,-0.0588882816269146,0.0371714988101996,-0.018385996472209,83.7,0.3,79.05,-951.66016,38.08594,403.32031,-0.140026020558253,0.0210505906412288,-0.0570230482553083,58.35,22.95,6.6
-884.27734,-22.46094,-420.41016,0.0815375938629702,0.0411684773301918,-0.1542816953556175,-7.65,25.8,16.35,-313.47656,-44.92188,983.88672,-0.0011990411961201,0.0089264864593249,0.0,84.0,0.3,79.05,-945.80078,60.05859,388.67187,-0.0688804661275074,-0.0225161436141284,0.0154548905264097,59.7,23.4,6.45
-881.83594,-24.90234,-403.32031,0.0927289940926083,-0.0456983048708179,-0.0606201718436686,-7.5,27.9,16.8,-339.35547,-42.48047,959.47266,-0.0210505906412288,0.0021317451483858,0.0129234649793172,84.45,0.0,79.35,-957.03125,70.3125,389.16016,-0.0730107878023519,-0.0490290912153239,-0.055823832526263,59.85,21.45,7.65
-864.74609,-12.69531,-403.32031,0.0963261176809686,-0.0411684773301918,-0.0095926786348112,-9.15,27.3,17.4,-340.82031,-43.94531,968.26172,0.0039969785199922,0.0095926786348112,0.0193185258915496,82.8,1.95,79.95,-953.61328,85.44922,374.51172,-0.0610198522423753,-0.0187856768709157,-0.0590214502488418,60.6,22.2,7.95
-881.34766,-3.41797,-413.08594,0.0666155523571943,0.0231821612566894,-0.0383705400063197,-9.15,27.3,17.4,-332.51953,-39.55078,981.44531,0.0110582316077108,-0.0038636353651398,0.0430337107017981,83.25,1.5,79.8,-944.33594,88.37891,366.69922,-0.1332312792473139,0.0490290912153239,-0.0438330714992115,60.15,21.75,7.95
-880.37109,-24.41406,-416.99219,0.0331745202902074,-0.0431668793237253,0.0471638578437175,-7.2,27.15,17.55,-322.26562,-27.83203,974.60937,0.0026645941690197,-0.0496952833908101,0.0029311059457992,84.0,0.3,79.35,-946.28906,85.9375,371.58203,-0.1069846688899728,-0.059154618870769,-0.0463644970463041,58.8,23.25,8.7
-903.80859,-28.80859,-421.38672,0.0526263893366094,-0.0955267568835552,0.0389035635598788,-7.95,27.15,16.5,-326.17187,-17.08984,986.81641,0.0401026047559989,-0.0214502710399355,-0.0069280844657914,84.0,0.3,79.35,-951.17187,94.23828,368.65234,-0.077007591789419,0.0154548905264097,-0.0815375938629702,58.8,23.25,8.7
-906.25,13.18359,-410.64453,0.1011224569983742,-0.0933951862680945,0.0247810573844414,-8.55,29.4,16.5,-318.84766,-53.71094,976.5625,0.0214502710399355,0.0211837592631559,-0.158944866051096,83.55,0.9,79.95,-933.10547,116.69922,426.26953,0.242081181508893,-0.0345069046411798,0.1473537854227512,59.85,22.95,8.7
-885.74219,12.69531,-400.87891,0.0266462907560478,-0.055823832526263,-0.0820704428836041,-7.5,27.9,15.45,-310.54687,-57.12891,971.67969,0.0342403928644003,0.0043966589186989,-0.1557472483285172,81.45,0.75,80.1,-923.82812,19.04297,423.33984,0.2588682818533501,-0.0885988469506889,0.1309663654770009,59.85,22.95,8.7
-882.8125,14.16016,-391.60156,0.0405022851547056,-0.0807380585326316,-0.0189188454928429,-7.35,27.75,16.05,-310.05859,-33.20313,967.77344,0.0688804661275074,-0.0738101485997654,-0.1513507639427435,83.85,1.2,80.55,-894.53125,87.40234,403.80859,0.2606003466030293,0.0436999028772844,0.146687593247265,58.8,23.25,7.95
-876.46484,23.92578,-378.90625,0.0627519169920545,-0.1303001733015146,-0.005595700114819,-7.35,27.75,16.05,-285.15625,-16.60156,973.63281,0.0831363154577971,-0.0205175670876697,-0.2139693377799456,83.1,0.9,81.75,-883.30078,95.70313,378.90625,0.3369417462169621,-0.0102588708102974,0.1389601479840601,59.1,24.75,7.95
-873.53516,12.69531,-370.11719,0.0254472495599277,-0.0828698036810175,-0.0758085505932989,-8.25,27.9,16.5,-277.83203,-12.69531,947.75391,0.0743429976203992,-0.0073277648644981,-0.1532159973143498,83.1,0.9,81.75,-867.1875,113.76953,365.72266,0.3126937123860797,-0.085934078248744,0.1432236382808319,60.9,22.5,8.4
-896.97266,12.20703,-384.27734,-0.0278453319521679,-0.1048529237415869,-0.0302434143444081,-8.1,28.5,16.05,-258.30078,-7.32422,949.21875,0.1004564393558132,0.0143890179522168,-0.1725345232058994,83.85,-0.15,79.5,-841.79687,125.97656,360.83984,0.3442695110814603,-0.0919296332951949,0.1316323831195619,58.95,21.9,8.85
-906.73828,-4.88281,-392.08984,-0.0189188454928429,-0.1052526041402936,0.0267794593779749,-7.65,28.5,16.35,-267.57812,-4.88281,937.01172,0.0602204914449619,0.0302434143444081,-0.1706692898342931,84.45,-0.3,79.8,-855.46875,127.92969,354.98047,0.3550612309123916,-0.0854012292281101,0.1334976164911682,60.15,22.5,9.0
-922.85156,-30.27344,-393.55469,-0.0002665117767795,-0.0664823837352672,-0.0651499993842947,-7.65,28.5,16.35,-279.78516,-21.48438,941.89453,0.1068515002680456,0.0339738810876208,-0.1562802718820762,84.0,1.05,80.85,-858.39844,136.71875,379.39453,0.2685941291100885,-0.063684446411395,0.0355727772153728,59.4,21.75,8.4
-924.31641,-33.69141,-397.94922,-0.0182526533173567,-0.074209828998472,-0.0391699008037331,-7.65,29.25,16.05,-271.97266,-35.64453,965.82031,0.1223062162615302,0.0359724576140795,-0.1212403436873373,84.15,-0.15,79.5,-857.42187,145.50781,364.25781,0.2354196088198811,-0.032908183046353,0.0330413516682802,59.4,21.75,8.4
-923.82812,-48.82813,-387.20703,0.0315757986953806,-0.0944608843093623,-0.025713586803782,-7.65,29.25,16.05,-300.78125,-19.53125,947.75391,0.0919296332951949,0.0211837592631559,-0.0916631215184153,82.35,0.45,79.95,-853.02734,167.96875,342.77344,0.1859908372058505,0.0151883787496302,0.0398360929792193,59.85,22.2,7.95
-923.82812,-36.13281,-389.64844,0.0667488955120467,-0.0943277156874351,0.0503614755662963,-7.65,27.75,16.05,-282.22656,-15.13672,969.72656,0.1019218177957876,0.0035972981212855,-0.1056524590719255,83.7,-1.05,80.1,-882.32422,163.57422,331.54297,0.1388269793621329,0.0349065850398865,-0.0025314255470925,59.85,22.2,7.95
-909.17969,-37.10938,-383.78906,0.0363721380127862,-0.0455651362488907,-0.0563568560798221,-8.1,27.75,17.1,-298.82812,-0.97656,953.125,0.0984578628293545,0.0804717212887773,-0.0768744231674918,83.7,-1.05,80.1,-876.95312,181.15234,342.77344,0.1216401986189692,0.034640073263107,-0.0263797789792682,59.7,22.65,8.25
-894.53125,-34.66797,-383.78906,0.1048529237415869,-0.0863337586474507,0.0037304667432126,-7.05,27.0,16.35,-313.47656,8.30078,958.00781,0.0850015488294034,0.0734104682010586,-0.0921959705390492,83.55,-0.9,79.5,-877.44141,156.25,347.65625,0.1079173728422385,0.0600873228230347,0.0463644970463041,59.4,23.7,6.3
-907.71484,-29.78516,-385.25391,0.0766079113907123,-0.0230489926347623,-0.0253139064050753,-7.05,27.0,16.35,-312.98828,1.46484,979.98047,0.0803383781339249,0.1267028751802291,-0.0371714988101996,82.65,-1.05,80.85,-922.85156,167.96875,322.26562,0.0720780838500862,0.1007227765996675,-0.032908183046353,59.4,23.7,6.3
-915.03906,-15.625,-406.73828,0.070346019100407,0.0093261668580317,-0.0138559943986577,-8.25,26.7,15.15,-319.33594,1.46484,979.98047,0.0127901218244648,0.0739433172216925,-0.0317089673173077,82.35,-1.2,80.25,-934.08203,168.45703,327.63672,-0.0102588708102974,0.0929953313364626,-0.020117886688963,60.15,23.25,8.7
-918.45703,-16.60156,-416.01562,0.0774072721881257,-0.0038636353651398,0.0003996803987067,-7.5,26.7,17.85,-328.61328,-0.48828,963.37891,0.0169204434993094,0.0433002224785777,-0.0163874199457503,82.35,-1.2,80.25,-946.28906,168.45703,323.73047,-0.0730107878023519,0.1191087730718766,-0.0305099261211876,59.85,23.25,8.4
-939.45312,-17.08984,-433.59375,0.060753514998521,-0.0267794593779749,0.0305099261211876,-7.5,27.45,15.75,-332.03125,-1.95312,973.63281,-0.0158545709251164,0.032375159492794,0.0242480338308824,83.7,0.3,79.8,-951.66016,167.48047,307.61719,-0.1390934911389125,0.1843921156110237,-0.0029311059457992,59.85,23.25,8.4
-922.36328,-35.64453,-440.91797,0.0718115720733066,0.055823832526263,-0.0417013263508257,-6.6,27.0,17.4,-351.07422,-11.23047,975.58594,0.0319754790940873,0.0013323843509724,0.052493046181757,83.55,-1.2,79.95,-940.42969,145.50781,320.3125,-0.1746660938213601,0.1736002212471671,-0.0035972981212855,58.35,22.95,7.65
-946.28906,-30.76172,-469.23828,0.0031976177225788,0.0666155523571943,0.0528927265804637,-6.6,27.0,17.4,-349.12109,-21.97266,950.19531,-0.0245145456076619,0.013456313999951,0.043566559722432,83.55,-1.2,79.95,-956.05469,143.55469,317.87109,-0.1560137601052967,0.17346705262524,-0.0317089673173077,58.35,22.95,7.65
-951.66016,-31.25,-474.12109,0.0486294108166172,-0.0570230482553083,0.0744763407752516,-7.65,26.25,17.1,-356.44531,-25.39063,956.05469,-0.005595700114819,0.0431668793237253,0.080871401687484,83.1,-0.45,80.25,-970.21484,108.39844,327.63672,-0.1664057995375213,0.1568131209027101,-0.0277121633302407,58.5,23.1,6.15
-949.70703,-24.90234,-463.37891,-0.0059953805135257,-0.011191400229638,0.0658161915597809,-6.6,25.8,15.3,-370.60547,-24.41406,957.03125,-0.0123904414257581,0.0214502710399355,0.1059187963157798,83.55,-0.45,81.0,-987.30469,128.41797,320.3125,-0.196249708016148,0.1745329251994329,-0.050228132411444,58.95,22.65,8.25
-934.57031,-18.06641,-451.17187,-0.025713586803782,0.0367718184114929,-0.0137228257767306,-7.95,25.35,16.5,-369.62891,-22.46094,959.96094,-0.0079939570399844,0.0466310088230837,0.023981696587028,82.8,-0.45,79.2,-971.67969,114.25781,342.77344,-0.1939846197129097,0.1505512286124048,-0.002264913770313,59.25,22.65,7.5
-930.17578,-23.92578,-443.84766,0.0085268060606182,-0.0466310088230837,0.0534257501340228,-7.95,25.35,16.5,-366.69922,-23.4375,956.54297,0.0139893375535101,0.0594211306475485,0.1057856276938527,82.8,-0.45,79.2,-961.42578,120.11719,343.26172,-0.1802617939361791,0.1051194355183664,-0.0566231933236764,61.05,23.4,8.55
-931.64062,-9.76562,-434.57031,-0.0211837592631559,0.0315757986953806,0.0671485759107534,-6.15,27.45,16.5,-370.60547,-14.64844,948.24219,-0.0378376909856858,0.060753514998521,0.0851347174513306,84.0,-0.3,80.4,-966.30859,120.60547,344.72656,-0.2110382318341463,0.1283017713079811,-0.0884655037958365,59.7,21.9,7.8
-921.875,-1.95312,-438.96484,-0.0423675185263119,0.0133231453780239,0.0166539317225298,-6.9,26.7,16.2,-368.65234,-12.69531,946.28906,0.0126569532025376,0.0069280844657914,0.0893982077481023,83.7,-1.5,78.3,-952.63672,122.55859,331.05469,-0.1638743739904287,0.0823369546603836,-0.0848683802074762,58.8,23.7,7.35
-907.71484,9.76562,-440.91797,-0.0358392889921523,0.0383705400063197,0.0373046674321268,-7.05,28.8,16.35,-356.93359,-16.11328,945.80078,-0.0422343499043847,0.1442895108550248,0.0667488955120467,84.9,0.45,79.2,-955.07812,119.14063,330.56641,-0.1878560705774568,0.1029876903699806,-0.1051194355183664,58.8,23.7,7.35
-915.52734,15.13672,-436.03516,-0.1329647674705344,0.0642174699649541,0.0118575924051242,-6.6,26.25,15.0,-351.07422,-15.625,965.82031,-0.0436999028772844,0.0772741035661985,0.0784731447623186,82.95,1.05,80.4,-948.24219,123.53516,329.58984,-0.1425574461053456,0.0430337107017981,-0.0751423584178126,60.15,23.25,7.35
-902.34375,-1.95312,-435.54687,-0.1296339811260284,0.0169204434993094,0.0049295079393327,-6.6,26.25,15.0,-352.53906,-29.29688,956.05469,-0.0436999028772844,0.0766079113907123,0.1033873707686873,82.8,0.45,79.2,-970.21484,90.33203,345.21484,-0.1838590920574646,0.0271791397766816,-0.1267028751802291,58.95,22.35,7.2
-913.08594,9.76562,-445.80078,-0.1059187963157798,0.0309096065198943,0.0075941021083525,-8.25,27.15,15.75,-354.98047,-12.69531,955.07812,-0.0307764378979672,0.0608866836204481,0.1107151356331855,83.7,-0.75,80.1,-933.59375,122.55859,345.70312,-0.1747994369762124,-0.0310429496747467,-0.0723445956268657,57.3,22.5,7.65
-903.32031,-5.85937,-443.84766,-0.1604104190239956,0.069680001457846,-0.006128723668378,-7.5,28.2,16.8,-359.86328,-42.48047,947.26562,-0.0439662401211387,0.0251807377831481,0.0900643999235885,83.7,-0.75,80.1,-967.77344,124.02344,347.65625,-0.1921193863413034,-0.0186523337160634,-0.0648836621404404,60.15,23.7,8.7
-925.78125,25.39063,-441.89453,-0.1390934911389125,0.1574793130781963,0.0322419908708668,-8.1,28.8,17.1,-365.23437,-30.76172,979.98047,-0.0559571756811154,0.0566231933236764,0.1051194355183664,83.85,0.45,78.9,-955.56641,117.67578,333.00781,-0.2287580361308692,-0.0899310567687362,-0.1279019163763492,58.8,21.45,6.9
-911.62109,25.39063,-452.14844,-0.0921959705390492,0.0523598775598298,0.0856677410048896,-8.1,28.8,17.1,-354.00391,-19.53125,965.82031,0.0093261668580317,0.0293108849250675,0.0778071271197576,83.7,0.0,80.1,-964.84375,87.89063,377.44141,-0.2126371279618983,-0.1155114749505911,-0.1003230962009608,58.8,21.75,7.35
-920.89844,28.32031,-436.03516,-0.0718115720733066,0.087532974376496,-0.0146553551960711,-8.25,28.2,16.2,-341.79687,-20.99609,977.53906,0.0011990411961201,0.0504946441882235,0.0884655037958365,83.85,1.2,78.9,-982.91016,106.93359,408.20312,-0.212503784807046,-0.0850015488294034,-0.0666155523571943,58.8,21.75,7.35
-923.33984,38.57422,-425.78125,-0.1444226794769519,0.1276355791324949,-0.0066615726890119,-7.35,28.5,17.4,-336.42578,-16.60156,979.49219,0.0026645941690197,0.0335742006889141,0.1156446435725182,83.85,1.2,78.9,-951.17187,115.72266,378.41797,-0.2266262909824833,-0.1220398790176759,-0.1108484787880378,58.95,21.6,8.25
-909.66797,50.29297,-401.85547,-0.1452220402743654,0.091529778363563,-0.0173201238980161,-8.1,28.8,15.6,-318.84766,3.90625,982.42187,-0.039569755735365,-0.0243813769857347,0.0654165111610742,82.65,0.75,81.15,-946.77734,136.71875,374.02344,-0.2287580361308692,-0.096459460835821,-0.0506278128101507,59.7,23.4,7.8
-908.69141,33.20313,-392.57812,-0.1056524590719255,0.0692803210591393,-0.0516936853843436,-8.1,25.8,16.65,-344.23828,13.18359,964.84375,-0.0277121633302407,-0.0250473946282958,0.0740764858436197,84.15,1.2,78.9,-936.52344,132.8125,386.23047,-0.1995803198277287,-0.1261700261595952,-0.0377045223637587,59.25,21.6,7.8
-910.64453,18.06641,-400.87891,-0.0782068075184643,0.0403691165327784,0.0098591904115907,-8.1,25.8,16.65,-230.95703,-23.92578,1042.48047,-0.0848683802074762,-0.1408253813556664,0.1224395594163826,84.0,0.0,79.8,-918.94531,115.72266,386.71875,-0.167871352510421,-0.0488959225933967,-0.073676805444913,59.85,21.45,7.65
-904.29687,17.08984,-379.39453,-0.1148452827751048,0.0478300500192038,-0.0105252080541518,-7.35,28.05,16.05,-289.0625,-8.78906,964.35547,-0.1287014517066878,-0.1867901980032639,0.123238920213796,84.0,0.0,79.8,-905.76172,104.98047,400.87891,-0.1574793130781963,-0.031309286918601,-0.0351730968166661,59.85,21.45,7.65
-886.71875,7.32422,-388.67187,-0.0594211306475485,0.0218499514386422,-0.0315757986953806,-7.95,27.45,17.55,-278.80859,-31.25,939.45312,-0.050228132411444,-0.070346019100407,0.1151117945518844,83.85,-0.45,78.15,-913.08594,85.9375,398.4375,-0.1496186991930643,-0.050228132411444,-0.046897346066938,60.3,21.6,9.6
-886.71875,9.27734,-382.8125,-0.0446324322966249,0.0,0.013456313999951,-7.95,27.15,15.45,-287.59766,-31.25,959.47266,-0.0207840788644492,-0.0674150876875329,0.0860674214035963,83.1,0.15,80.25,-920.41016,64.94141,405.76172,-0.1267028751802291,-0.0151883787496302,-0.0309096065198943,59.25,22.65,6.75
-887.20703,25.87891,-395.99609,-0.0858009096268168,0.0819372742616769,-0.0467641774450108,-7.95,27.15,15.45,-288.08594,-23.92578,974.12109,-0.0358392889921523,-0.022382800459276,0.0832694840797242,82.95,0.75,79.8,-899.41406,83.49609,373.53516,-0.1685375446859072,0.050228132411444,-0.0714118916745999,59.25,22.65,6.75
-903.80859,15.13672,-399.90234,0.0019984019935335,0.0347734164179594,-0.0218499514386422,-6.6,27.0,16.65,-291.50391,-28.32031,978.51562,-0.051827028539196,-0.0828698036810175,0.1205743260447762,82.95,0.75,79.8,-894.04297,87.40234,395.99609,-0.1613431229762614,0.0692803210591393,-0.0487625794385443,59.4,22.2,8.4
-916.01562,25.39063,-399.41406,0.0135896571548034,0.0799386977352182,0.055823832526263,-7.95,28.2,16.2,-297.36328,-2.44141,962.40234,-0.0389035635598788,-0.043566559722432,0.1253706653621819,84.15,-0.15,80.55,-895.01953,83.49609,398.92578,-0.1422909343285661,0.0534257501340228,-0.060753514998521,59.4,22.2,8.4
-920.89844,24.90234,-399.41406,-0.0350397536618137,0.0510274932088574,0.0,-9.9,27.3,15.6,-297.36328,5.37109,962.89062,-0.0421010067495324,-0.0130566336012443,0.0911300979648563,81.9,-0.3,79.8,-891.11328,81.54297,379.88281,-0.1754656291516987,0.1273690673557154,-0.0783399761403914,59.7,22.65,7.8
-891.60156,42.96875,-384.27734,-0.0106585512090041,-0.0278453319521679,0.0908637607210019,-8.25,27.15,17.25,-293.94531,-1.46484,960.9375,-0.0338407124656936,-0.054091942309509,0.1084502218628724,81.9,-0.3,79.8,-885.74219,108.39844,373.53516,-0.1072511806667523,0.0806048899107045,-0.0559571756811154,60.6,21.75,6.9
-892.08984,26.85547,-395.50781,-0.0391699008037331,0.0282450123508746,0.0415681577288985,-8.25,27.15,17.25,-278.80859,2.44141,967.28516,-0.0421010067495324,0.0066615726890119,0.1064518198693389,83.55,-0.45,79.2,-901.36719,92.28516,368.65234,-0.055823832526263,0.0831363154577971,-0.0889985273493956,59.4,21.75,7.35
-879.88281,45.41016,-394.04297,-0.0862005900255235,0.0560903443030425,-0.0237151848102485,-8.25,27.15,17.25,-295.89844,-15.13672,962.40234,-0.0233155044115418,0.032908183046353,0.1472204422678988,83.25,0.0,79.8,-901.85547,90.33203,354.98047,-0.0945942274642146,0.0788728251610253,-0.060753514998521,58.8,22.95,8.7
-888.67187,39.0625,-410.15625,-0.0147886983509235,0.0546247913301429,0.0271791397766816,-9.0,29.7,15.45,-295.41016,-20.50781,975.58594,-0.0106585512090041,0.0259800985805615,0.085934078248744,83.85,-0.15,80.55,-914.0625,85.44922,370.60547,-0.0880658233971298,0.1003230962009608,-0.0526263893366094,58.8,22.95,8.7
-909.17969,22.46094,-434.57031,-0.0077274452632048,0.0459648166475974,0.0611531953972277,-8.55,28.95,16.5,-320.80078,-23.92578,957.03125,-0.0355727772153728,0.0430337107017981,0.0971256530113072,83.85,-0.15,80.55,-931.15234,71.28906,393.06641,-0.0932618431132422,0.1333644478692411,-0.0409019655534123,58.5,21.9,7.2
-907.22656,22.94922,-441.40625,-0.0572893854991626,0.0603538345998143,0.0249142260063686,-9.15,27.3,16.35,-348.14453,-15.13672,965.82031,0.0243813769857347,0.0335742006889141,0.1549478875311037,82.35,0.9,79.95,-957.51953,80.56641,364.74609,-0.0764747427687851,0.0651499993842947,-0.0342403928644003,58.5,21.9,7.2
-917.96875,44.43359,-460.9375,-0.0258469299586344,0.0619525561946411,0.0266462907560478,-9.15,27.3,16.35,-344.23828,-25.39063,960.44922,0.0229158240128351,0.0070612530877186,0.0579555776746489,84.15,0.45,79.95,-953.61328,101.07422,355.46875,-0.0816707624848974,0.0999234158022541,-0.0527595579585365,60.0,21.15,9.6
-902.83203,41.99219,-462.40234,-0.025713586803782,0.006128723668378,0.0238483534321757,-7.5,27.45,15.45,-359.86328,-14.64844,961.42578,0.0475635382424242,0.0351730968166661,0.0598208110462552,84.15,0.45,79.95,-971.67969,79.10156,366.69922,-0.0279785005740951,0.0600873228230347,-0.0544916227082157,59.25,20.55,8.85
-911.13281,52.73438,-461.91406,-0.0904640803222952,0.0598208110462552,-0.0074609334864253,-8.55,27.9,15.75,-363.28125,-9.27734,954.10156,-0.0125237845806105,0.0126569532025376,0.0951270764848485,82.8,0.9,78.9,-983.39844,90.33203,356.93359,-0.0448989440734045,0.046897346066938,-0.0564900247017492,58.05,21.75,8.4
-901.85547,48.33984,-452.63672,-0.0282450123508746,-0.0066615726890119,0.043566559722432,-8.7,27.75,15.0,-354.98047,4.39453,968.26172,-0.0113245688515652,0.0058622118915985,0.1291011321053945,83.25,-0.3,80.4,-965.82031,105.46875,358.88672,-0.0735436368229858,0.0698131700797731,-0.0929953313364626,59.4,22.2,7.35
-899.41406,35.64453,-457.03125,-0.0317089673173077,-0.0014655529728996,-0.0138559943986577,-8.7,27.3,16.65,-351.5625,-7.8125,960.44922,-0.0095926786348112,-0.0026645941690197,0.0811377389313384,82.2,0.0,81.15,-959.47266,94.72656,364.74609,-0.0458314734927451,0.060753514998521,-0.0905972489442224,59.1,22.2,7.95
-891.11328,51.75781,-443.35937,-0.087532974376496,0.0287778613715085,0.0109248884528585,-8.7,27.3,16.65,-354.00391,2.44141,969.72656,-0.050761155965003,0.0442327518979182,0.080871401687484,82.2,0.0,81.15,-954.58984,97.65625,363.76953,-0.0359724576140795,0.0225161436141284,-0.0458314734927451,59.4,21.75,7.65
-896.48437,59.08203,-446.77734,-0.0722112524720134,-0.0046631706954784,0.0243813769857347,-9.45,27.75,17.4,-341.79687,-18.06641,968.26172,-0.0572893854991626,0.002264913770313,0.0835359958565038,83.1,1.65,80.25,-971.19141,96.67969,347.16797,-0.0618192130397887,0.0414349891069713,-0.0129234649793172,59.4,21.75,7.65
-885.25391,51.75781,-433.59375,-0.0791393369378048,-0.0133231453780239,0.0478300500192038,-7.95,28.2,15.75,-346.67969,-32.71484,950.68359,-0.0250473946282958,0.0034639549664331,0.1207074946667034,83.25,1.05,79.35,-953.125,97.65625,363.28125,-0.0467641774450108,0.0387702204050264,-0.0294440535469947,60.15,22.5,8.4
-891.11328,43.45703,-458.00781,-0.0908637607210019,0.0554241521275563,0.0101255276554451,-9.3,29.7,16.5,-343.75,-20.99609,954.58984,-0.0690138092823597,0.0768744231674918,0.05475795995207,84.0,0.0,80.4,-963.37891,107.42188,361.32812,-0.018385996472209,-0.0169204434993094,0.0270459711547545,59.85,21.45,9.0
-898.92578,38.08594,-454.10156,-0.0985910314512816,0.0230489926347623,-0.0103920394322246,-9.3,29.7,16.5,-344.72656,-47.85156,951.17187,-0.023448673033469,0.0001331686219271,0.0995237354035474,83.25,-0.3,80.85,-931.64062,90.82031,315.42969,-0.0106585512090041,-0.0181194846954295,0.006128723668378,59.25,22.35,7.5
-906.25,26.85547,-465.82031,-0.0130566336012443,-0.0245145456076619,0.002264913770313,-9.15,29.25,16.05,-342.77344,-35.15625,940.91797,0.0221164632154217,0.0385038831611721,0.0471638578437175,84.0,-0.3,80.1,-944.33594,92.28516,359.86328,-0.0171867807431637,-0.0554241521275563,-0.0157212277702641,60.75,21.9,8.55
-905.76172,38.57422,-467.28516,-0.0534257501340228,0.0454317930940384,-0.032908183046353,-9.9,27.75,17.7,-338.86719,-41.50391,957.03125,-0.0013323843509724,0.0299770771005538,0.0431668793237253,82.95,1.05,79.35,-952.63672,85.44922,355.46875,-0.0125237845806105,-0.05475795995207,0.0744763407752516,60.75,21.9,8.55
-911.62109,36.13281,-460.9375,-0.0146553551960711,0.0651499993842947,-0.0174532925199432,-8.4,28.5,15.6,-354.98047,-39.0625,949.21875,0.0610198522423753,0.0784731447623186,0.0042633157638465,82.95,1.05,79.35,-940.91797,102.53906,350.58594,-0.0807380585326316,-0.0494287716140306,-0.006128723668378,60.15,22.5,7.65
-916.50391,54.19922,-449.70703,-0.0062618922903052,0.002264913770313,0.0326416712695735,-9.3,28.2,15.75,-344.23828,-39.55078,970.21484,0.0349065850398865,0.0125237845806105,0.0679479367081668,83.1,1.65,80.25,-937.01172,127.92969,365.72266,-0.1004564393558132,-0.0595542992694757,-0.0099923590335179,60.75,21.6,8.25
-910.64453,50.29297,-457.51953,0.0358392889921523,-0.0154548905264097,-0.016787100344457,-9.3,28.2,15.75,-339.35547,-12.20703,971.67969,0.0659495347146333,0.0611531953972277,-0.0173201238980161,83.25,0.75,79.8,-947.26562,102.53906,392.08984,-0.1041869060990259,-0.0646171503636608,-0.0350397536618137,60.75,21.6,8.25
-906.25,42.48047,-451.17187,0.0171867807431637,-0.0611531953972277,-0.0181194846954295,-9.3,28.65,16.5,-341.79687,-17.57813,974.60937,0.064750318985588,0.0289112045263608,0.0179861415405771,82.35,-0.45,80.25,-955.56641,124.02344,364.74609,-0.1123138572280122,-0.0854012292281101,-0.0175864611418704,60.6,22.95,8.4
-916.99219,43.94531,-425.78125,0.0317089673173077,0.0090596550812521,-0.0369049870334201,-8.4,28.5,17.4,-394.04297,-7.8125,971.19141,0.0238483534321757,-0.0165205885676775,0.0023980823922402,82.65,1.05,80.85,-922.36328,142.08984,360.35156,-0.1854578136522914,-0.0839356762552105,-0.0281118437289474,60.3,21.6,7.5
-912.59766,37.59766,-429.19922,0.0401026047559989,-0.0198513749121835,-0.0046631706954784,-8.55,27.45,16.2,-256.34766,13.18359,1042.96875,0.0090596550812521,-0.2230291673941229,0.0253139064050753,83.25,1.05,80.85,-927.24609,83.00781,342.28516,-0.1272358987337882,-0.0995237354035474,-0.0295773967018471,59.7,23.4,7.2
-892.57812,60.05859,-414.55078,-0.0087933178373978,-0.0095926786348112,-0.0237151848102485,-8.55,27.45,16.2,-330.07812,63.47656,932.61719,0.0650168307623675,0.0337075438437664,0.0337075438437664,82.8,1.2,81.0,-986.81641,148.92578,338.86719,-0.2280918439553829,-0.0003996803987067,-0.0560903443030425,58.8,22.95,9.0
-886.23047,64.45313,-404.78516,0.031309286918601,-0.0265129476011954,-0.0347734164179594,-9.3,30.15,16.5,-338.86719,24.41406,880.37109,-0.0162542513238231,-0.0819372742616769,0.0559571756811154,82.8,1.2,81.0,-914.0625,112.79297,368.16406,-0.2544716229346512,-0.1205743260447762,-0.0871332939777893,60.15,22.5,8.4
-874.02344,69.33594,-400.87891,0.0446324322966249,-0.0115910806283447,0.0171867807431637,-7.65,28.05,15.0,-318.35937,7.8125,974.60937,-0.0163874199457503,-0.1542816953556175,0.0381042027624654,82.8,1.2,81.0,-938.96484,104.49219,370.60547,-0.2531394131166039,-0.1063184767144865,-0.0791393369378048,60.15,22.95,7.65
-881.34766,61.52344,-420.41016,0.0106585512090041,0.0543582795533633,-0.0654165111610742,-9.3,28.2,16.5,-308.10547,27.83203,973.63281,0.052493046181757,-0.0656830229378538,0.0114579120064175,83.55,1.2,80.25,-945.3125,150.39062,383.78906,-0.3337443030273085,-0.0382373713843925,-0.0880658233971298,60.15,22.95,7.65
-893.55469,38.08594,-420.89844,0.0067947413109391,0.0535589187559499,-0.0572893854991626,-8.7,27.75,15.6,-336.91406,-8.30078,953.125,0.0671485759107534,-0.0912634411197086,0.0090596550812521,82.8,1.65,79.5,-946.77734,105.46875,390.13672,-0.3501317229730588,-0.0019984019935335,-0.1151117945518844,59.4,22.2,7.65
-915.03906,31.73828,-432.61719,0.0417013263508257,0.0403691165327784,-0.0514271736075641,-8.7,27.75,15.6,-318.35937,29.29688,1002.92969,0.0261132672024887,-0.2334212068263476,0.0600873228230347,82.8,-0.15,80.25,-927.24609,101.5625,354.49219,-0.3654532703446163,0.0091929982361045,-0.0478300500192038,59.4,22.2,7.65
-916.01562,30.27344,-420.89844,0.0278453319521679,0.0893982077481023,-0.0514271736075641,-7.65,27.3,16.65,-310.05859,27.83203,1015.13672,0.0009327039522657,-0.2175666359012311,0.1024548413493467,82.8,-0.15,80.25,-911.62109,108.88672,367.1875,-0.3701164410400947,-0.042900542079871,-0.0698131700797731,59.1,22.95,7.95
-920.89844,27.34375,-419.43359,0.0405022851547056,0.0137228257767306,-0.0578224090527217,-9.0,27.45,16.8,-343.26172,46.38672,977.05078,-0.0847350370526239,-0.2356861205966606,0.131099534098928,82.65,1.5,80.85,-924.31641,66.89453,384.27734,-0.4122174477896271,-0.0612863640191548,-0.1128468807815713,59.85,22.2,8.7
-910.64453,50.29297,-416.50391,0.0838025076332833,-0.0123904414257581,0.0,-9.0,27.45,15.75,-297.36328,51.26953,970.70312,-0.0707458740320389,-0.2725911076300807,0.1080505414641657,82.65,0.0,80.4,-919.43359,69.33594,373.04687,-0.3539953583381987,0.0059953805135257,-0.1129800494034985,59.85,21.75,9.0
-894.04297,40.52734,-406.73828,-0.0051960197161123,0.0903307371674429,-0.0803383781339249,-9.0,27.45,15.75,-283.69141,13.67187,965.82031,-0.1437564873014657,-0.4513873485933602,0.0939280352887284,82.65,0.0,80.4,-911.62109,39.55078,387.69531,-0.3611899545807697,-0.0081271256619115,-0.0700796818565527,59.85,21.0,10.05
-889.16016,47.36328,-411.13281,0.0327748398915007,0.0555574952824086,-0.0098591904115907,-8.25,28.65,16.2,-336.91406,31.25,937.01172,-0.0884655037958365,-0.2087733180638333,0.0828698036810175,82.95,1.8,81.15,-919.43359,42.96875,386.71875,-0.350264891594986,0.0543582795533633,-0.1189754299170242,59.85,21.0,10.05
-882.32422,49.80469,-408.20312,0.0226493122360556,0.0039969785199922,-0.0675482563094601,-8.7,28.05,17.7,-286.13281,16.60156,941.40625,-0.0161209081689708,-0.1802617939361791,0.105385947295146,81.9,0.3,82.2,-903.32031,22.94922,385.25391,-0.2853812294545456,0.0341072242424731,-0.0639509581881746,60.0,20.85,7.8
-879.88281,45.89844,-396.48437,-0.0367718184114929,0.067015232755901,-0.1041869060990259,-9.45,27.75,15.3,-309.57031,-1.95312,907.22656,0.089797888146809,-0.0181194846954295,0.0531592383572432,81.45,0.3,82.2,-917.96875,14.64844,401.85547,-0.2532725817385311,0.0125237845806105,-0.0297105653237742,60.0,20.85,7.8
-883.78906,24.90234,-402.34375,-0.0301102457224809,0.0147886983509235,-0.0478300500192038,-9.15,28.5,16.65,-260.74219,88.86719,975.58594,-0.182393539084565,0.0976585020319411,0.0767412545455646,81.45,0.3,82.2,-918.94531,5.85937,407.22656,-0.1818606900639311,0.0371714988101996,-0.0386370517830992,60.75,21.6,8.55
-886.71875,29.78516,-408.69141,-0.0406354537766327,0.059154618870769,-0.0314426300734534,-9.15,28.5,16.65,-293.45703,-39.0625,975.09766,0.1566799522807829,-0.0235820161883213,0.0603538345998143,82.2,1.05,80.4,-914.55078,3.41797,412.59766,-0.1240382810112094,-0.0042633157638465,-0.0173201238980161,59.1,21.45,8.4
-884.27734,9.76562,-422.85156,-0.0595542992694757,0.0838025076332833,-0.0390367321818059,-9.15,28.5,16.65,-305.66406,-16.60156,1005.85937,-0.0270459711547545,0.025713586803782,0.0858009096268168,81.75,2.7,81.75,-943.35937,-19.53125,402.83203,-0.0676814249313873,0.0054625314928918,-0.0889985273493956,59.85,22.95,8.4
-899.41406,25.39063,-437.01172,-0.0568897051004559,0.0342403928644003,-0.0802052095119978,-7.65,27.3,15.3,-311.52344,11.23047,912.59766,0.1496186991930643,0.0868667822010097,0.0476967068643514,81.75,2.7,81.75,-943.84766,-7.32422,395.50781,0.0409019655534123,-0.0225161436141284,-0.0101255276554451,60.0,23.1,9.3
-901.36719,10.74219,-438.96484,-0.0165205885676775,0.067015232755901,0.0302434143444081,-9.6,27.15,16.8,-296.875,5.85937,999.02344,0.1231057515918688,0.0716784034513795,0.0711455544307456,83.1,0.15,82.05,-939.94141,-6.34766,412.59766,0.0512940049856369,-0.0137228257767306,-0.0571562168772355,60.0,20.55,9.9
-886.23047,10.74219,-435.05859,-0.0965926294577481,0.0632847660126884,-0.0182526533173567,-8.25,28.2,16.2,-307.12891,-37.59766,1008.78906,0.0337075438437664,0.0887320155726161,0.0425006871482391,81.3,2.7,80.55,-936.52344,4.88281,422.85156,0.0972588216332344,0.0338407124656936,-0.0504946441882235,59.7,23.1,9.9
-893.55469,22.46094,-426.26953,-0.068614128883653,0.0969923098564548,-0.0628850856139816,-8.25,28.2,16.2,-345.21484,-29.78516,968.75,-0.0620857248165682,0.071944915228159,0.0175864611418704,80.85,0.3,80.4,-937.01172,3.41797,391.60156,0.1818606900639311,-0.0285115241276541,-0.0492956029921034,59.7,23.1,9.9
-892.57812,17.57813,-423.82812,-0.0355727772153728,-0.0179861415405771,0.036238969390859,-8.4,28.05,16.05,-304.6875,-14.64844,979.00391,0.1151117945518844,-0.0365053066347134,-0.0482297304179105,80.85,0.3,80.4,-932.61719,-3.41797,386.71875,0.1666723113143009,0.0063950609122324,-0.0951270764848485,59.7,23.1,9.9
-895.50781,27.34375,-422.85156,-0.0794058487145844,0.0478300500192038,0.0041301471419193,-7.95,28.95,17.55,-290.52734,-35.15625,986.81641,0.1911868569219628,-0.0182526533173567,-0.0219831200605693,81.45,0.75,81.9,-931.64062,11.23047,388.18359,0.1806614743348858,0.0006661921754862,-0.058088746296576,59.85,21.45,9.45
-879.39453,33.20313,-421.875,-0.0929953313364626,0.0467641774450108,-0.015055210127703,-7.95,27.15,16.5,-290.03906,-10.74219,984.86328,0.1544150385104699,0.0393032439585855,-0.0470306892217904,82.35,1.2,81.0,-935.54687,16.11328,379.88281,0.214768698577359,0.0554241521275563,-0.071944915228159,60.15,22.95,8.7
-886.71875,35.64453,-414.55078,-0.0350397536618137,-0.0338407124656936,0.0746095093971788,-9.15,28.05,17.1,-288.57422,-6.83594,995.11719,0.0795390173365115,-0.0539585991546566,-0.0635512777894679,82.8,1.95,81.0,-913.57422,17.57813,376.95312,0.2046431709219139,0.0487625794385443,-0.025713586803782,59.4,20.7,9.45
-872.07031,28.80859,-419.43359,-0.1184425808963904,-0.0066615726890119,-0.0094593354799588,-9.15,28.05,17.1,-279.29687,-16.60156,965.82031,0.069680001457846,0.0011990411961201,-0.0370383301882724,82.95,1.05,81.45,-928.22266,41.99219,386.23047,0.1803951370910315,0.0814042507081179,-0.0442327518979182,61.05,21.9,9.3
-887.20703,28.80859,-430.17578,-0.0651499993842947,0.0174532925199432,-0.0215834396618626,-8.55,28.2,16.8,-270.99609,-15.13672,971.67969,0.0370383301882724,0.0353062654385932,-0.0383705400063197,83.7,0.75,81.15,-915.52734,60.54688,389.64844,0.145621720673072,0.0876661429984231,0.0215834396618626,60.3,21.15,9.9
-877.44141,41.99219,-410.15625,-0.0301102457224809,-0.0019984019935335,0.0154548905264097,-9.6,28.95,16.5,-296.38672,-16.11328,959.96094,0.0916631215184153,0.1009892883764471,-0.0707458740320389,82.2,2.25,81.15,-916.50391,71.77734,387.20703,0.0988575432280612,0.0893982077481023,-0.0423675185263119,60.9,21.0,8.7
-875.97656,40.52734,-442.87109,-0.0699463387017003,-0.0139893375535101,-0.0051960197161123,-8.55,28.2,16.2,-301.75781,-13.67187,976.5625,0.0646171503636608,0.0639509581881746,-0.0291777163031404,82.2,2.25,81.15,-902.83203,80.56641,373.53516,0.0711455544307456,0.1292343007273217,-0.03064326927604,60.9,21.0,8.7
-895.50781,44.43359,-423.33984,-0.0660827033365605,0.0102588708102974,0.0259800985805615,-8.55,28.2,16.2,-287.59766,-11.23047,968.75,0.1024548413493467,0.0758085505932989,-0.0283781809728018,82.35,2.4,81.0,-923.33984,79.58984,375.48828,0.039569755735365,0.0862005900255235,0.0105252080541518,58.05,22.2,7.95
-906.25,38.08594,-436.03516,0.0171867807431637,0.0031976177225788,-0.0067947413109391,-9.15,29.25,15.3,-312.01172,-4.39453,964.84375,0.0904640803222952,0.0622190679714206,-0.0333078634450597,84.6,1.95,81.0,-936.03516,95.70313,392.08984,-0.0279785005740951,0.1067181571131932,-0.0087933178373978,60.0,21.9,9.6
-911.13281,48.33984,-453.125,-0.0197182062902563,0.0026645941690197,-0.0743429976203992,-7.95,29.4,15.75,-291.50391,15.13672,986.81641,0.063684446411395,0.1117810082073784,-0.063018428768834,81.75,1.65,81.75,-922.36328,89.35547,374.02344,-0.0101255276554451,0.1215068554641168,-0.0271791397766816,60.75,23.1,9.6
-931.64062,40.03906,-456.54297,-0.0026645941690197,-0.0155880591483369,-0.075275701572665,-9.0,28.2,15.75,-301.75781,3.90625,975.58594,-0.0309096065198943,0.0512940049856369,-0.0764747427687851,81.75,1.65,81.75,-937.5,102.53906,361.32812,-0.057422728654015,0.1318988948963414,-0.0209172474863764,60.0,22.35,9.9
-910.64453,23.92578,-436.03516,0.050228132411444,-0.0463644970463041,-0.069680001457846,-7.65,28.5,15.3,-301.75781,27.83203,981.93359,0.0205175670876697,0.0147886983509235,-0.0357059458372999,81.3,1.2,82.8,-921.875,87.40234,359.86328,-0.0935283548900217,0.1349631694640679,-0.0766079113907123,58.2,20.1,8.85
-900.39062,31.73828,-427.73437,-0.0130566336012443,-0.0074609334864253,-0.0901975685455157,-7.65,28.5,15.3,-305.66406,2.44141,976.07422,0.0229158240128351,0.013456313999951,-0.0082602942838387,82.2,1.05,80.1,-947.75391,65.42969,347.65625,-0.0758085505932989,0.1318988948963414,-0.041834669505678,58.5,21.9,8.85
-909.17969,27.34375,-439.45312,0.013456313999951,-0.0327748398915007,-0.08420218803199,-7.5,28.65,15.75,-309.08203,-13.18359,971.67969,0.03064326927604,0.0177198042967228,0.0059953805135257,82.2,1.05,80.1,-927.24609,52.73438,357.42187,-0.1028545217480534,0.1517504443414501,-0.037970859607613,58.5,21.9,8.85
