IMU1_AccX,IMU1_AccY,IMU1_AccZ,IMU1_GyrX,IMU1_GyrY,IMU1_GyrZ,IMU1_MagX,IMU1_MagY,IMU1_MagZ,IMU2_AccX,IMU2_AccY,IMU2_AccZ,IMU2_GyrX,IMU2_GyrY,IMU2_GyrZ,IMU2_MagX,IMU2_MagY,IMU2_MagZ,IMU3_AccX,IMU3_AccY,IMU3_AccZ,IMU3_GyrX,IMU3_GyrY,IMU3_GyrZ,IMU3_MagX,IMU3_MagY,IMU3_MagZ
-925.29297,20.01953,-405.27344,-0.0619525561946411,0.0158545709251164,-0.023981696587028,-8.7,28.8,17.1,-367.67578,-22.46094,946.77734,0.0277121633302407,-0.0255804181818548,0.0635512777894679,87.75,0.9,79.5,-942.87109,105.46875,329.10156,-0.0638177895662474,-0.0539585991546566,-0.0702128504784798,58.05,23.25,5.55
-912.10937,26.36719,-394.04297,0.0206509102425221,-0.0628850856139816,0.0302434143444081,-7.35,29.25,17.7,-354.49219,-12.20703,970.70312,-0.0158545709251164,-0.0830031468358699,0.0319754790940873,84.9,-0.45,78.9,-946.77734,85.9375,330.07812,-0.0297105653237742,-0.0456983048708179,-0.0214502710399355,59.4,23.25,5.85
-903.80859,22.94922,-396.97266,-0.0198513749121835,-0.0648836621404404,-0.0163874199457503,-8.1,28.05,18.45,-357.91016,-9.76562,943.35937,-0.0349065850398865,-0.0139893375535101,0.0582220894514284,83.85,0.15,78.45,-949.21875,83.00781,326.17187,-0.041834669505678,-0.0390367321818059,-0.0365053066347134,58.35,23.25,6.3
-906.25,18.06641,-388.67187,-0.015055210127703,0.0474303696204971,-0.0085268060606182,-6.9,29.4,18.3,-356.93359,-23.4375,931.64062,0.014522186574144,-0.0516936853843436,0.0869999508229369,83.85,0.15,78.45,-957.51953,79.58984,319.82422,-0.0255804181818548,-0.0415681577288985,-0.0399694361340717,58.35,23.25,6.3
-904.78516,41.99219,-408.20312,0.0033307863445059,0.006128723668378,0.0203843984657425,-8.55,28.95,18.3,-380.85937,-31.73828,939.94141,-0.0153215473715574,-0.0031976177225788,0.043566559722432,85.35,0.45,78.45,-950.19531,83.49609,331.54297,-0.0455651362488907,-0.023981696587028,-0.0057288687367461,59.4,23.25,5.85
-915.52734,50.29297,-411.62109,0.0075941021083525,0.0015987215948268,0.0207840788644492,-8.55,28.95,18.3,-353.51562,-42.48047,934.08203,0.0446324322966249,0.0731439564242791,0.0363721380127862,83.85,0.15,77.4,-953.61328,77.14844,337.40234,0.0090596550812521,-0.0029311059457992,-0.0426340303030914,59.4,23.25,5.85
-904.78516,33.69141,-404.78516,-0.041301645952119,0.0534257501340228,0.002264913770313,-7.05,29.25,17.1,-352.05078,-54.19922,942.38281,0.0326416712695735,0.0225161436141284,0.0253139064050753,83.7,-0.3,79.8,-962.40234,86.91406,327.63672,0.0305099261211876,-0.029044373148288,-0.0722112524720134,59.25,23.1,7.8
-897.94922,29.29688,-388.67187,-0.0101255276554451,0.0007993607974134,0.0900643999235885,-7.05,29.55,17.1,-366.69922,-29.29688,965.82031,0.0965926294577481,0.0198513749121835,0.0331745202902074,83.7,-0.3,79.8,-936.52344,98.14453,314.94141,-0.0039969785199922,0.0029311059457992,-0.0089264864593249,59.4,22.95,4.5
-898.4375,35.64453,-395.01953,-0.0054625314928918,0.0107917198309313,0.0807380585326316,-7.95,29.4,17.85,-357.42187,-6.34766,955.07812,0.0403691165327784,-0.0189188454928429,0.0615528757959344,84.15,0.15,78.45,-933.59375,120.11719,326.66016,0.0121241041819038,-0.0131899767560967,-0.037970859607613,58.2,21.9,6.15
-899.90234,34.17969,-414.0625,-0.0333078634450597,0.0476967068643514,-0.0133231453780239,-7.95,29.4,17.85,-345.21484,-33.69141,939.45312,0.1325650870718277,0.0079939570399844,0.0147886983509235,84.15,0.45,77.7,-943.84766,106.93359,321.28906,0.0314426300734534,-0.0342403928644003,-0.0419678381276052,59.25,23.4,6.75
-908.20312,27.83203,-417.48047,0.0472970264656447,0.0321086477160144,0.0187856768709157,-6.0,30.3,18.15,-368.65234,0.48828,932.12891,0.059687642424328,0.0110582316077108,0.0371714988101996,84.45,-0.75,78.6,-935.54687,95.21484,325.68359,-0.0146553551960711,-0.0314426300734534,-0.0543582795533633,58.5,22.35,6.45
-918.45703,31.73828,-415.03906,0.0515605167624164,-0.0141225061754373,0.0065284040670847,-6.3,28.8,17.1,-354.98047,-11.23047,945.80078,0.045165455850184,-0.0309096065198943,0.0373046674321268,84.0,0.3,78.0,-943.84766,106.93359,341.30859,0.0105252080541518,-0.0476967068643514,-0.0331745202902074,59.7,21.6,6.45
-904.29687,42.48047,-410.64453,0.0231821612566894,0.0830031468358699,-0.0222496318373489,-7.05,29.85,15.0,-347.16797,-8.78906,941.89453,0.0692803210591393,-0.0038636353651398,0.0123904414257581,83.85,-0.15,80.25,-928.71094,144.53125,340.33203,-0.0548913031069224,-0.0153215473715574,-0.0467641774450108,59.7,21.6,6.45
-904.78516,44.43359,-420.41016,0.0382373713843925,0.0519601971611231,0.0247810573844414,-6.6,29.25,16.35,-350.09766,16.11328,961.42578,0.0758085505932989,-0.0107917198309313,0.029044373148288,84.9,-0.15,79.5,-946.77734,119.62891,335.44922,-0.075275701572665,-0.0309096065198943,-0.1192419416938038,59.25,23.1,6.15
-911.62109,41.99219,-409.17969,0.0454317930940384,-0.0143890179522168,0.0249142260063686,-6.6,29.25,16.35,-351.5625,8.78906,969.72656,0.089797888146809,-0.0772741035661985,0.0119907610270514,84.9,-0.15,79.5,-946.77734,145.01953,350.09766,-0.1260366830047429,-0.0102588708102974,-0.0723445956268657,59.1,23.25,5.85
-912.10937,48.33984,-413.08594,-0.0139893375535101,0.0285115241276541,-0.0135896571548034,-7.35,29.55,17.7,-465.33203,34.17969,965.33203,0.0567565364785288,-0.0959264372822619,0.0764747427687851,85.5,0.3,78.0,-946.77734,132.32422,361.32812,-0.1520167815853045,-0.0054625314928918,-0.0652833425391471,58.2,22.65,5.7
-909.66797,40.52734,-409.66797,-0.0033307863445059,0.0074609334864253,0.0071944217096458,-7.65,29.25,16.65,-384.76562,27.34375,953.125,0.0393032439585855,-0.2290245479076487,0.0233155044115418,85.65,0.9,78.15,-955.56641,104.00391,358.88672,-0.15561407970659,-0.0003996803987067,-0.0279785005740951,58.5,21.6,7.2
-890.13672,41.50391,-409.17969,0.0496952833908101,-0.022382800459276,-0.032908183046353,-7.5,29.7,16.8,-346.19141,13.18359,967.77344,-0.0107917198309313,-0.2109050632122192,0.0195850376683291,85.35,0.9,78.45,-944.82422,145.01953,351.07422,-0.125503833984109,-0.0337075438437664,-0.104320074720953,59.4,22.5,6.3
-906.73828,30.27344,-395.50781,0.0351730968166661,0.1024548413493467,0.0071944217096458,-7.5,29.7,16.8,-336.42578,34.17969,952.14844,-0.0209172474863764,-0.3037672259267546,0.1333644478692411,85.35,0.9,78.45,-929.19922,125.0,350.58594,-0.2194318692728375,-0.042900542079871,-0.0335742006889141,60.0,22.65,6.45
-907.22656,41.99219,-411.13281,0.0676814249313873,0.0544916227082157,0.0247810573844414,-7.65,30.6,16.65,-354.98047,-3.90625,943.84766,-0.050761155965003,-0.2631317721501219,0.0660827033365605,83.7,0.3,80.4,-969.23828,94.72656,368.65234,-0.220364398692178,0.0178529729186499,-0.0823369546603836,60.0,22.65,6.45
-898.4375,39.55078,-403.32031,0.0500949637895168,0.0039969785199922,0.0165205885676775,-7.5,28.65,16.65,-313.47656,-2.44141,945.3125,0.0205175670876697,-0.1807948174897382,0.0983246942074273,84.9,0.45,78.45,-958.00781,80.07813,368.16406,-0.207441108245786,-0.0414349891069713,-0.0724777642487929,58.95,23.85,6.75
-917.96875,61.03516,-405.76172,-0.0262466103573411,0.0995237354035474,-0.0291777163031404,-7.35,28.65,17.55,-340.82031,25.39063,935.05859,-0.0101255276554451,-0.1626753327943086,0.0556906639043358,84.9,0.45,78.45,-937.5,90.33203,371.09375,-0.2422143501308202,-0.0271791397766816,-0.0726111074036452,58.95,23.85,6.75
-911.62109,47.36328,-406.25,0.0399694361340717,0.0063950609122324,0.0403691165327784,-7.35,28.05,17.4,-318.35937,5.85937,966.30859,0.0211837592631559,-0.1794624331387657,0.0804717212887773,82.95,-0.3,78.0,-932.12891,84.96094,358.88672,-0.2447457756779128,-0.0338407124656936,-0.0191853572696224,59.25,23.85,6.75
-917.96875,44.92188,-413.08594,-0.0063950609122324,-0.0271791397766816,0.0050628510941851,-6.15,29.4,17.25,-325.68359,11.23047,956.05469,-0.0009327039522657,-0.1177763887209041,0.0460979852695246,85.05,1.05,79.35,-948.73047,86.42578,344.72656,-0.2572695602585234,-0.0091929982361045,0.0001331686219271,58.8,23.85,5.7
-911.13281,41.99219,-402.83203,-0.040235773377926,0.0492956029921034,-0.0374380105869791,-6.15,29.4,17.25,-304.6875,9.27734,969.72656,0.0912634411197086,-0.0431668793237253,0.077007591789419,85.35,0.15,79.2,-938.47656,59.57031,350.09766,-0.2311562930560345,-0.0151883787496302,0.0097258472567384,58.8,22.5,6.3
-912.59766,46.875,-402.34375,-0.0171867807431637,-0.0310429496747467,-0.0417013263508257,-6.9,29.4,18.3,-330.56641,-41.99219,962.89062,0.0631515973907612,-0.1590780346730231,0.0937948666668012,85.35,0.15,79.2,-948.24219,59.57031,352.05078,-0.2376845225901941,-0.0039969785199922,0.0102588708102974,60.0,22.65,7.5
-914.0625,53.71094,-408.20312,-0.0122572728038309,-0.0237151848102485,0.0353062654385932,-7.05,30.3,16.05,-327.14844,73.24219,966.79687,-0.041834669505678,-0.10205516095064,0.0642174699649541,82.95,1.5,79.8,-938.47656,65.91797,351.5625,-0.2460781600288853,0.063018428768834,-0.0230489926347623,60.15,23.25,7.65
-896.48437,52.73438,-420.89844,-0.0578224090527217,0.0478300500192038,-0.075275701572665,-7.65,28.05,16.65,-326.17187,-25.39063,995.11719,0.0369049870334201,-0.2831163156842325,0.0824701232823108,83.7,0.3,80.1,-932.61719,81.54297,331.54297,-0.1971822374354885,-0.0211837592631559,-0.0730107878023519,60.15,23.25,7.65
-910.15625,50.29297,-427.24609,-0.0433002224785777,0.0407687969314851,0.0033307863445059,-7.65,28.05,16.65,-322.75391,-26.36719,967.28516,-0.0042633157638465,-0.2358192892185878,0.0735436368229858,83.7,0.3,80.1,-943.84766,86.42578,343.75,-0.1450888716524382,0.0053291883380394,-0.0225161436141284,60.15,23.25,6.9
-930.17578,64.94141,-417.96875,-0.0025314255470925,-0.0295773967018471,-0.0019984019935335,-7.05,29.85,17.4,-349.12109,1.46484,930.66406,0.0081271256619115,-0.0814042507081179,0.0795390173365115,84.6,0.9,79.2,-935.54687,69.33594,347.16797,-0.1961163648612956,-0.0740764858436197,-0.0133231453780239,60.15,23.25,6.9
-930.66406,54.19922,-425.78125,-0.0365053066347134,0.0322419908708668,-0.015055210127703,-8.25,28.65,16.2,-339.84375,-10.25391,972.65625,-0.0087933178373978,-0.1128468807815713,0.0764747427687851,83.85,1.2,79.2,-943.84766,53.71094,335.44922,-0.1610766111994818,-0.0301102457224809,-0.0222496318373489,59.25,23.1,7.5
-915.52734,46.38672,-418.45703,-0.0496952833908101,-0.027312482931534,-0.0073277648644981,-8.4,28.8,18.15,-332.03125,-29.78516,946.28906,0.0050628510941851,-0.032908183046353,0.0536922619108023,82.95,0.75,80.85,-946.28906,62.5,330.07812,-0.1665389681594485,-0.0327748398915007,0.0081271256619115,60.3,23.85,7.8
-913.08594,46.875,-416.99219,-0.0286446927495813,-0.0229158240128351,0.0025314255470925,-7.65,28.5,16.35,-342.28516,-3.90625,966.79687,0.0046631706954784,-0.1028545217480534,0.0326416712695735,82.95,0.75,80.85,-945.3125,60.54688,327.63672,-0.1008561197545199,-0.0728774446474996,-0.0831363154577971,58.5,23.1,6.75
-913.08594,59.08203,-423.82812,-0.032908183046353,0.0165205885676775,-0.0378376909856858,-7.65,28.5,16.35,-321.77734,-5.85937,978.02734,0.0194516945134768,-0.1215068554641168,0.0606201718436686,83.25,1.05,79.8,-943.35937,54.6875,338.37891,-0.1047197551196597,-0.0230489926347623,-0.0125237845806105,58.95,24.6,7.2
-917.48047,40.03906,-425.29297,-0.0674150876875329,0.0311761182966739,-0.0440995832759911,-6.9,27.45,17.55,-325.19531,-0.97656,959.47266,-0.0175864611418704,-0.0862005900255235,0.0458314734927451,83.1,1.2,79.95,-953.125,61.03516,343.26172,-0.1099157748357721,0.0326416712695735,-0.0233155044115418,58.35,22.5,6.6
-913.08594,48.82813,-415.03906,-0.0189188454928429,-0.0385038831611721,0.0427671989250186,-8.55,28.95,16.8,-323.24219,-11.23047,941.89453,0.0006661921754862,-0.0700796818565527,0.0578224090527217,84.75,0.75,80.4,-944.33594,59.08203,346.67969,-0.0989908863829135,-0.0221164632154217,0.0179861415405771,59.1,22.95,7.95
-917.48047,45.89844,-429.19922,-0.0651499993842947,-0.0001331686219271,0.0263797789792682,-7.95,27.9,18.3,-333.49609,6.34766,945.80078,0.0109248884528585,-0.0532925815120956,0.0194516945134768,84.75,0.75,80.4,-948.73047,77.63672,340.82031,-0.0771409349442713,0.032908183046353,0.0138559943986577,59.1,22.95,7.95
-917.48047,51.75781,-414.0625,-0.0363721380127862,-0.0177198042967228,-0.0483628990398376,-7.95,27.9,18.3,-336.42578,-3.41797,946.77734,0.0370383301882724,-0.0151883787496302,-0.0139893375535101,84.15,0.15,79.95,-959.47266,69.82422,344.72656,-0.0415681577288985,0.0560903443030425,0.0019984019935335,58.2,22.35,7.8
-916.99219,51.75781,-410.15625,-0.0464976656682313,-0.055823832526263,0.013456313999951,-9.15,29.55,17.4,-321.77734,4.39453,964.35547,0.0299770771005538,-0.0114579120064175,0.0598208110462552,82.2,0.0,80.1,-933.10547,63.47656,322.75391,-0.0838025076332833,0.0655498543159266,0.0003996803987067,59.85,23.25,7.65
-887.69531,43.94531,-389.16016,-0.0652833425391471,-0.0282450123508746,-0.0355727772153728,-5.55,29.25,18.15,-328.125,9.27734,981.93359,0.0542251109314362,-0.0099923590335179,0.0206509102425221,82.65,0.75,81.15,-933.10547,62.5,320.3125,-0.0961929490590414,0.0936615235119489,0.0069280844657914,59.1,22.95,6.6
-905.27344,46.38672,-418.45703,-0.0568897051004559,0.0010658725741929,0.0154548905264097,-6.45,29.7,18.3,-314.45312,19.04297,971.19141,0.0475635382424242,-0.0175864611418704,0.0542251109314362,82.65,0.75,81.15,-942.38281,77.63672,342.28516,-0.0876661429984231,0.1212403436873373,0.0174532925199432,58.95,23.4,8.25
-906.25,60.54688,-404.29687,-0.0431668793237253,-0.0662158719584876,0.0610198522423753,-7.2,29.7,18.9,-345.21484,17.57813,950.68359,-0.0170536121212365,0.0173201238980161,0.0039969785199922,82.2,0.0,80.4,-944.33594,58.10547,325.19531,-0.0820704428836041,0.1713353074768541,-0.0207840788644492,59.7,23.4,8.55
-912.10937,67.38281,-414.55078,-0.0783399761403914,0.0206509102425221,0.006128723668378,-7.2,29.7,18.9,-333.49609,14.16016,952.63672,0.014522186574144,0.0097258472567384,0.0325085026476463,82.65,-0.3,80.4,-934.57031,60.54688,333.49609,-0.0286446927495813,0.1465544246253378,0.023981696587028,60.15,23.25,7.65
-919.92187,63.96484,-410.15625,-0.0676814249313873,-0.0151883787496302,-0.0612863640191548,-7.5,28.65,17.25,-354.98047,-2.44141,969.23828,-0.0410353087082646,0.1159111553492978,0.0514271736075641,84.6,0.45,80.55,-954.58984,64.45313,337.89062,-0.0101255276554451,0.1506845717672572,0.0057288687367461,60.15,23.25,7.65
-913.08594,57.61719,-420.41016,-0.0455651362488907,-0.0233155044115418,0.0091929982361045,-6.15,28.2,17.25,-333.00781,-22.94922,963.86719,-0.0383705400063197,0.0523598775598298,0.0002665117767795,83.7,1.5,80.1,-951.66016,70.3125,319.33594,0.0107917198309313,0.0920628019171221,0.0059953805135257,59.25,21.9,7.2
-913.57422,56.15234,-425.78125,-0.0678147680862396,0.0051960197161123,-0.0478300500192038,-8.1,29.85,16.35,-334.47266,-27.34375,958.00781,0.0,0.0702128504784798,-0.0085268060606182,83.25,1.8,79.8,-940.42969,85.44922,322.75391,0.0087933178373978,0.1016554805519333,-0.022382800459276,59.25,21.9,7.2
-913.57422,36.62109,-441.40625,-0.0474303696204971,-0.007860613885132,-0.0440995832759911,-8.1,29.85,16.35,-340.82031,-7.8125,958.49609,0.0278453319521679,0.0662158719584876,-0.0370383301882724,83.55,0.9,80.25,-963.37891,79.58984,343.26172,0.0225161436141284,0.0985910314512816,-0.0087933178373978,59.7,23.85,7.8
-909.17969,42.48047,-421.875,-0.0053291883380394,-0.0666155523571943,0.0237151848102485,-7.5,28.65,17.85,-342.77344,-3.41797,955.56641,-0.0219831200605693,0.0722112524720134,-0.0041301471419193,83.55,0.9,80.25,-956.05469,80.56641,346.19141,-0.0139893375535101,0.0527595579585365,0.0113245688515652,59.85,22.2,6.9
-907.71484,53.22266,-418.45703,-0.0278453319521679,-0.0409019655534123,-0.0496952833908101,-7.95,28.65,17.55,-347.16797,-2.44141,952.14844,0.0154548905264097,0.046897346066938,0.0154548905264097,83.55,0.9,80.55,-938.96484,66.89453,332.03125,-0.0030642745677264,0.0631515973907612,-0.0210505906412288,59.85,22.2,6.9
-918.94531,68.35938,-404.78516,-0.0199847180670358,-0.0122572728038309,-0.0912634411197086,-9.0,30.45,17.25,-337.89062,1.46484,946.28906,0.0065284040670847,0.1164441789028568,0.0327748398915007,84.15,-0.45,80.55,-967.77344,58.59375,328.61328,0.0417013263508257,0.0564900247017492,-0.0175864611418704,59.7,21.15,7.2
-903.32031,64.45313,-405.76172,0.0285115241276541,-0.0816707624848974,0.027312482931534,-6.9,29.4,16.8,-351.07422,-20.01953,943.35937,0.029044373148288,0.1304333419234418,-0.0458314734927451,83.55,0.45,78.15,-960.44922,81.54297,334.96094,0.1081837100860929,0.0527595579585365,0.013456313999951,58.5,22.35,5.7
-904.78516,52.24609,-410.15625,-0.04849624219469,0.0089264864593249,-0.0751423584178126,-6.9,29.4,16.8,-333.49609,-15.13672,956.54297,0.0587549384720623,0.0442327518979182,-0.0363721380127862,81.75,0.45,79.95,-950.19531,54.6875,321.28906,0.1151117945518844,0.0361056262360067,0.0684807857288007,59.25,22.35,6.15
-888.18359,57.61719,-414.0625,-0.063018428768834,0.0033307863445059,-0.0622190679714206,-6.9,30.15,16.5,-344.72656,-14.16016,962.40234,0.052493046181757,0.0676814249313873,-0.0516936853843436,84.6,0.15,79.2,-947.26562,63.96484,328.125,0.1496186991930643,0.0269126279999021,0.0764747427687851,60.15,24.0,5.25
-919.92187,42.48047,-412.59766,-0.006128723668378,0.0063950609122324,0.0051960197161123,-7.95,30.15,16.5,-341.79687,-23.4375,946.77734,0.0571562168772355,0.0951270764848485,-0.0933951862680945,82.05,1.65,79.5,-937.01172,48.82813,326.17187,0.1865236862264844,0.0514271736075641,0.0462311538914518,60.15,24.0,5.25
-929.6875,46.38672,-408.69141,-0.0023980823922402,-0.0041301471419193,-0.0158545709251164,-8.25,28.2,15.75,-345.70312,-24.41406,941.40625,0.0610198522423753,0.073676805444913,-0.0744763407752516,82.05,1.65,79.5,-937.5,55.17578,340.33203,0.1482863148420918,0.0067947413109391,0.0795390173365115,58.2,24.6,6.45
-922.85156,38.57422,-413.57422,-0.0349065850398865,0.0207840788644492,-0.0103920394322246,-8.25,28.2,15.75,-327.63672,-15.625,944.82422,0.0723445956268657,0.1708024584562202,-0.0768744231674918,83.55,0.45,79.2,-959.47266,84.96094,335.44922,0.1825268822394173,0.0335742006889141,0.046897346066938,59.4,22.95,6.6
-909.17969,48.82813,-401.85547,-0.0037304667432126,-0.0221164632154217,0.0241148652089552,-7.65,29.25,17.4,-337.40234,-21.97266,943.84766,0.041301645952119,0.1175098769441246,-0.1087167336396519,84.0,1.05,80.4,-940.91797,80.07813,329.10156,0.196915725658709,0.05475795995207,-0.0137228257767306,59.25,21.9,7.8
-931.64062,37.59766,-399.90234,-0.0018652333716063,0.0073277648644981,-0.0241148652089552,-8.4,29.85,17.4,-334.47266,-19.04297,959.47266,0.1209740064434829,0.118842261295097,-0.0996569040254746,84.0,0.0,79.8,-955.56641,89.35547,333.98437,0.1573461444562691,0.0559571756811154,0.0275788201753884,58.5,24.6,7.2
-915.03906,56.15234,-415.03906,-0.0146553551960711,0.002264913770313,-0.0211837592631559,-5.4,28.2,16.8,-339.84375,0.0,956.05469,0.0904640803222952,0.0812710820861907,-0.0889985273493956,84.0,0.0,79.8,-956.54297,116.21094,333.49609,0.1939846197129097,-0.0242480338308824,0.0635512777894679,60.0,22.65,5.4
-913.57422,39.0625,-405.76172,0.0503614755662963,0.054091942309509,0.0405022851547056,-8.4,30.6,17.7,-330.07812,3.90625,970.21484,0.0989908863829135,0.113246561180278,-0.0778071271197576,84.75,1.5,79.35,-951.66016,89.84375,325.19531,0.1897213039490632,0.0277121633302407,-0.0139893375535101,59.25,21.9,7.2
-911.13281,38.57422,-411.62109,0.0113245688515652,0.0283781809728018,-0.0527595579585365,-8.4,30.6,17.7,-342.28516,13.67187,968.75,0.0839356762552105,0.0554241521275563,-0.043566559722432,84.6,0.15,79.5,-931.64062,118.65234,336.42578,0.1955835158406617,0.0476967068643514,0.0243813769857347,59.25,21.9,7.2
-921.875,32.22656,-408.20312,0.005595700114819,0.0442327518979182,-0.0427671989250186,-8.4,30.6,17.7,-356.44531,5.85937,961.91406,0.0610198522423753,0.0939280352887284,-0.0855343978500373,84.6,0.15,79.5,-959.96094,110.83984,341.79687,0.1365620655918199,0.0359724576140795,-0.0190520141147701,58.35,24.3,6.9
-926.26953,47.36328,-419.92187,0.0925956509377559,0.0225161436141284,-0.0006661921754862,-7.2,28.65,16.8,-345.70312,19.04297,963.86719,0.071944915228159,0.036238969390859,-0.077540615342978,84.9,0.9,78.45,-951.17187,117.1875,336.42578,0.0854012292281101,0.0254472495599277,0.0551578148837019,58.35,24.3,6.9
-918.94531,48.33984,-422.36328,0.050228132411444,0.0968591412345277,-0.0282450123508746,-7.65,29.55,16.65,-341.30859,18.55469,966.30859,0.0560903443030425,0.0879326547752027,-0.0838025076332833,82.35,-0.45,78.9,-956.54297,108.39844,316.89453,0.0895313763700295,0.0495619402359577,0.0067947413109391,59.25,24.15,7.5
-916.01562,36.13281,-412.59766,0.0399694361340717,0.0153215473715574,-0.0536922619108023,-7.5,28.65,19.35,-354.49219,18.55469,967.28516,0.060753514998521,0.041301645952119,-0.0531592383572432,84.9,0.9,78.15,-961.42578,100.09766,336.42578,0.0854012292281101,0.0018652333716063,-0.0075941021083525,59.7,24.6,6.45
-913.08594,38.08594,-420.41016,0.0755420388165193,0.0193185258915496,0.0235820161883213,-7.5,28.65,19.35,-364.74609,22.94922,947.26562,0.0715452348294523,0.0314426300734534,-0.0265129476011954,84.9,0.9,78.15,-958.00781,123.04688,343.26172,0.0743429976203992,0.0554241521275563,0.0476967068643514,57.6,22.95,5.85
-917.96875,57.61719,-420.89844,0.0622190679714206,0.0559571756811154,-0.0163874199457503,-6.9,28.95,16.8,-346.67969,36.13281,949.70703,0.0051960197161123,0.0242480338308824,-0.0051960197161123,84.45,0.3,80.1,-963.37891,122.55859,334.96094,0.0676814249313873,0.0058622118915985,0.0515605167624164,58.05,23.25,7.35
-910.15625,39.55078,-399.90234,0.0315757986953806,0.0496952833908101,-0.0784731447623186,-7.35,30.6,18.15,-352.53906,27.34375,967.28516,0.0381042027624654,-0.0031976177225788,-0.0532925815120956,84.75,0.3,78.6,-961.91406,110.83984,334.96094,0.0927289940926083,0.075275701572665,0.0462311538914518,58.2,22.65,5.7
-906.25,35.15625,-402.34375,0.0956601000384076,0.0142556747973644,0.0270459711547545,-7.5,28.2,17.55,-332.51953,22.46094,955.56641,0.0062618922903052,0.0291777163031404,-0.0303767574992605,84.75,0.3,78.6,-961.91406,104.49219,332.51953,0.0892648645932499,0.0651499993842947,0.0478300500192038,59.1,22.95,6.3
-906.73828,35.15625,-407.22656,0.0143890179522168,0.0318423104721601,-0.061419532641082,-7.35,29.85,16.35,-343.26172,7.32422,943.35937,0.006128723668378,0.0755420388165193,-0.0378376909856858,83.7,-0.3,79.05,-954.58984,94.72656,327.63672,0.0503614755662963,0.057422728654015,0.0655498543159266,59.1,22.95,6.3
-908.69141,22.46094,-404.78516,0.0233155044115418,0.0631515973907612,-0.0269126279999021,-7.35,29.85,16.35,-348.63281,13.18359,958.98437,0.0492956029921034,0.0933951862680945,-0.0213169278850831,84.15,1.2,79.95,-938.96484,85.44922,341.79687,0.0722112524720134,0.0126569532025376,0.0856677410048896,59.1,23.25,6.6
-909.17969,27.83203,-414.55078,0.0687472975055802,-0.0091929982361045,0.0147886983509235,-6.9,28.95,18.3,-333.49609,8.78906,967.77344,0.0949939078629213,0.0834028272345766,-0.0261132672024887,84.15,0.45,79.95,-950.19531,85.44922,332.51953,0.0988575432280612,-0.0015987215948268,0.0655498543159266,57.6,22.5,6.3
-909.66797,20.01953,-418.45703,0.0181194846954295,0.050228132411444,-0.0330413516682802,-7.65,29.85,16.65,-359.86328,12.20703,964.84375,0.0684807857288007,0.0671485759107534,-0.0319754790940873,84.15,0.45,79.95,-940.42969,105.46875,332.03125,0.1670719917130076,0.0219831200605693,0.0927289940926083,57.6,22.5,6.3
-905.76172,27.34375,-416.99219,0.0443659205198454,0.0013323843509724,-0.0269126279999021,-7.95,30.45,16.5,-345.21484,19.53125,949.70703,0.0157212277702641,0.077007591789419,-0.0153215473715574,84.15,0.45,79.95,-950.19531,104.00391,337.40234,0.0988575432280612,-0.0186523337160634,0.0796723604913639,58.5,22.35,7.8
-913.08594,30.27344,-400.39062,0.0397029243572922,-0.0326416712695735,0.0269126279999021,-7.95,30.45,16.5,-351.5625,9.76562,952.63672,0.0258469299586344,0.0877993116203503,-0.0318423104721601,84.6,-0.15,78.9,-937.5,88.37891,314.45312,0.1573461444562691,0.0023980823922402,0.0844685252758443,58.5,22.65,6.45
-923.82812,12.20703,-428.22266,-0.0467641774450108,-0.0029311059457992,-0.0003996803987067,-7.5,30.15,16.8,-348.14453,6.83594,965.33203,0.0283781809728018,0.1346968322202135,-0.0522267089379027,83.85,0.9,78.9,-933.10547,96.67969,328.61328,0.1382939558085739,0.036238969390859,0.0351730968166661,59.25,22.65,6.15
-908.69141,34.66797,-408.69141,-0.0311761182966739,0.031309286918601,0.023448673033469,-7.35,29.55,16.65,-350.09766,19.04297,950.19531,-0.0031976177225788,0.0627519169920545,-0.0646171503636608,83.55,0.45,78.15,-942.38281,103.51563,335.44922,0.1135130729570576,0.059154618870769,0.022382800459276,58.2,24.15,7.2
-928.22266,24.41406,-416.99219,0.0301102457224809,-0.025713586803782,0.0259800985805615,-6.3,28.5,16.35,-346.19141,-4.39453,958.98437,0.0218499514386422,0.0779402957416847,-0.0330413516682802,84.15,0.9,79.2,-941.89453,90.33203,334.47266,0.1073843492886795,0.0488959225933967,0.0189188454928429,58.2,24.15,7.2
-909.17969,27.83203,-425.78125,-0.0214502710399355,0.0219831200605693,-0.0079939570399844,-8.1,28.8,17.7,-363.76953,3.90625,960.9375,0.0383705400063197,0.0803383781339249,-0.052493046181757,83.1,1.2,78.15,-938.47656,123.53516,327.14844,0.1275022359776425,0.0646171503636608,0.0494287716140306,58.8,23.7,5.85
-912.59766,29.29688,-423.33984,-0.0087933178373978,-0.0109248884528585,0.0062618922903052,-8.1,28.8,17.7,-371.09375,2.44141,956.54297,0.0189188454928429,0.1108484787880378,-0.0492956029921034,83.25,0.0,79.05,-955.07812,126.95313,341.79687,0.1625421641723815,0.0193185258915496,0.0289112045263608,58.8,23.7,5.85
-907.71484,39.0625,-417.96875,0.014522186574144,-0.0294440535469947,0.054091942309509,-7.05,28.5,15.0,-361.32812,14.64844,950.68359,0.0377045223637587,0.0846018684306967,-0.0345069046411798,83.25,0.0,79.05,-953.125,112.30469,332.03125,0.1081837100860929,0.0211837592631559,0.0337075438437664,58.95,22.35,5.4
-911.13281,39.0625,-427.24609,-0.0351730968166661,0.0034639549664331,0.0013323843509724,-7.2,28.65,17.25,-364.25781,15.13672,962.89062,0.031309286918601,0.1012558001532266,-0.0189188454928429,82.2,1.5,77.55,-965.33203,122.55859,328.125,0.128834620328615,0.0337075438437664,0.0880658233971298,59.4,24.0,5.55
-918.45703,43.94531,-414.0625,-0.0599539796681824,0.023448673033469,-0.0110582316077108,-8.1,28.8,18.45,-373.53516,14.16016,970.21484,0.050761155965003,0.0495619402359577,-0.0038636353651398,85.5,0.3,79.8,-964.84375,147.46094,321.28906,0.0895313763700295,-0.0097258472567384,0.0046631706954784,60.0,23.85,6.45
-933.10547,34.17969,-426.26953,-0.0059953805135257,-0.0210505906412288,0.0354394340605204,-8.1,28.8,18.45,-352.05078,14.64844,954.58984,0.0089264864593249,0.029044373148288,-0.0085268060606182,84.75,0.75,79.35,-970.70312,130.85937,338.37891,0.0872664625997164,0.0129234649793172,0.0458314734927451,59.85,23.7,7.35
-911.62109,39.55078,-414.0625,-0.0131899767560967,-0.0213169278850831,0.0259800985805615,-7.2,30.15,17.55,-358.88672,18.55469,941.40625,0.0315757986953806,0.0206509102425221,0.0153215473715574,85.35,-0.45,78.9,-964.84375,120.60547,337.89062,0.0258469299586344,-0.0263797789792682,-0.0215834396618626,59.85,23.7,7.35
-917.96875,37.10938,-425.29297,-0.0262466103573411,0.0087933178373978,-0.0019984019935335,-9.3,27.45,16.5,-361.81641,7.32422,974.12109,0.0289112045263608,0.0159877395470436,0.0527595579585365,86.25,0.75,78.6,-954.10156,130.37109,313.96484,0.0659495347146333,-0.0434333911005048,0.061419532641082,58.8,23.7,6.3
-919.92187,40.03906,-402.83203,-0.0011990411961201,0.0034639549664331,0.0810045703094112,-7.35,29.25,16.35,-358.39844,27.83203,959.47266,0.0010658725741929,0.0430337107017981,0.0452986244721112,84.75,-0.3,78.6,-967.77344,126.46484,328.125,0.0695466583029936,-0.0137228257767306,0.0294440535469947,58.8,23.7,6.3
-910.64453,45.89844,-414.0625,-0.0149218669728507,0.0089264864593249,0.0094593354799588,-7.35,28.8,16.35,-374.02344,24.41406,943.35937,0.025713586803782,0.0611531953972277,0.0498284520127373,84.75,-0.3,78.6,-958.49609,123.53516,333.00781,0.0430337107017981,-0.051827028539196,0.0119907610270514,58.8,23.7,6.6
-908.20312,41.01563,-420.89844,-0.0495619402359577,0.0246477142295891,0.0282450123508746,-7.35,28.8,16.35,-361.81641,25.39063,951.17187,-0.0009327039522657,0.0470306892217904,-0.0113245688515652,82.8,0.15,77.4,-965.82031,112.30469,328.61328,-0.0251807377831481,-0.0560903443030425,0.0924624823158288,59.1,23.25,5.85
-898.92578,55.17578,-412.10937,0.0294440535469947,-0.0063950609122324,0.0197182062902563,-7.05,28.8,17.1,-368.65234,23.92578,970.21484,-0.005595700114819,0.0245145456076619,-0.0077274452632048,83.7,1.5,79.05,-947.26562,115.72266,315.42969,0.0229158240128351,-0.0246477142295891,0.0207840788644492,59.85,23.7,6.9
-909.66797,53.71094,-407.22656,0.0038636353651398,-0.0442327518979182,0.0618192130397887,-7.35,29.55,16.65,-362.30469,22.94922,939.45312,0.0173201238980161,0.0123904414257581,0.0387702204050264,85.05,1.5,79.35,-947.26562,106.93359,344.23828,0.0494287716140306,-0.039569755735365,-0.0423675185263119,58.35,22.95,6.6
-915.03906,67.87109,-404.29687,-0.0536922619108023,0.0716784034513795,-0.0023980823922402,-7.65,29.85,16.65,-359.375,29.78516,938.47656,-0.0230489926347623,0.0426340303030914,-0.0222496318373489,85.05,1.5,79.35,-943.35937,101.07422,340.33203,0.0393032439585855,-0.0205175670876697,-0.0043966589186989,59.4,23.25,4.8
-913.08594,58.59375,-423.33984,-0.0333078634450597,0.0263797789792682,-0.0193185258915496,-7.2,29.7,16.5,-360.35156,27.34375,957.03125,-0.0115910806283447,0.0249142260063686,0.0401026047559989,83.85,0.9,78.45,-953.125,104.49219,343.75,-0.0009327039522657,-0.0556906639043358,-0.0194516945134768,58.95,23.85,6.15
-912.10937,48.82813,-416.50391,-0.068081105330094,0.0123904414257581,0.0367718184114929,-8.1,29.25,16.05,-367.67578,41.50391,948.24219,-0.0026645941690197,0.0033307863445059,0.0349065850398865,84.45,0.75,78.6,-954.10156,89.84375,349.60937,0.0584886012282079,-0.0885988469506889,-0.0531592383572432,58.95,23.85,6.15
-915.52734,59.08203,-403.32031,-0.0803383781339249,0.0246477142295891,0.0093261668580317,-7.35,29.85,16.65,-352.05078,45.89844,941.40625,-0.005595700114819,0.0492956029921034,0.0315757986953806,84.45,0.75,78.6,-959.47266,120.11719,372.07031,0.0587549384720623,-0.0409019655534123,0.0390367321818059,59.4,23.7,6.6
-899.41406,68.35938,-378.41797,-0.0687472975055802,0.0456983048708179,-0.0325085026476463,-8.4,29.55,17.1,-352.53906,44.43359,952.63672,-0.0444992636746978,0.0087933178373978,0.0049295079393327,84.6,2.7,77.4,-949.70703,89.35547,360.83984,0.0046631706954784,-0.0746095093971788,0.0143890179522168,59.4,23.7,6.6
-890.13672,74.21875,-379.39453,-0.0295773967018471,-0.0311761182966739,-0.0050628510941851,-7.35,29.25,17.1,-346.67969,40.52734,974.60937,-0.0722112524720134,-0.025713586803782,0.0622190679714206,84.45,1.05,79.05,-948.24219,112.30469,333.98437,0.0247810573844414,-0.0463644970463041,-0.0399694361340717,59.4,23.7,6.6
-883.78906,66.40625,-375.0,-0.0762082309920056,0.041834669505678,0.0073277648644981,-7.35,29.25,17.7,-325.68359,22.46094,974.60937,-0.0470306892217904,-0.0365053066347134,0.0406354537766327,83.85,1.2,78.15,-932.61719,116.21094,345.21484,0.0460979852695246,0.0051960197161123,-0.0365053066347134,59.1,22.5,6.9
-891.11328,71.28906,-392.08984,-0.0698131700797731,0.0199847180670358,-0.0330413516682802,-7.35,29.25,17.7,-328.61328,18.55469,963.86719,-0.0366386497895657,-0.0221164632154217,0.023448673033469,83.85,1.2,78.15,-927.73437,137.20703,338.86719,0.0543582795533633,0.0297105653237742,-0.0867336135790826,60.0,24.15,5.4
-899.90234,63.47656,-399.90234,-0.040235773377926,0.0199847180670358,-0.0492956029921034,-7.65,28.8,16.65,-341.79687,32.22656,954.58984,-0.032908183046353,-0.0341072242424731,-0.0417013263508257,85.05,0.3,78.6,-911.62109,117.67578,305.66406,0.085934078248744,0.0026645941690197,-0.0391699008037331,58.5,23.1,6.45
-916.50391,76.17188,-427.73437,-0.0848683802074762,0.0139893375535101,-0.0559571756811154,-8.55,29.7,16.8,-339.35547,38.08594,960.44922,-0.0760750623700784,-0.0486294108166172,0.0478300500192038,83.25,-0.75,78.6,-903.32031,143.55469,307.61719,0.0873996312216436,-0.004529827540626,-0.0707458740320389,58.95,23.1,7.2
-897.94922,76.66016,-437.5,-0.0568897051004559,0.0135896571548034,-0.0459648166475974,-9.0,28.65,16.5,-339.35547,11.23047,939.45312,-0.1313660458757076,-0.0371714988101996,0.0604870032217414,83.25,-0.75,78.6,-927.73437,164.55078,336.42578,0.1183094122744632,0.0337075438437664,0.0003996803987067,58.95,23.1,7.2
-912.10937,75.68359,-444.33594,-0.041834669505678,-0.0250473946282958,-0.0377045223637587,-7.5,28.95,15.45,-362.30469,7.32422,945.80078,-0.0655498543159266,-0.0358392889921523,0.0519601971611231,85.35,0.45,78.45,-946.28906,162.10937,317.38281,0.1001899275790336,0.0003996803987067,-0.0171867807431637,59.85,22.5,5.55
-917.96875,58.10547,-436.03516,-0.0762082309920056,0.0464976656682313,-0.0850015488294034,-7.5,28.95,15.45,-354.49219,-33.20313,925.78125,0.0458314734927451,-0.0237151848102485,0.0370383301882724,84.45,1.05,78.0,-938.47656,175.29297,306.15234,0.1267028751802291,-0.0566231933236764,0.0058622118915985,59.85,22.5,5.55
-895.01953,31.25,-416.99219,-0.0766079113907123,0.0281118437289474,-0.0782068075184643,-8.25,29.4,17.85,-400.87891,-16.60156,948.73047,0.0365053066347134,-0.0197182062902563,0.0073277648644981,82.8,1.95,78.45,-949.70703,150.87891,322.75391,0.0887320155726161,0.0143890179522168,-0.0031976177225788,58.95,23.85,6.15
-886.23047,45.89844,-418.45703,-0.0366386497895657,-0.0102588708102974,-0.0349065850398865,-9.0,30.15,17.55,-372.55859,-18.06641,956.05469,0.0419678381276052,-0.0523598775598298,-0.0115910806283447,82.8,1.95,78.45,-959.47266,128.41797,352.53906,0.0787396565390981,0.0058622118915985,0.1036538825454668,58.5,21.6,6.15
-906.73828,46.38672,-416.99219,-0.0656830229378538,0.0325085026476463,-0.0389035635598788,-8.7,30.3,17.1,-361.32812,-26.36719,993.65234,-0.0338407124656936,-0.1349631694640679,0.0417013263508257,85.5,0.75,78.3,-971.19141,130.85937,332.51953,0.0229158240128351,0.0195850376683291,0.0225161436141284,58.95,21.6,6.75
-888.18359,25.39063,-401.85547,-0.0359724576140795,0.0363721380127862,-0.050761155965003,-8.7,30.3,17.1,-372.07031,-7.32422,958.49609,0.0490290912153239,-0.1141790905996186,0.0361056262360067,84.45,-0.3,77.55,-962.40234,130.37109,320.3125,0.0318423104721601,0.0576890658978693,0.0113245688515652,58.5,22.65,5.4
-911.13281,27.34375,-409.17969,0.050228132411444,-0.0187856768709157,-0.0586217698501351,-7.95,30.9,17.55,-343.75,1.46484,967.77344,0.0827366350590903,-0.1604104190239956,0.0393032439585855,84.15,1.2,79.5,-974.12109,135.25391,355.95703,0.052493046181757,0.023981696587028,0.0834028272345766,58.5,21.9,7.2
-911.62109,32.22656,-414.0625,-0.0330413516682802,0.0014655529728996,-0.0599539796681824,-8.25,28.95,16.8,-346.67969,19.04297,977.05078,0.0812710820861907,-0.1011224569983742,0.0427671989250186,84.15,1.2,79.5,-964.35547,117.67578,338.37891,-0.0151883787496302,0.0398360929792193,0.0229158240128351,58.95,21.6,7.2
-925.78125,42.96875,-427.24609,0.0043966589186989,0.0011990411961201,-0.027312482931534,-7.95,30.15,17.55,-347.65625,20.99609,956.54297,0.050761155965003,-0.1537488463349836,0.0602204914449619,84.0,0.75,78.6,-969.23828,133.78906,315.91797,-0.0157212277702641,0.0700796818565527,0.0123904414257581,58.95,21.6,7.2
-906.73828,50.29297,-429.19922,0.0175864611418704,-0.0259800985805615,0.0498284520127373,-7.35,30.6,16.65,-347.16797,41.99219,970.21484,-0.0221164632154217,-0.1680045211323481,0.0624854052152749,84.6,-0.15,79.5,-937.01172,119.62891,315.91797,0.0011990411961201,0.0790061683158777,-0.0054625314928918,59.4,23.25,6.6
-923.82812,44.43359,-426.75781,-0.006128723668378,-0.0193185258915496,0.0049295079393327,-7.35,30.6,16.65,-329.58984,26.85547,964.84375,-0.0750091897958855,-0.1917197059425967,0.0421010067495324,83.55,0.45,79.5,-947.26562,75.19531,326.66016,0.0297105653237742,0.050228132411444,-0.0087933178373978,58.95,21.15,6.75
-915.03906,44.92188,-427.24609,-0.0367718184114929,-0.0422343499043847,0.002264913770313,-8.4,30.3,17.7,-345.21484,31.73828,936.52344,-0.0687472975055802,-0.1498852109698438,0.0338407124656936,83.55,0.45,79.5,-947.26562,101.5625,327.14844,-0.011191400229638,0.0233155044115418,0.0664823837352672,59.4,22.5,4.5
-920.89844,42.48047,-426.26953,-0.0309096065198943,-0.0546247913301429,0.0339738810876208,-6.6,29.25,16.65,-336.91406,14.16016,939.94141,-0.0389035635598788,-0.06634921511334,0.0734104682010586,84.45,1.5,79.35,-930.66406,104.00391,319.82422,0.0198513749121835,0.0046631706954784,-0.0266462907560478,59.7,22.65,4.65
-910.64453,38.08594,-426.75781,-0.0483628990398376,0.0122572728038309,0.0163874199457503,-9.0,29.4,17.85,-327.14844,-10.74219,951.17187,-0.0814042507081179,-0.080871401687484,0.0901975685455157,84.9,1.2,79.95,-937.5,78.125,315.91797,0.0289112045263608,-0.0287778613715085,-0.0157212277702641,58.8,24.0,5.85
-921.875,41.50391,-419.43359,-0.085934078248744,0.0106585512090041,0.0093261668580317,-9.0,29.4,17.85,-351.5625,-13.67187,955.07812,-0.0812710820861907,-0.0202512298438154,0.0627519169920545,84.15,1.2,77.7,-935.54687,102.05078,312.98828,0.0514271736075641,-0.0047963393174056,-0.0394364125805126,59.1,22.5,5.55
-921.38672,49.31641,-429.6875,-0.0612863640191548,-0.0233155044115418,0.0834028272345766,-7.35,29.85,17.7,-352.53906,-11.23047,966.79687,-0.0944608843093623,-0.0762082309920056,0.0327748398915007,84.0,0.0,80.1,-935.05859,111.81641,321.77734,0.0486294108166172,-0.0275788201753884,-0.0538254305327295,59.1,22.5,5.55
-919.43359,28.32031,-434.08203,-0.1353630243956998,0.0074609334864253,-0.0342403928644003,-7.5,29.4,16.2,-340.82031,-36.62109,956.05469,-0.1157779867273706,-0.0414349891069713,0.0202512298438154,83.55,-0.15,79.95,-921.875,100.58594,332.03125,0.0520933657830503,-0.0077274452632048,-0.0923293136939016,58.35,23.7,5.25
-904.78516,47.36328,-423.82812,-0.0791393369378048,0.0283781809728018,-0.0162542513238231,-5.7,30.15,16.5,-347.65625,-13.18359,940.42969,-0.0622190679714206,-0.0021317451483858,0.0643506385868813,83.25,0.0,78.3,-941.89453,115.72266,330.56641,-0.0103920394322246,-0.0390367321818059,-0.0051960197161123,58.35,23.7,5.25
-907.22656,55.17578,-420.41016,-0.0774072721881257,0.0031976177225788,0.0676814249313873,-8.7,30.6,18.75,-348.14453,-20.01953,964.35547,-0.0871332939777893,0.0227824808579827,0.0678147680862396,83.25,0.0,78.3,-934.57031,114.25781,321.28906,-0.0550244717288496,-0.0225161436141284,-0.0903307371674429,58.35,23.7,5.25
-900.87891,48.82813,-398.92578,-0.1271025555789358,0.0263797789792682,-0.0627519169920545,-8.7,30.6,18.75,-341.30859,-19.04297,963.86719,-0.057422728654015,0.0219831200605693,0.0466310088230837,83.55,0.9,78.9,-928.22266,123.04688,356.44531,-0.0735436368229858,0.0035972981212855,-0.0207840788644492,58.8,22.5,5.55
-930.66406,57.12891,-412.10937,-0.0735436368229858,0.0482297304179105,-0.006128723668378,-7.65,29.85,17.7,-327.14844,-22.46094,979.00391,-0.0911300979648563,0.014522186574144,-0.0213169278850831,84.45,1.05,80.4,-948.24219,117.1875,350.58594,-0.0419678381276052,0.0049295079393327,-0.0177198042967228,60.75,21.9,6.45
-922.36328,22.94922,-403.80859,-0.0455651362488907,0.0279785005740951,0.0151883787496302,-7.5,28.65,17.85,-321.28906,-24.90234,962.40234,-0.0979250138087206,-0.045165455850184,0.0443659205198454,84.15,0.9,79.2,-947.75391,111.32813,324.21875,-0.0989908863829135,0.0193185258915496,-0.0213169278850831,60.15,21.75,5.85
-926.75781,32.71484,-397.46094,-0.0679479367081668,0.0303767574992605,-0.0427671989250186,-6.3,31.05,17.4,-320.80078,-31.73828,950.19531,-0.0920628019171221,-0.0046631706954784,0.0869999508229369,84.15,0.9,79.2,-950.19531,113.76953,315.91797,-0.0836691644784309,0.0138559943986577,-0.0305099261211876,60.0,22.65,7.2
-902.83203,37.59766,-400.39062,-0.0778071271197576,0.0562235129249697,-0.0951270764848485,-6.3,31.05,17.4,-321.77734,-32.71484,958.98437,-0.0560903443030425,-0.0543582795533633,0.0522267089379027,83.25,0.3,78.0,-950.68359,106.93359,326.66016,-0.0996569040254746,0.0210505906412288,-0.0414349891069713,60.0,22.65,7.2
-924.80469,34.66797,-409.66797,-0.0259800985805615,0.0021317451483858,-0.0263797789792682,-6.45,29.7,16.8,-308.10547,-54.6875,969.23828,-0.0828698036810175,-0.0311761182966739,0.0603538345998143,83.7,0.75,79.05,-922.85156,107.42188,318.84766,-0.1193751103157309,0.0762082309920056,-0.0259800985805615,59.4,23.25,5.85
-915.52734,24.90234,-421.875,-0.0414349891069713,0.0326416712695735,-0.052493046181757,-7.35,28.8,19.2,-328.61328,-51.75781,954.58984,-0.0803383781339249,-0.0227824808579827,0.0401026047559989,83.7,0.75,79.05,-918.45703,114.25781,309.57031,-0.1449555284975858,0.0810045703094112,-0.0013323843509724,59.4,23.25,5.85
-907.71484,20.50781,-414.0625,-0.022382800459276,0.0579555776746489,-0.0458314734927451,-8.55,29.7,17.55,-327.63672,-36.13281,945.3125,-0.0475635382424242,-0.0283781809728018,0.0341072242424731,83.55,0.15,78.15,-908.69141,93.26172,320.80078,-0.1621424837736748,0.0671485759107534,-0.0027979373238721,58.35,22.2,6.6
-899.90234,24.90234,-430.66406,0.0119907610270514,0.0038636353651398,-0.0562235129249697,-8.4,29.25,17.4,-349.60937,-40.03906,944.33594,-0.0154548905264097,-0.022382800459276,0.0101255276554451,82.2,0.3,79.8,-918.45703,84.47266,336.91406,-0.1329647674705344,0.0628850856139816,-0.0303767574992605,57.6,22.5,4.8
-903.32031,11.71875,-437.98828,0.0031976177225788,0.094860564708069,-0.0115910806283447,-8.4,29.25,17.4,-340.33203,-41.50391,948.24219,-0.0230489926347623,0.0034639549664331,-0.0043966589186989,83.1,0.45,79.2,-927.24609,82.03125,318.35937,-0.0973919902551615,0.0189188454928429,-0.0215834396618626,58.5,22.65,6.45
-911.13281,15.625,-439.94141,-0.0151883787496302,0.0337075438437664,-0.0700796818565527,-6.6,28.8,17.1,-335.9375,-27.83203,955.07812,-0.0233155044115418,-0.0002665117767795,-0.0271791397766816,83.1,0.45,79.2,-942.38281,88.86719,338.37891,-0.1220398790176759,0.0522267089379027,-0.0243813769857347,58.5,21.6,6.75
-919.92187,14.16016,-445.3125,0.0552909835056291,0.0431668793237253,-0.0095926786348112,-7.65,29.55,17.7,-353.51562,-25.87891,957.51953,-0.0230489926347623,0.0378376909856858,0.0315757986953806,82.65,0.3,80.1,-964.35547,97.65625,355.46875,-0.1016554805519333,-0.0093261668580317,-0.0382373713843925,58.8,23.7,4.8
-931.15234,30.27344,-418.45703,0.0471638578437175,0.0478300500192038,-0.077540615342978,-7.65,29.25,17.7,-337.89062,-32.71484,967.77344,-0.0047963393174056,0.0098591904115907,0.0126569532025376,83.1,0.45,79.95,-949.21875,95.21484,343.26172,-0.1693369054833206,0.006128723668378,-0.034640073263107,58.5,23.4,6.15
-918.45703,5.37109,-414.0625,0.0624854052152749,0.0403691165327784,-0.0325085026476463,-7.65,29.25,16.35,-326.17187,-16.60156,960.44922,0.0042633157638465,0.015055210127703,-0.0021317451483858,83.1,0.45,79.95,-971.19141,83.98438,337.40234,-0.1336309596460206,0.0065284040670847,-0.0421010067495324,58.5,23.4,6.15
-910.64453,12.20703,-422.36328,0.0711455544307456,0.0301102457224809,-0.0371714988101996,-7.65,29.25,16.35,-341.30859,1.46484,983.39844,0.0094593354799588,-0.0191853572696224,0.0407687969314851,83.7,0.75,77.55,-968.26172,80.56641,349.12109,-0.1341638086666545,0.0355727772153728,-0.0488959225933967,58.8,24.0,6.3
-897.94922,11.23047,-409.17969,0.0985910314512816,0.025713586803782,0.0436999028772844,-8.25,29.4,16.5,-329.58984,-11.71875,957.51953,-0.0478300500192038,-0.042900542079871,0.0433002224785777,84.6,-0.45,79.5,-953.61328,90.82031,335.9375,-0.1308330223221485,0.0385038831611721,-0.0475635382424242,59.4,22.2,6.3
-898.4375,9.76562,-417.48047,0.0615528757959344,0.0089264864593249,-0.0442327518979182,-8.7,29.85,18.75,-324.21875,-32.71484,968.75,-0.0279785005740951,-0.0488959225933967,0.0042633157638465,84.9,-0.45,79.2,-946.77734,88.37891,313.96484,-0.1296339811260284,0.031309286918601,-0.0830031468358699,59.25,22.35,6.15
-908.69141,10.25391,-429.19922,0.075275701572665,0.0094593354799588,-0.0107917198309313,-7.95,30.15,16.8,-336.91406,-18.06641,953.61328,-0.0762082309920056,-0.0155880591483369,0.0369049870334201,84.9,-0.45,79.2,-947.26562,69.33594,312.98828,-0.0674150876875329,0.0197182062902563,-0.0406354537766327,58.5,21.9,7.2
-897.94922,22.94922,-431.15234,0.0530260697353161,0.0074609334864253,-0.0287778613715085,-6.15,29.4,15.45,-343.75,-49.31641,939.94141,-0.0233155044115418,-0.0125237845806105,0.057422728654015,82.65,1.05,78.0,-942.87109,71.77734,332.51953,-0.0963261176809686,0.0131899767560967,-0.0058622118915985,59.1,23.7,6.3
-889.64844,26.36719,-432.61719,0.0258469299586344,0.0038636353651398,0.0017320647496791,-6.15,29.4,15.45,-332.03125,-62.01172,948.24219,-0.0163874199457503,0.0107917198309313,0.0440995832759911,84.15,0.9,78.9,-938.47656,75.68359,323.24219,-0.0401026047559989,-0.0081271256619115,-0.0262466103573411,59.1,23.25,5.85
-893.06641,14.16016,-435.54687,0.0921959705390492,0.0102588708102974,0.0479632186411309,-9.15,29.55,16.35,-336.91406,-40.03906,949.21875,-0.0207840788644492,0.0608866836204481,-0.0261132672024887,83.85,0.45,80.25,-937.5,71.28906,304.19922,-0.0375711792089063,0.0620857248165682,-0.0480965617959833,59.1,23.25,5.85
-913.08594,21.97266,-435.54687,0.0299770771005538,0.0283781809728018,0.0512940049856369,-8.25,28.95,16.8,-339.35547,-37.59766,967.28516,0.0107917198309313,0.0046631706954784,-0.0153215473715574,83.85,0.45,80.25,-942.38281,67.38281,329.10156,-0.0568897051004559,0.0099923590335179,-0.0744763407752516,60.0,23.4,6.15
-902.34375,14.16016,-434.57031,-0.0102588708102974,0.0527595579585365,0.0074609334864253,-7.95,29.7,17.55,-338.37891,-27.34375,939.94141,0.0374380105869791,0.0099923590335179,0.0490290912153239,83.85,-0.45,78.9,-933.10547,75.19531,333.98437,-0.0443659205198454,0.0219831200605693,-0.023448673033469,60.0,23.4,6.15
-902.83203,35.64453,-438.47656,0.002264913770313,0.027312482931534,0.0695466583029936,-7.95,29.7,17.55,-314.94141,-18.06641,941.40625,0.0073277648644981,0.0726111074036452,-0.0115910806283447,83.25,-0.3,79.05,-929.19922,98.63281,326.66016,0.0001331686219271,0.0105252080541518,-0.0466310088230837,58.5,23.4,6.15
-913.57422,13.67187,-427.73437,0.0366386497895657,-0.0177198042967228,0.007860613885132,-9.3,28.95,16.5,-343.75,-17.08984,977.53906,0.0083936374386911,0.0655498543159266,0.039569755735365,83.7,-0.3,80.4,-932.12891,98.14453,336.42578,-0.0222496318373489,0.0366386497895657,-0.0314426300734534,59.7,23.4,6.45
-914.55078,16.11328,-433.59375,-0.0115910806283447,0.0177198042967228,0.0210505906412288,-6.9,27.9,17.55,-343.26172,-0.48828,978.51562,0.0671485759107534,0.0599539796681824,-0.0127901218244648,83.7,-0.3,80.4,-956.05469,111.32813,353.02734,-0.0339738810876208,-0.0171867807431637,-0.0920628019171221,59.7,21.9,6.15
-913.57422,38.57422,-415.03906,0.0373046674321268,-0.0019984019935335,-0.0034639549664331,-7.95,29.4,15.75,-324.21875,6.34766,976.5625,0.023448673033469,0.0286446927495813,0.0480965617959833,82.35,0.15,80.25,-952.14844,106.44531,340.82031,-0.0642174699649541,0.0187856768709157,-0.0455651362488907,59.85,22.95,5.25
-893.55469,27.34375,-412.10937,0.0278453319521679,-0.0456983048708179,0.0107917198309313,-9.45,28.5,17.1,-329.10156,14.64844,973.63281,0.0383705400063197,0.0286446927495813,0.015055210127703,84.15,0.9,81.3,-955.07812,123.04688,325.68359,-0.0583552580733556,0.0683476171068735,-0.0738101485997654,58.95,21.9,5.7
-889.64844,49.31641,-409.66797,-0.049162259837251,0.0302434143444081,-0.0141225061754373,-9.45,28.5,17.1,-329.58984,-6.83594,994.14062,-0.0118575924051242,0.0115910806283447,0.0126569532025376,82.95,0.75,79.8,-945.3125,132.8125,342.77344,-0.0919296332951949,0.0399694361340717,-0.0768744231674918,58.95,21.9,5.7
