IMU1_AccX,IMU1_AccY,IMU1_AccZ,IMU1_GyrX,IMU1_GyrY,IMU1_GyrZ,IMU1_MagX,IMU1_MagY,IMU1_MagZ,IMU2_AccX,IMU2_AccY,IMU2_AccZ,IMU2_GyrX,IMU2_GyrY,IMU2_GyrZ,IMU2_MagX,IMU2_MagY,IMU2_MagZ,IMU3_AccX,IMU3_AccY,IMU3_AccZ,IMU3_GyrX,IMU3_GyrY,IMU3_GyrZ,IMU3_MagX,IMU3_MagY,IMU3_MagZ
-941.40625,54.19922,-439.45312,0.0655498543159266,-0.0122572728038309,0.0631515973907612,-5.55,27.3,18.15,-357.42187,6.34766,957.51953,0.0594211306475485,0.0490290912153239,-0.0790061683158777,82.8,3.15,79.2,-971.19141,-5.37109,330.56641,0.2158345711515519,-0.0135896571548034,0.1047197551196597,58.5,21.15,7.8
-943.35937,53.71094,-429.19922,0.042900542079871,0.0516936853843436,-0.0030642745677264,-6.15,27.45,17.85,-381.34766,26.36719,943.35937,0.064750318985588,0.0877993116203503,-0.1213736868421896,84.0,2.55,78.6,-965.82031,-13.18359,332.51953,0.2206309104689576,-0.0492956029921034,0.093128674491315,61.05,21.6,9.3
-934.57031,42.48047,-409.66797,0.0559571756811154,-0.015055210127703,0.0828698036810175,-7.65,27.75,17.7,-347.16797,19.53125,959.47266,0.034640073263107,0.0421010067495324,-0.1128468807815713,83.85,2.7,79.2,-943.35937,-0.48828,352.05078,0.2190321888741307,0.0119907610270514,0.0843353566539172,61.05,21.15,6.45
-922.36328,40.03906,-399.41406,0.077540615342978,-0.0105252080541518,0.0819372742616769,-8.4,27.3,17.7,-350.09766,16.11328,977.05078,-0.0218499514386422,0.0165205885676775,-0.1220398790176759,83.85,2.7,79.2,-947.75391,37.59766,345.70312,0.1930520902935692,0.0146553551960711,0.0715452348294523,59.85,21.45,9.0
-943.35937,51.75781,-399.41406,0.0165205885676775,0.0155880591483369,0.0235820161883213,-8.4,27.3,17.7,-345.70312,21.97266,957.51953,0.0019984019935335,0.0125237845806105,-0.0759418937481512,83.85,2.7,79.2,-941.89453,17.08984,351.07422,0.1765313271929664,-0.0270459711547545,0.0796723604913639,59.7,21.15,7.8
-908.69141,55.66406,-401.85547,0.0969923098564548,0.0261132672024887,0.0490290912153239,-7.35,29.55,17.4,-355.46875,4.39453,938.96484,0.0098591904115907,0.0744763407752516,-0.1312327027208552,84.45,4.05,79.05,-923.82812,6.34766,361.81641,0.1973154060574157,-0.0294440535469947,0.086467101802303,60.0,21.9,6.75
-924.80469,50.29297,-391.11328,0.0576890658978693,0.0041301471419193,0.0538254305327295,-7.2,27.15,16.8,-339.35547,16.11328,955.07812,0.002264913770313,0.0563568560798221,-0.0664823837352672,84.6,1.2,78.15,-920.89844,82.51953,359.375,0.201845408130967,-0.0122572728038309,0.1179097318757565,61.05,21.9,8.25
-922.36328,52.24609,-391.11328,0.0546247913301429,-0.0101255276554451,-0.0118575924051242,-8.4,26.25,17.7,-335.44922,4.39453,964.35547,-0.0057288687367461,0.0294440535469947,-0.104320074720953,84.6,2.4,78.9,-932.61719,67.87109,358.88672,0.128834620328615,-0.0034639549664331,0.1041869060990259,61.05,21.9,8.25
-909.66797,43.45703,-380.85937,0.0778071271197576,-0.05475795995207,-0.0389035635598788,-7.35,27.75,16.65,-323.73047,3.90625,940.42969,0.0258469299586344,0.0143890179522168,-0.1091164140383586,84.6,2.4,78.9,-923.82812,57.61719,355.46875,0.1524164619840112,0.0106585512090041,0.1412250617543731,60.6,22.5,6.9
-899.90234,44.92188,-381.34766,0.0798055291132911,-0.0490290912153239,-0.0397029243572922,-6.9,27.45,16.8,-319.33594,-2.92969,962.40234,0.0399694361340717,0.0538254305327295,-0.0981913510525749,85.05,3.75,79.8,-928.71094,75.19531,359.375,0.0682144484849463,0.0302434143444081,0.1085833904847996,60.15,22.2,7.35
-906.25,43.94531,-395.50781,0.0552909835056291,0.0338407124656936,-0.0560903443030425,-8.55,27.9,17.85,-343.75,11.71875,977.05078,0.071944915228159,0.0981913510525749,-0.0988575432280612,84.45,1.05,78.6,-940.91797,60.05859,367.67578,0.0339738810876208,-0.0153215473715574,0.1267028751802291,59.4,21.75,8.4
-911.62109,25.87891,-390.13672,0.0896645449919567,-0.032908183046353,-0.1133797298022052,-7.2,27.45,16.5,-360.83984,19.04297,960.9375,0.0578224090527217,0.0390367321818059,-0.029044373148288,84.45,1.05,78.6,-942.87109,80.07813,372.07031,0.0314426300734534,-0.0298437339457014,0.1195084534705833,60.3,21.15,7.8
-930.17578,16.11328,-411.13281,0.1364287224369675,-0.0286446927495813,-0.0945942274642146,-8.4,26.55,17.4,-365.72266,33.20313,936.52344,0.0788728251610253,0.0638177895662474,-0.0755420388165193,84.6,1.65,78.15,-942.38281,90.33203,366.21094,-0.0207840788644492,0.0053291883380394,0.0748760211739583,59.4,22.2,7.35
-944.33594,1.46484,-408.20312,0.0490290912153239,-0.013456313999951,-0.1304333419234418,-8.4,26.55,17.4,-355.95703,49.80469,959.47266,0.0896645449919567,0.0462311538914518,-0.0655498543159266,83.85,1.65,79.2,-950.19531,78.125,357.42187,0.0307764378979672,0.0399694361340717,0.1300336615247351,60.6,21.75,7.35
-939.94141,-6.34766,-395.01953,0.086467101802303,-0.0387702204050264,-0.0527595579585365,-6.45,27.15,16.8,-361.32812,52.24609,959.47266,0.0678147680862396,0.046897346066938,-0.0127901218244648,83.85,1.2,79.5,-967.77344,65.42969,364.25781,0.007860613885132,0.0127901218244648,0.1709356270781474,60.6,21.75,7.35
-919.92187,-6.83594,-395.01953,0.1039203943222463,-0.0237151848102485,-0.0050628510941851,-6.9,27.9,15.15,-345.70312,48.33984,951.17187,0.0331745202902074,0.0193185258915496,-0.0602204914449619,83.85,1.2,79.5,-971.19141,71.77734,370.11719,0.0266462907560478,0.0496952833908101,0.1574793130781963,61.05,21.6,7.2
-897.94922,-10.74219,-379.88281,0.023981696587028,0.0159877395470436,-0.0503614755662963,-7.35,27.3,17.1,-348.14453,37.10938,958.00781,0.0193185258915496,0.0803383781339249,-0.0103920394322246,84.45,1.5,80.1,-957.51953,60.54688,347.16797,0.0243813769857347,0.0600873228230347,0.0983246942074273,61.05,21.6,7.2
-916.99219,11.71875,-381.34766,0.0995237354035474,0.0341072242424731,-0.015055210127703,-7.05,26.55,17.1,-354.49219,36.62109,959.96094,0.037970859607613,0.0528927265804637,-0.0263797789792682,84.0,2.25,77.55,-974.60937,67.38281,340.33203,0.0576890658978693,0.0476967068643514,0.1057856276938527,58.2,21.9,6.45
-912.59766,-0.97656,-381.34766,0.0767412545455646,0.006128723668378,0.0069280844657914,-7.05,26.55,17.1,-353.02734,22.94922,937.01172,0.0508943245869302,0.0366386497895657,-0.0337075438437664,83.85,3.45,78.9,-944.33594,57.61719,368.16406,0.0103920394322246,0.0407687969314851,0.059154618870769,59.85,21.45,7.95
-926.75781,-0.48828,-386.23047,-0.018385996472209,0.0110582316077108,0.0071944217096458,-6.6,27.0,16.65,-346.67969,10.25391,940.91797,0.0780734643636119,0.0285115241276541,-0.0237151848102485,84.9,2.4,80.25,-940.42969,84.47266,370.60547,0.0374380105869791,0.0483628990398376,0.0575558972759422,59.85,21.45,7.95
-920.41016,9.76562,-382.8125,0.0454317930940384,-0.0171867807431637,0.0070612530877186,-7.65,26.55,16.35,-344.72656,41.50391,963.86719,0.0462311538914518,0.0093261668580317,-0.0155880591483369,84.15,2.7,78.45,-940.91797,67.38281,328.61328,0.0434333911005048,0.0487625794385443,0.0776737839649052,60.6,22.5,7.65
-937.01172,2.92969,-396.48437,0.0023980823922402,-0.0711455544307456,0.0780734643636119,-7.05,26.25,16.65,-348.63281,42.48047,940.91797,0.0191853572696224,0.0115910806283447,0.006128723668378,84.75,1.8,77.55,-935.05859,68.84766,348.14453,0.0983246942074273,0.0398360929792193,0.0014655529728996,59.7,20.85,8.25
-925.78125,12.20703,-386.23047,-0.041834669505678,0.0321086477160144,0.0209172474863764,-7.05,26.25,16.65,-343.26172,53.22266,944.33594,0.040235773377926,-0.0158545709251164,0.0275788201753884,84.75,1.8,77.55,-917.48047,59.08203,362.79297,0.0113245688515652,0.0350397536618137,0.0229158240128351,59.7,20.85,8.25
-925.78125,9.76562,-397.46094,0.0138559943986577,-0.0417013263508257,0.0283781809728018,-7.95,28.65,17.25,-353.51562,60.05859,963.37891,0.0422343499043847,0.0438330714992115,0.027312482931534,85.35,2.4,78.9,-932.12891,84.47266,349.60937,0.0246477142295891,0.0207840788644492,0.0185191650941362,59.4,21.0,7.95
-919.92187,15.625,-397.94922,-0.0103920394322246,-0.0019984019935335,0.0844685252758443,-7.65,27.0,15.3,-368.65234,62.98828,955.56641,-0.0031976177225788,0.0198513749121835,0.0197182062902563,85.05,1.05,78.0,-949.21875,92.77344,356.93359,0.0656830229378538,-0.0206509102425221,0.0083936374386911,59.4,21.0,7.95
-910.15625,21.48438,-404.78516,-0.0350397536618137,-0.0409019655534123,0.0235820161883213,-7.5,26.4,18.3,-371.58203,51.75781,926.26953,-0.0089264864593249,0.0327748398915007,0.0027979373238721,86.25,3.0,79.05,-944.33594,96.67969,363.76953,0.0628850856139816,-0.0195850376683291,0.023981696587028,58.8,22.95,8.4
-920.89844,36.62109,-420.41016,-0.0133231453780239,-0.0095926786348112,0.0401026047559989,-7.05,27.0,16.65,-385.25391,44.43359,928.71094,-0.0042633157638465,0.0660827033365605,0.0656830229378538,84.9,1.65,79.5,-976.5625,110.83984,375.0,0.0454317930940384,-0.0321086477160144,0.0123904414257581,57.15,21.15,7.5
-909.66797,42.96875,-404.78516,-0.0961929490590414,0.0393032439585855,0.0386370517830992,-7.05,27.0,16.65,-380.37109,47.85156,950.19531,-0.0127901218244648,0.0423675185263119,0.0194516945134768,84.45,3.3,78.3,-972.65625,78.61328,347.65625,0.0337075438437664,-0.0439662401211387,0.0247810573844414,57.45,21.9,7.2
-901.36719,49.80469,-383.30078,-0.0604870032217414,0.0214502710399355,0.0460979852695246,-7.05,27.0,16.65,-371.09375,34.17969,949.70703,0.0050628510941851,0.0027979373238721,0.0952604196397009,82.8,1.65,78.9,-959.96094,83.00781,366.69922,-0.0007993607974134,-0.0050628510941851,-0.0170536121212365,57.9,23.1,7.8
-882.8125,49.80469,-380.37109,-0.0992572236267679,0.0230489926347623,-0.0043966589186989,-7.35,27.75,17.4,-353.02734,33.69141,958.00781,-0.0327748398915007,0.0274456515534612,0.0925956509377559,82.8,1.65,78.9,-970.21484,85.9375,359.86328,-0.0462311538914518,0.0101255276554451,-0.0299770771005538,57.9,23.1,7.8
-886.23047,35.15625,-387.69531,-0.1151117945518844,0.0567565364785288,-0.0189188454928429,-7.2,27.45,16.2,-361.81641,43.45703,964.35547,-0.0338407124656936,0.0129234649793172,0.1056524590719255,85.05,1.05,78.3,-949.21875,54.19922,366.21094,-0.0015987215948268,0.0247810573844414,-0.0039969785199922,60.15,22.95,6.3
-902.34375,36.13281,-391.60156,-0.080871401687484,0.0466310088230837,0.0135896571548034,-7.5,26.7,17.55,-337.89062,36.62109,948.24219,-0.0556906639043358,-0.0466310088230837,0.0675482563094601,84.15,2.4,78.15,-949.21875,52.73438,348.14453,0.0178529729186499,0.0539585991546566,0.0165205885676775,60.15,22.95,6.3
-901.85547,41.99219,-387.69531,-0.1013889687751538,0.0030642745677264,0.0141225061754373,-7.5,26.7,17.55,-332.51953,25.87891,936.03516,-0.0438330714992115,-0.034640073263107,0.1338974714228001,84.6,1.95,77.1,-946.28906,71.77734,341.79687,0.063018428768834,0.0783399761403914,0.0339738810876208,58.95,21.15,7.2
-907.22656,46.38672,-394.04297,-0.1592113778278755,0.0307764378979672,-0.0185191650941362,-7.2,27.9,16.5,-334.96094,35.15625,957.51953,-0.0245145456076619,-0.0311761182966739,0.0799386977352182,84.6,1.95,77.1,-936.52344,64.94141,337.89062,0.0688804661275074,0.0664823837352672,0.0291777163031404,59.25,21.6,6.45
-927.24609,34.17969,-404.78516,-0.085934078248744,0.0207840788644492,0.0310429496747467,-8.4,27.0,17.1,-349.60937,37.59766,949.70703,-0.0834028272345766,-0.0166539317225298,0.0241148652089552,83.85,1.95,78.15,-941.40625,55.66406,334.47266,0.0592879620256213,0.1416247421530798,-0.0498284520127373,58.8,22.5,6.6
-917.96875,25.87891,-399.90234,-0.1089830708835063,0.0097258472567384,0.0097258472567384,-7.2,26.7,17.85,-326.17187,39.0625,950.68359,-0.0879326547752027,-0.0205175670876697,0.0532925815120956,83.85,3.15,77.7,-934.57031,59.08203,328.125,0.0499617951675896,0.1398928519363259,0.0034639549664331,58.2,21.6,7.2
-914.55078,27.34375,-410.64453,-0.1461547442266311,0.0086599746825454,-0.0620857248165682,-7.2,27.9,16.8,-359.375,24.90234,949.21875,-0.0734104682010586,-0.0426340303030914,0.1059187963157798,83.85,3.15,77.7,-935.54687,57.61719,329.10156,0.0710122112758932,0.1721348428071927,-0.0674150876875329,58.5,21.9,8.25
-929.19922,34.66797,-409.66797,-0.1384272989634262,0.0063950609122324,-0.0492956029921034,-7.2,27.9,16.8,-351.5625,23.92578,943.35937,-0.1069846688899728,-0.0592879620256213,0.1012558001532266,84.0,1.05,78.3,-921.875,37.59766,324.21875,0.0776737839649052,0.2098391906380262,-0.0053291883380394,60.0,20.55,6.45
-920.41016,44.92188,-395.01953,-0.0936615235119489,-0.0378376909856858,0.0394364125805126,-7.2,25.65,15.75,-354.00391,28.80859,955.07812,-0.063018428768834,-0.018385996472209,0.061419532641082,84.15,3.15,79.2,-942.87109,61.03516,333.00781,0.0564900247017492,0.1863905176045572,0.0095926786348112,60.0,20.55,6.45
-923.33984,59.08203,-402.34375,-0.1582786738756097,0.007860613885132,-0.0333078634450597,-7.5,27.9,16.5,-364.25781,18.55469,988.28125,-0.0740764858436197,-0.0195850376683291,0.0666155523571943,84.15,1.95,78.45,-939.45312,29.29688,328.61328,0.1541485267336904,0.1283017713079811,-0.0093261668580317,58.8,21.75,6.6
-934.08203,50.29297,-389.16016,-0.1453552088962925,-0.0279785005740951,0.0443659205198454,-7.5,27.15,17.25,-364.74609,-7.8125,954.10156,-0.0854012292281101,-0.0122572728038309,0.0534257501340228,84.15,1.95,78.45,-943.84766,18.06641,326.66016,0.1501515482136981,0.1069846688899728,0.0138559943986577,58.5,23.1,7.2
-937.01172,48.82813,-390.625,-0.1071178375118999,-0.0203843984657425,0.0069280844657914,-6.3,28.05,17.4,-350.58594,-3.41797,956.54297,-0.0371714988101996,0.0115910806283447,0.0327748398915007,84.15,1.95,78.45,-955.07812,75.19531,319.33594,0.1810613292665177,0.1765313271929664,-0.0119907610270514,59.25,20.85,6.45
-925.78125,34.17969,-392.08984,-0.1533491659362769,-0.023981696587028,-0.0091929982361045,-6.3,28.05,17.4,-348.63281,-23.4375,957.03125,-0.1068515002680456,-0.0186523337160634,0.0431668793237253,84.45,1.8,77.55,-976.07422,33.69141,320.80078,0.1681378642872005,0.190254152969697,0.0251807377831481,60.9,23.25,6.9
-905.76172,26.36719,-396.97266,-0.1593445464498027,0.0322419908708668,-0.0411684773301918,-7.5,27.45,17.25,-345.70312,-35.64453,940.91797,-0.0495619402359577,0.0089264864593249,0.0246477142295891,84.75,1.5,78.6,-955.56641,79.10156,334.47266,0.2006461924019217,0.2248944007657293,-0.041301645952119,60.9,23.25,6.9
-926.75781,23.92578,-384.76562,-0.082603291904238,0.0073277648644981,-0.0579555776746489,-6.45,27.9,17.55,-344.72656,-24.41406,955.07812,-0.04849624219469,-0.0053291883380394,0.0293108849250675,84.6,1.2,78.9,-954.10156,79.58984,338.37891,0.2232955046379773,0.221430271266371,0.0438330714992115,60.0,21.9,6.15
-903.80859,39.55078,-387.20703,-0.1488193383956508,0.0438330714992115,-0.0600873228230347,-7.5,26.1,17.85,-352.05078,-10.25391,963.37891,-0.0190520141147701,0.0075941021083525,0.0081271256619115,85.5,1.8,78.6,-971.67969,96.67969,323.73047,0.1922527294961557,0.2594013054069092,0.0616860444178615,60.15,22.5,6.9
-919.92187,38.08594,-390.625,-0.1117810082073784,0.0390367321818059,-0.0305099261211876,-7.5,26.1,17.85,-365.72266,-25.39063,970.70312,0.061419532641082,-0.0243813769857347,-0.0595542992694757,85.35,0.9,78.15,-978.51562,73.24219,338.37891,0.1853246450303643,0.2274256517798967,0.0347734164179594,60.15,22.5,6.9
-911.62109,26.36719,-408.20312,-0.0711455544307456,0.0009327039522657,0.0712787230526728,-8.1,28.5,17.1,-362.79297,0.97656,963.86719,0.0479632186411309,0.0065284040670847,-0.0535589187559499,84.15,2.4,78.9,-970.21484,91.79688,354.00391,0.2053093630974001,0.1665389681594485,0.0506278128101507,59.25,21.15,4.95
-925.29297,41.99219,-406.73828,-0.0975253334100139,0.0523598775598298,-0.0675482563094601,-7.05,28.5,16.35,-353.51562,0.97656,956.54297,0.0355727772153728,-0.0215834396618626,-0.0314426300734534,84.15,2.4,78.9,-963.37891,83.98438,330.56641,0.2075742768677131,0.1621424837736748,0.0977916706538682,58.5,23.1,4.95
-934.08203,44.43359,-416.01562,-0.0967257980796753,0.0211837592631559,-0.0411684773301918,-8.7,27.3,17.4,-355.46875,18.55469,952.14844,0.0512940049856369,0.0403691165327784,-0.0504946441882235,83.85,2.7,78.45,-957.03125,66.40625,342.77344,0.2133031456044594,0.1640077171452811,0.0754088701945922,59.7,23.4,5.4
-935.54687,42.48047,-401.36719,-0.0495619402359577,-0.0165205885676775,-0.0071944217096458,-6.0,29.25,16.05,-366.21094,1.46484,964.35547,0.0031976177225788,-0.0043966589186989,-0.0014655529728996,84.75,1.5,77.25,-958.98437,40.03906,339.35547,0.2117044240096326,0.1293674693492489,0.1253706653621819,60.75,21.6,4.95
-920.41016,29.29688,-399.41406,-0.0937948666668012,0.0051960197161123,-0.0594211306475485,-6.0,29.25,16.05,-342.77344,9.76562,970.70312,0.023448673033469,0.0087933178373978,-0.0515605167624164,84.6,3.9,79.5,-954.58984,106.93359,353.51562,0.1449555284975858,0.1598775700033617,0.0827366350590903,59.4,22.5,7.65
-899.90234,33.20313,-396.48437,-0.1476202971995308,0.013456313999951,-0.0727442760255724,-7.95,27.15,18.3,-353.02734,20.01953,951.17187,0.0218499514386422,0.0,-0.0498284520127373,84.6,3.9,79.5,-942.87109,67.38281,339.35547,0.1737335644020195,0.1697365858820273,0.077540615342978,58.8,21.75,4.8
-895.50781,31.25,-393.55469,-0.068614128883653,-0.0479632186411309,-0.0287778613715085,-6.9,28.95,18.6,-369.62891,11.23047,950.19531,0.051827028539196,0.0051960197161123,-0.0189188454928429,85.05,3.3,79.35,-943.84766,112.30469,318.84766,0.1108484787880378,0.1195084534705833,0.0819372742616769,58.8,21.75,4.8
-896.48437,37.59766,-386.71875,-0.0997902471803269,0.0161209081689708,-0.0925956509377559,-6.9,28.65,17.25,-360.35156,30.76172,948.24219,0.0214502710399355,-0.0295773967018471,-0.0791393369378048,84.15,1.65,79.2,-949.70703,124.02344,315.42969,0.1244379614099161,0.1329647674705344,0.0967257980796753,59.85,22.95,6.6
-886.71875,36.62109,-389.64844,-0.105385947295146,0.0178529729186499,-0.0840688448771376,-6.9,28.65,17.25,-355.46875,36.13281,942.38281,0.0351730968166661,-0.0177198042967228,-0.0361056262360067,84.15,1.65,79.2,-931.64062,111.81641,310.05859,0.107650861065459,0.1125803690047918,0.0755420388165193,59.85,22.95,6.6
-885.74219,42.96875,-392.57812,-0.042900542079871,-0.0398360929792193,-0.0579555776746489,-6.9,28.95,17.55,-348.14453,54.19922,949.21875,0.0443659205198454,-0.0586217698501351,-0.0371714988101996,84.75,1.5,79.8,-925.78125,125.97656,317.87109,0.1275022359776425,0.0911300979648563,0.0490290912153239,60.0,22.35,4.65
-901.36719,42.96875,-399.41406,-0.1626753327943086,0.0442327518979182,-0.0508943245869302,-8.25,28.65,16.5,-344.72656,17.08984,957.03125,-0.0114579120064175,-0.0588882816269146,-0.0189188454928429,84.45,1.5,79.35,-926.75781,116.69922,316.89453,0.0734104682010586,0.1095160944370653,0.020117886688963,58.95,21.9,5.7
-895.99609,27.34375,-429.6875,-0.1318988948963414,0.0359724576140795,-0.0483628990398376,-7.35,28.05,18.75,-138.67187,-24.90234,945.80078,0.0157212277702641,0.1412250617543731,-0.0015987215948268,84.75,0.75,78.0,-925.29297,79.10156,303.71094,0.0527595579585365,0.071944915228159,0.0363721380127862,58.5,22.35,5.7
-905.27344,3.90625,-416.01562,-0.1105819670112583,-0.0147886983509235,0.0343737360192527,-6.9,28.2,18.3,-405.27344,4.88281,909.17969,-0.0411684773301918,0.0660827033365605,0.032908183046353,84.75,0.75,78.0,-922.85156,100.09766,291.50391,-0.0436999028772844,0.0652833425391471,0.0387702204050264,58.8,23.25,4.8
-947.26562,-9.76562,-428.22266,-0.1105819670112583,0.0227824808579827,-0.0487625794385443,-6.9,28.2,18.3,-354.49219,-49.31641,951.17187,0.0442327518979182,0.0338407124656936,0.0006661921754862,83.55,1.65,78.9,-915.03906,70.80078,289.55078,0.0086599746825454,0.0174532925199432,0.0011990411961201,58.8,23.25,4.8
-962.89062,-18.55469,-443.35937,-0.0791393369378048,0.0009327039522657,-0.0114579120064175,-5.1,27.45,17.85,-352.53906,-9.27734,959.47266,0.0472970264656447,0.0225161436141284,0.0483628990398376,82.65,1.05,79.05,-936.52344,85.9375,297.85156,-0.0166539317225298,-0.0171867807431637,0.0171867807431637,60.0,22.65,5.7
-956.54297,-16.11328,-424.31641,0.0319754790940873,-0.0848683802074762,0.067015232755901,-6.45,27.45,16.2,-367.67578,-17.57813,931.15234,0.0568897051004559,0.0383705400063197,0.0259800985805615,82.65,1.05,79.05,-930.66406,81.54297,309.08203,-0.0365053066347134,-0.0523598775598298,0.0129234649793172,60.0,22.65,5.7
-936.52344,-0.97656,-398.4375,0.0310429496747467,-0.0822036115055313,0.0157212277702641,-7.35,28.5,18.45,-384.76562,-11.71875,944.82422,0.0487625794385443,0.0511608363637097,0.0157212277702641,83.1,1.95,77.7,-955.07812,75.68359,302.24609,-0.0363721380127862,-0.0357059458372999,0.0070612530877186,58.5,22.35,5.4
-934.08203,25.87891,-420.41016,-0.0199847180670358,-0.0023980823922402,-0.0511608363637097,-7.35,28.5,18.45,-354.00391,-15.625,965.82031,0.039569755735365,0.045165455850184,0.0071944217096458,85.5,1.5,79.05,-957.51953,77.63672,317.87109,-0.0602204914449619,-0.0385038831611721,-0.0448989440734045,59.1,21.0,5.25
-928.71094,29.29688,-387.20703,0.0551578148837019,-0.0512940049856369,0.0159877395470436,-7.35,28.5,18.45,-372.55859,-6.34766,961.91406,0.0341072242424731,0.0472970264656447,0.0233155044115418,84.15,3.45,77.7,-983.88672,63.47656,297.36328,-0.0504946441882235,-0.0013323843509724,-0.0933951862680945,60.0,21.6,3.6
-920.41016,36.62109,-390.625,0.0309096065198943,-0.0387702204050264,0.0033307863445059,-7.65,29.25,17.4,-368.16406,0.48828,948.73047,0.0211837592631559,0.0146553551960711,0.0611531953972277,84.15,3.45,77.7,-1001.95312,48.33984,289.55078,-0.0588882816269146,0.0202512298438154,-0.0450321126953316,58.8,21.75,4.5
-912.59766,27.83203,-391.60156,-0.0371714988101996,0.0063950609122324,-0.0281118437289474,-6.3,28.5,16.35,-372.55859,-1.46484,957.51953,0.0270459711547545,0.0726111074036452,0.0351730968166661,84.75,2.55,78.6,-1002.92969,58.10547,264.16016,-0.0672817445326806,-0.0302434143444081,-0.060753514998521,58.8,21.75,4.5
-922.85156,12.69531,-406.73828,0.0219831200605693,0.0143890179522168,-0.0165205885676775,-8.4,26.55,18.15,-364.74609,-17.08984,960.44922,0.0063950609122324,0.014522186574144,0.0361056262360067,84.75,3.0,78.6,-976.07422,44.92188,316.89453,-0.1175098769441246,-0.080871401687484,-0.0739433172216925,58.35,22.95,6.9
-949.21875,31.25,-416.99219,0.0001331686219271,-0.0130566336012443,-0.0511608363637097,-7.2,27.9,17.55,-354.98047,-8.30078,952.14844,-0.034640073263107,0.0269126279999021,-0.0133231453780239,84.0,1.8,78.0,-972.16797,59.08203,317.38281,-0.0544916227082157,-0.0520933657830503,-0.0460979852695246,60.3,21.15,6.45
-946.77734,-5.85937,-418.45703,0.0031976177225788,0.0651499993842947,-0.0522267089379027,-7.2,27.9,17.55,-355.46875,-35.64453,975.58594,0.0018652333716063,0.0527595579585365,0.0646171503636608,84.6,0.9,78.15,-961.91406,74.70703,295.41016,-0.078606487917171,-0.0658161915597809,-0.0700796818565527,60.3,21.15,6.45
-948.24219,-15.13672,-413.57422,0.0357059458372999,-0.004529827540626,-0.025713586803782,-7.5,26.7,17.85,-363.28125,-18.55469,948.73047,-0.0041301471419193,0.0049295079393327,0.0739433172216925,84.15,2.4,78.9,-965.82031,61.03516,294.43359,-0.1063184767144865,-0.0508943245869302,-0.0431668793237253,59.7,21.6,6.15
-941.40625,11.23047,-404.29687,0.0508943245869302,-0.0532925815120956,-0.0390367321818059,-6.3,28.8,16.35,-362.30469,-0.48828,938.47656,0.0027979373238721,0.0270459711547545,0.0726111074036452,84.6,2.7,77.4,-948.73047,78.61328,298.33984,-0.0992572236267679,0.0171867807431637,-0.0486294108166172,59.7,21.6,5.4
-942.38281,5.85937,-398.4375,0.015055210127703,0.0646171503636608,0.002264913770313,-7.5,28.2,16.8,-360.35156,-7.32422,953.61328,-0.0031976177225788,0.0303767574992605,0.005595700114819,84.6,2.7,77.4,-974.60937,61.03516,298.33984,-0.1283017713079811,0.0053291883380394,-0.0215834396618626,61.05,22.35,6.75
-916.99219,20.01953,-409.17969,0.0526263893366094,0.0422343499043847,0.052493046181757,-7.5,28.2,16.8,-353.51562,-1.46484,945.3125,-0.0065284040670847,0.0267794593779749,0.0815375938629702,84.6,2.7,77.4,-966.30859,75.68359,332.03125,-0.1418912539298594,-0.0393032439585855,-0.064750318985588,59.7,21.9,4.65
-904.78516,28.32031,-405.27344,0.020117886688963,0.0153215473715574,0.0073277648644981,-8.1,27.75,16.35,-363.28125,-9.76562,942.87109,-0.0190520141147701,0.0213169278850831,0.029044373148288,83.25,4.05,79.05,-949.21875,47.85156,317.87109,-0.1155114749505911,-0.0692803210591393,-0.0339738810876208,60.3,21.9,4.95
-921.875,14.64844,-400.87891,-0.0363721380127862,0.0421010067495324,0.0051960197161123,-7.95,28.2,16.5,-359.86328,-9.27734,959.96094,-0.0067947413109391,0.0370383301882724,0.0294440535469947,84.9,2.4,78.45,-944.33594,8.30078,320.80078,-0.0618192130397887,-0.1133797298022052,-0.0851347174513306,59.1,22.5,5.55
-935.05859,24.41406,-395.01953,0.0067947413109391,-0.0034639549664331,-0.0003996803987067,-6.9,27.45,17.85,-371.58203,-10.74219,967.28516,0.0083936374386911,0.0311761182966739,0.0242480338308824,83.7,1.5,78.6,-941.40625,28.32031,339.35547,-0.0917962901403425,-0.0632847660126884,-0.0594211306475485,59.1,22.5,5.55
-907.71484,12.69531,-390.625,-0.0177198042967228,0.0194516945134768,0.0458314734927451,-7.65,27.75,17.7,-378.41797,-21.97266,953.61328,0.027312482931534,0.0563568560798221,0.0439662401211387,83.7,1.5,78.6,-917.48047,41.50391,325.19531,-0.0755420388165193,-0.0995237354035474,-0.0676814249313873,59.7,22.65,6.45
-935.05859,-1.95312,-396.48437,-0.0303767574992605,0.0791393369378048,-0.0007993607974134,-7.65,27.75,17.7,-367.67578,-16.60156,950.19531,0.0512940049856369,0.0251807377831481,0.0365053066347134,84.15,2.4,78.45,-960.9375,38.08594,322.26562,-0.0222496318373489,-0.0969923098564548,-0.0860674214035963,60.0,22.35,5.7
-922.85156,-23.92578,-391.60156,0.0129234649793172,-0.005595700114819,0.042900542079871,-8.1,27.3,15.6,-363.28125,-22.46094,964.35547,0.0399694361340717,0.0471638578437175,0.0113245688515652,84.75,1.5,78.0,-963.86719,24.41406,351.5625,-0.0347734164179594,-0.10205516095064,-0.0951270764848485,59.25,22.65,5.7
-916.99219,5.37109,-408.69141,-0.0086599746825454,0.0382373713843925,0.0646171503636608,-6.3,28.05,17.7,-354.98047,-2.44141,968.75,0.0371714988101996,0.0528927265804637,0.0624854052152749,84.75,1.5,78.0,-981.44531,50.29297,371.09375,-0.052493046181757,-0.087532974376496,-0.0250473946282958,60.6,21.75,6.3
-908.20312,2.92969,-383.78906,-0.0679479367081668,0.0692803210591393,0.0488959225933967,-7.5,27.9,16.5,-343.75,1.46484,952.14844,0.0038636353651398,0.0378376909856858,0.0298437339457014,84.45,2.25,78.3,-971.67969,45.41016,346.67969,-0.0299770771005538,-0.0535589187559499,-0.077540615342978,59.85,22.5,6.3
-892.08984,7.32422,-392.57812,-0.0309096065198943,0.0214502710399355,0.1075176924435318,-7.2,28.2,17.55,-349.60937,2.92969,962.40234,0.031309286918601,-0.0194516945134768,0.0079939570399844,84.15,1.2,78.9,-989.25781,34.66797,354.00391,0.0019984019935335,-0.0618192130397887,-0.0892648645932499,59.7,20.85,5.4
-896.48437,18.06641,-391.11328,-0.0626187483701273,0.0049295079393327,0.085934078248744,-7.2,28.2,17.55,-353.51562,8.78906,959.96094,0.0017320647496791,-0.0534257501340228,-0.0050628510941851,85.05,1.5,78.3,-973.63281,77.14844,348.63281,-0.0568897051004559,-0.0662158719584876,-0.0133231453780239,59.7,20.85,5.4
-895.01953,26.36719,-398.4375,-0.079272505559732,0.0562235129249697,-0.0286446927495813,-8.1,27.3,15.3,-347.16797,7.32422,959.47266,-0.0089264864593249,-0.0438330714992115,0.0011990411961201,85.05,1.5,78.3,-971.67969,62.98828,352.05078,-0.0165205885676775,-0.0643506385868813,-0.0241148652089552,58.95,21.6,6.75
-901.85547,16.60156,-387.20703,-0.0490290912153239,0.0129234649793172,0.0115910806283447,-7.2,28.2,17.25,-352.05078,14.64844,968.75,0.016787100344457,-0.007860613885132,0.0267794593779749,85.65,2.7,79.5,-950.68359,81.05469,340.33203,-0.0888651841945432,0.0119907610270514,-0.0463644970463041,60.15,22.2,6.9
-906.25,44.92188,-386.23047,-0.0699463387017003,-0.0033307863445059,0.0446324322966249,-6.15,28.65,16.8,-348.14453,23.92578,952.63672,-0.0118575924051242,-0.1057856276938527,0.041834669505678,84.9,3.15,78.45,-957.51953,98.63281,335.44922,-0.0716784034513795,-0.0155880591483369,-0.0179861415405771,59.7,21.6,6.15
-903.32031,15.13672,-399.90234,-0.1191087730718766,0.023448673033469,0.0202512298438154,-6.15,28.65,16.8,-354.98047,23.92578,948.24219,-0.0033307863445059,-0.0059953805135257,-0.0083936374386911,83.7,1.8,78.3,-933.10547,106.93359,352.53906,-0.1013889687751538,-0.0935283548900217,-0.0806048899107045,60.15,22.2,6.3
-914.0625,16.11328,-411.62109,-0.0536922619108023,-0.0442327518979182,0.0171867807431637,-6.6,29.25,17.1,-365.72266,27.34375,949.21875,0.03064326927604,-0.0407687969314851,0.0381042027624654,84.15,2.7,79.2,-944.82422,104.00391,332.51953,-0.0727442760255724,-0.0999234158022541,-0.0903307371674429,59.4,20.7,6.9
-917.48047,31.25,-407.22656,-0.0698131700797731,-0.0434333911005048,0.052493046181757,-9.0,28.2,16.5,-354.98047,14.16016,945.80078,0.0193185258915496,-0.052493046181757,0.0819372742616769,84.45,2.55,79.05,-903.80859,113.76953,309.08203,-0.0796723604913639,-0.0989908863829135,-0.0399694361340717,58.8,21.0,5.25
-926.75781,31.25,-419.43359,-0.1231057515918688,-0.023981696587028,-0.0235820161883213,-6.3,27.75,17.7,-356.93359,21.48438,942.87109,0.0247810573844414,-0.0231821612566894,0.0699463387017003,84.0,3.3,78.3,-905.76172,91.30859,334.47266,-0.1137794102009119,-0.1029876903699806,-0.0407687969314851,58.8,21.0,5.25
-915.03906,29.29688,-410.15625,-0.0727442760255724,-0.0550244717288496,0.0476967068643514,-7.35,28.05,17.4,-339.84375,17.57813,953.125,0.0440995832759911,-0.0109248884528585,0.0671485759107534,84.0,3.3,78.3,-931.15234,92.28516,354.00391,-0.1376279381660128,-0.1009892883764471,-0.0893982077481023,60.15,22.5,5.25
-913.57422,30.76172,-399.90234,-0.0885988469506889,-0.040235773377926,0.0179861415405771,-7.35,28.05,17.4,-344.23828,22.94922,971.19141,0.0635512777894679,-0.0611531953972277,0.0728774446474996,84.6,2.4,78.45,-941.40625,83.00781,346.67969,-0.1524164619840112,-0.1267028751802291,-0.140026020558253,60.15,22.5,5.25
-908.20312,28.32031,-388.67187,-0.1253706653621819,-0.0253139064050753,-0.022382800459276,-6.6,28.5,17.7,-347.16797,30.27344,947.75391,0.0486294108166172,-0.0592879620256213,0.075275701572665,84.45,1.5,78.3,-945.3125,59.08203,352.05078,-0.1983812786316086,-0.1091164140383586,-0.1634746935917221,60.15,22.5,5.25
-924.31641,26.36719,-396.48437,-0.059154618870769,-0.0085268060606182,0.0286446927495813,-9.0,27.45,16.8,-354.98047,25.87891,952.63672,0.0258469299586344,-0.0159877395470436,0.0783399761403914,84.6,2.4,78.9,-955.07812,53.22266,348.14453,-0.1874563901787501,-0.0706125308771865,-0.0816707624848974,59.4,21.0,6.6
-920.41016,18.55469,-390.13672,-0.0443659205198454,-0.0373046674321268,0.0119907610270514,-6.45,28.95,17.55,-346.19141,25.87891,943.35937,-0.059687642424328,-0.0158545709251164,0.0345069046411798,84.6,2.4,79.5,-950.68359,51.26953,339.35547,-0.1360290420382608,-0.0642174699649541,-0.0854012292281101,59.85,21.75,5.85
-906.73828,35.64453,-388.18359,-0.0411684773301918,0.0407687969314851,0.0131899767560967,-6.45,28.95,17.55,-346.19141,15.13672,957.03125,-0.0771409349442713,0.025713586803782,0.0905972489442224,83.7,2.55,78.0,-958.98437,47.36328,325.19531,-0.1634746935917221,-0.0448989440734045,-0.1092495826602858,59.7,21.15,6.45
-920.41016,52.24609,-396.48437,0.0209172474863764,-0.0560903443030425,0.0444992636746978,-7.2,28.65,17.25,-354.98047,15.13672,942.38281,-0.0289112045263608,0.0,0.1241714496331365,83.1,2.7,78.9,-945.3125,64.94141,356.44531,-0.1107151356331855,-0.0526263893366094,-0.061419532641082,59.4,23.25,7.35
-941.89453,62.98828,-404.78516,-0.0231821612566894,-0.0335742006889141,0.0892648645932499,-7.2,27.15,16.5,-346.19141,18.06641,932.61719,-0.032908183046353,-0.0135896571548034,0.0718115720733066,83.1,2.7,78.9,-957.51953,66.40625,346.19141,-0.1201746456460695,-0.0544916227082157,-0.0479632186411309,59.4,23.25,7.35
-931.64062,62.5,-408.20312,-0.0830031468358699,-0.0299770771005538,0.0026645941690197,-8.1,28.05,17.4,-352.05078,-3.90625,955.07812,0.0271791397766816,-0.0107917198309313,0.0726111074036452,85.8,2.55,78.6,-946.28906,60.05859,323.73047,-0.0702128504784798,0.0158545709251164,-0.0543582795533633,60.9,20.25,7.95
-920.41016,86.91406,-392.57812,-0.0543582795533633,-0.041301645952119,0.1223062162615302,-6.6,29.55,18.15,-354.98047,6.83594,949.70703,-0.0093261668580317,-0.0158545709251164,0.0281118437289474,84.9,1.95,78.9,-946.28906,34.66797,346.67969,-0.0474303696204971,-0.0138559943986577,-0.0631515973907612,60.9,20.25,7.95
-916.99219,76.17188,-402.34375,-0.0699463387017003,-0.0350397536618137,0.0604870032217414,-6.6,29.55,18.15,-366.69922,13.67187,926.26953,0.0391699008037331,0.0017320647496791,0.0952604196397009,84.45,2.55,77.55,-954.58984,21.48438,344.23828,-0.0610198522423753,-0.0242480338308824,-0.0748760211739583,59.7,22.65,6.15
-912.59766,63.96484,-400.39062,-0.0900643999235885,-0.0133231453780239,0.0427671989250186,-6.6,29.55,18.15,-371.58203,-4.39453,939.94141,0.0237151848102485,0.0023980823922402,0.0386370517830992,84.45,2.55,77.55,-948.73047,36.13281,315.91797,-0.0133231453780239,-0.086467101802303,-0.0466310088230837,60.3,20.55,8.55
-923.82812,70.3125,-420.41016,-0.1055191159170731,0.0062618922903052,-0.0139893375535101,-6.6,29.85,17.7,-380.37109,-2.44141,938.47656,0.0354394340605204,-0.0071944217096458,0.0307764378979672,85.5,4.05,79.8,-968.75,34.66797,341.79687,-0.006128723668378,-0.0674150876875329,-0.0618192130397887,59.85,21.75,6.9
-916.99219,60.05859,-411.13281,-0.0277121633302407,0.0086599746825454,0.0599539796681824,-6.45,29.7,16.5,-374.51172,-17.08984,968.26172,0.0516936853843436,-0.0126569532025376,0.0291777163031404,83.55,1.95,78.9,-982.42187,40.52734,347.65625,0.0464976656682313,-0.0740764858436197,-0.0740764858436197,59.85,22.2,7.65
-928.22266,61.52344,-406.25,-0.0879326547752027,0.0523598775598298,-0.0206509102425221,-6.15,28.95,16.5,-384.76562,-6.34766,963.37891,0.079272505559732,-0.0269126279999021,0.0255804181818548,83.55,1.95,78.9,-970.21484,23.4375,340.33203,0.0353062654385932,-0.0534257501340228,-0.0571562168772355,60.75,21.15,6.45
-917.96875,64.94141,-397.46094,-0.0762082309920056,0.0624854052152749,-0.0242480338308824,-6.15,28.95,16.5,-365.72266,-0.48828,950.68359,0.0209172474863764,-0.0472970264656447,-0.005595700114819,84.0,3.3,77.55,-959.47266,39.55078,342.28516,0.0387702204050264,-0.0594211306475485,-0.0746095093971788,59.1,21.75,8.4
-927.73437,83.49609,-400.39062,0.0042633157638465,-0.0138559943986577,0.0523598775598298,-7.65,27.75,17.1,-349.60937,21.48438,943.84766,0.0015987215948268,0.0322419908708668,-0.0021317451483858,84.0,2.25,79.35,-963.86719,43.94531,357.91016,0.0552909835056291,-0.0298437339457014,-0.054091942309509,59.1,21.75,8.4
-931.15234,92.28516,-411.13281,-0.0631515973907612,0.0269126279999021,0.054091942309509,-6.6,28.8,16.65,-357.42187,23.4375,944.33594,-0.0037304667432126,0.032908183046353,0.0027979373238721,84.75,2.25,78.6,-961.91406,35.64453,333.49609,0.0688804661275074,0.0317089673173077,-0.0863337586474507,59.25,21.15,6.45
-928.71094,70.80078,-408.20312,-0.0397029243572922,0.0343737360192527,-0.0516936853843436,-6.6,29.55,18.45,-350.58594,10.25391,956.05469,-0.0002665117767795,-0.0006661921754862,-0.0251807377831481,84.75,2.25,78.6,-945.3125,56.15234,329.10156,0.0985910314512816,-0.0250473946282958,-0.0566231933236764,58.95,21.6,7.5
-936.03516,62.01172,-405.27344,0.0170536121212365,-0.0238483534321757,0.0230489926347623,-7.05,28.8,17.7,-346.67969,-17.57813,937.98828,-0.0277121633302407,0.0554241521275563,-0.0085268060606182,84.75,2.25,78.6,-928.22266,44.43359,337.40234,0.1217733672408963,-0.0026645941690197,-0.0520933657830503,59.1,21.75,7.35
-937.98828,55.17578,-420.89844,-0.0241148652089552,0.0099923590335179,0.0010658725741929,-7.05,28.8,17.7,-354.98047,1.95312,950.68359,0.0354394340605204,0.0567565364785288,-0.0083936374386911,83.7,3.0,78.0,-937.98828,68.84766,346.19141,0.0699463387017003,-0.0009327039522657,-0.0326416712695735,61.05,20.55,7.2
-930.17578,47.36328,-401.36719,-0.046897346066938,-0.0089264864593249,-0.0523598775598298,-8.4,28.05,16.65,-359.375,6.83594,948.24219,0.041301645952119,0.0618192130397887,0.039569755735365,83.1,3.9,79.5,-952.63672,74.21875,352.05078,0.0269126279999021,0.036238969390859,-0.0690138092823597,60.75,21.6,9.3
-927.24609,36.62109,-399.90234,0.039569755735365,-0.0173201238980161,0.0274456515534612,-6.9,28.65,17.25,-356.44531,6.34766,969.23828,0.0656830229378538,0.0117244237831971,-0.0043966589186989,84.45,2.55,78.0,-927.24609,90.33203,336.42578,-0.0294440535469947,0.0414349891069713,-0.0550244717288496,59.4,22.5,7.35
-919.92187,14.16016,-393.55469,0.0226493122360556,0.0097258472567384,-0.0514271736075641,-7.35,27.3,17.1,-359.375,41.50391,964.84375,0.036238969390859,-0.1847917960097304,0.0411684773301918,84.9,3.15,79.2,-943.35937,88.86719,343.26172,-0.045165455850184,0.0085268060606182,-0.0414349891069713,59.4,22.5,7.35
-913.08594,27.34375,-392.57812,0.0446324322966249,-0.007860613885132,-0.0421010067495324,-7.65,29.55,17.7,-363.76953,23.92578,971.67969,0.082603291904238,-0.036238969390859,-0.025713586803782,83.7,3.75,78.3,-955.07812,78.61328,349.60937,-0.1035207139235396,0.0377045223637587,-0.061419532641082,59.85,22.5,6.9
-919.43359,37.59766,-396.48437,0.0928621627145355,-0.0434333911005048,0.0057288687367461,-7.65,29.55,17.7,-336.91406,48.33984,951.17187,0.0281118437289474,-0.1007227765996675,0.0250473946282958,85.5,3.75,78.3,-932.61719,94.23828,334.96094,-0.1794624331387657,0.0542251109314362,-0.1305666850782942,60.0,19.8,7.5
-926.26953,40.03906,-387.69531,0.0425006871482391,0.0173201238980161,-0.0405022851547056,-7.2,30.15,16.2,-349.60937,46.38672,958.98437,0.0494287716140306,-0.0811377389313384,0.0074609334864253,85.5,3.75,78.3,-969.23828,74.21875,352.05078,-0.1736002212471671,0.0161209081689708,-0.0891316959713228,60.0,19.8,7.5
-907.22656,52.73438,-380.85937,0.0338407124656936,-0.0071944217096458,0.0301102457224809,-7.05,28.5,17.4,-352.05078,48.82813,936.03516,0.0434333911005048,-0.0314426300734534,0.0832694840797242,83.55,2.7,79.2,-955.07812,91.30859,351.07422,-0.2502083071708046,0.078606487917171,-0.0674150876875329,60.15,22.2,8.7
-895.99609,58.10547,-368.65234,0.0434333911005048,-0.0337075438437664,0.0123904414257581,-7.95,30.15,16.8,-357.42187,36.13281,907.22656,0.0520933657830503,-0.0570230482553083,0.0410353087082646,85.35,2.7,79.2,-938.96484,71.77734,342.77344,-0.3150917947783199,0.0550244717288496,-0.1217733672408963,60.0,20.55,8.85
-895.99609,65.42969,-382.8125,-0.0275788201753884,0.023981696587028,-0.0460979852695246,-7.95,30.15,16.8,-342.28516,46.38672,962.40234,0.0476967068643514,-0.0454317930940384,0.077540615342978,85.05,3.3,78.0,-943.35937,65.91797,345.21484,-0.3474671288040391,0.0854012292281101,-0.1247044731866956,60.15,20.7,6.6
-893.06641,60.54688,-372.07031,-0.0169204434993094,0.0202512298438154,-0.0695466583029936,-7.05,30.3,16.65,-368.16406,18.06641,988.28125,0.0187856768709157,0.0047963393174056,0.0960597804371143,84.75,3.75,79.05,-959.96094,73.73047,365.23437,-0.408753492823194,0.0979250138087206,-0.1939846197129097,59.25,21.6,7.5
-890.13672,50.29297,-396.48437,0.0027979373238721,0.0095926786348112,0.0027979373238721,-7.05,29.55,17.4,-373.53516,36.13281,951.66016,0.0887320155726161,-0.061419532641082,0.0531592383572432,85.8,3.3,79.35,-945.80078,66.40625,330.56641,-0.4576492408836655,0.0006661921754862,-0.1051194355183664,59.25,21.6,7.5
-913.08594,62.01172,-395.50781,-0.0106585512090041,0.0584886012282079,-0.0398360929792193,-6.9,29.4,16.8,-333.00781,61.03516,987.30469,0.1089830708835063,-0.1281684281531288,0.0967257980796753,83.7,3.0,80.1,-933.59375,102.05078,341.79687,-0.4896247199777528,0.0331745202902074,-0.1372282577673061,59.1,19.95,6.9
-918.94531,54.19922,-410.15625,-0.0398360929792193,0.0646171503636608,-0.0154548905264097,-7.35,27.75,17.1,-352.05078,81.05469,983.39844,0.0341072242424731,-0.0474303696204971,0.0856677410048896,83.7,3.0,80.1,-948.24219,12.69531,358.88672,-0.4898912317545323,-0.0371714988101996,-0.077540615342978,59.1,19.95,6.9
-945.3125,59.57031,-416.99219,0.0125237845806105,-0.013456313999951,-0.0194516945134768,-7.35,27.75,17.1,-353.51562,62.5,974.60937,-0.023448673033469,-0.1819938586858583,0.0815375938629702,84.15,3.9,79.2,-936.03516,38.08594,361.81641,-0.4836293394642271,0.0475635382424242,-0.0592879620256213,60.6,22.2,7.95
-951.17187,36.13281,-402.34375,-0.0299770771005538,0.0646171503636608,-0.0105252080541518,-6.9,27.9,16.8,-308.59375,26.85547,972.65625,-0.0191853572696224,-0.1797289449155452,0.0827366350590903,85.05,3.3,79.05,-928.22266,76.17188,390.13672,-0.4809647452952074,0.0774072721881257,-0.050761155965003,60.6,21.75,7.35
-958.98437,19.04297,-413.57422,0.0013323843509724,-0.0006661921754862,-0.0891316959713228,-7.65,27.0,17.4,-343.75,37.10938,957.51953,-0.0486294108166172,-0.1235054319905755,0.1532159973143498,83.85,4.65,80.25,-937.01172,6.34766,362.79297,-0.4901577435313119,0.0731439564242791,-0.1052526041402936,59.4,20.7,8.4
-934.08203,26.85547,-409.17969,0.0082602942838387,-0.0642174699649541,0.0628850856139816,-6.3,28.05,17.4,-353.51562,28.32031,953.61328,-0.0315757986953806,-0.15561407970659,0.1789295841181318,83.85,4.65,80.25,-961.42578,-28.80859,356.44531,-0.4599141546539786,0.0879326547752027,-0.0712787230526728,59.1,21.0,6.3
-919.92187,37.59766,-412.10937,0.0050628510941851,-0.0383705400063197,0.0238483534321757,-6.3,28.05,17.4,-344.23828,22.46094,929.19922,-0.0311761182966739,-0.1817273469090787,0.1121806886060851,84.45,3.3,80.85,-937.5,-25.87891,361.32812,-0.4018254083574025,0.0211837592631559,-0.1057856276938527,59.1,21.0,6.3
-916.50391,58.59375,-401.36719,0.0262466103573411,0.005595700114819,-0.0349065850398865,-6.9,28.95,18.3,-339.35547,38.08594,951.17187,-0.0619525561946411,-0.1791960958949114,0.1281684281531288,84.0,4.05,79.05,-917.48047,-25.39063,389.64844,-0.4002266867625757,0.1176432200989769,-0.0891316959713228,58.8,21.45,7.35
-907.22656,53.71094,-381.34766,0.0443659205198454,-0.0439662401211387,-0.0327748398915007,-8.4,27.75,18.45,-355.46875,31.73828,958.98437,-0.0639509581881746,-0.0335742006889141,0.1041869060990259,84.0,4.05,79.05,-968.26172,-20.01953,353.02734,-0.2603338348262498,0.1228392398150893,-0.0283781809728018,58.8,21.45,7.35
-904.78516,51.26953,-387.69531,-0.0359724576140795,-0.0125237845806105,-0.0251807377831481,-7.95,28.65,17.55,-341.30859,30.76172,969.72656,-0.079272505559732,-0.1513507639427435,0.1187090926731699,84.6,3.45,78.45,-949.21875,-34.66797,324.70703,-0.2839158510145712,0.0644839817417337,-0.0672817445326806,59.85,22.2,7.35
-911.13281,29.78516,-395.01953,-0.0121241041819038,0.0191853572696224,-0.0017320647496791,-8.7,28.8,18.45,-325.68359,13.18359,959.96094,-0.0780734643636119,-0.0812710820861907,0.0900643999235885,84.15,3.15,79.5,-961.91406,-34.17969,302.24609,-0.2287580361308692,0.1011224569983742,-0.0282450123508746,59.1,21.75,6.6
-925.29297,26.36719,-400.87891,0.0117244237831971,-0.0331745202902074,-0.075275701572665,-8.7,28.8,18.45,-338.37891,-7.32422,952.63672,-0.0876661429984231,-0.06634921511334,0.1480199775982374,83.1,3.15,80.25,-922.36328,-54.6875,328.61328,-0.215301722130918,0.0772741035661985,-0.0293108849250675,60.0,20.55,7.5
-917.96875,33.20313,-394.04297,0.0438330714992115,0.0050628510941851,-0.0155880591483369,-6.6,28.05,16.35,-347.65625,-18.06641,962.40234,-0.1099157748357721,-0.0062618922903052,0.0723445956268657,83.1,3.15,80.25,-958.98437,-38.08594,339.35547,-0.2178331476780106,0.0496952833908101,-0.073676805444913,60.75,21.6,8.25
-914.55078,47.36328,-390.13672,0.007860613885132,0.0049295079393327,-0.0310429496747467,-7.35,28.8,16.05,-322.75391,-30.76172,948.73047,-0.0955267568835552,-0.0087933178373978,0.0977916706538682,83.7,3.0,80.1,-928.71094,-33.20313,351.07422,-0.1858576685839233,0.0727442760255724,0.0231821612566894,60.75,21.6,8.25
-913.57422,39.55078,-385.74219,0.0215834396618626,-0.0366386497895657,0.0298437339457014,-7.35,28.5,17.1,-350.09766,-22.46094,951.17187,-0.0514271736075641,0.0590214502488418,0.075275701572665,84.45,3.75,80.4,-946.77734,-65.42969,347.16797,-0.1885222627529431,0.0490290912153239,-0.093128674491315,60.3,20.85,7.8
-917.96875,14.64844,-392.57812,0.0548913031069224,-0.0548913031069224,-0.0195850376683291,-8.25,28.2,17.25,-349.60937,-7.32422,966.30859,-0.0270459711547545,0.0153215473715574,0.034640073263107,84.9,4.2,79.2,-947.26562,-55.66406,348.63281,-0.1124472003828646,0.0627519169920545,-0.0110582316077108,60.3,20.85,7.8
-912.10937,33.20313,-392.08984,0.0365053066347134,-0.0034639549664331,0.0071944217096458,-8.25,28.2,17.25,-332.51953,-9.76562,977.05078,-0.0353062654385932,0.0023980823922402,0.0123904414257581,82.95,4.05,80.4,-937.5,-31.25,326.66016,0.0003996803987067,0.0411684773301918,-0.0263797789792682,60.9,20.7,7.95
-909.17969,26.85547,-403.80859,0.0720780838500862,-0.0286446927495813,0.0527595579585365,-8.25,28.2,17.25,-321.28906,13.18359,956.54297,-0.0334410320669869,0.0079939570399844,0.0157212277702641,83.1,1.95,80.25,-932.61719,-47.85156,330.56641,0.0205175670876697,0.0151883787496302,0.0175864611418704,60.0,21.15,8.55
-912.10937,32.22656,-397.46094,0.0314426300734534,-0.0564900247017492,0.0515605167624164,-6.0,29.25,17.7,-332.03125,4.39453,936.03516,-0.1092495826602858,0.0105252080541518,0.023448673033469,83.7,4.8,80.1,-951.66016,-45.41016,331.05469,0.0654165111610742,0.0230489926347623,0.0515605167624164,60.0,21.15,8.55
-916.99219,44.92188,-409.66797,0.0103920394322246,-0.0199847180670358,0.0025314255470925,-7.2,27.45,17.25,-341.30859,-44.43359,942.87109,-0.0881991665519822,0.0341072242424731,0.0335742006889141,83.7,4.8,80.1,-926.26953,-41.99219,342.28516,0.0582220894514284,-0.0476967068643514,0.0187856768709157,58.5,20.1,9.3
-907.71484,57.61719,-409.17969,-0.0297105653237742,-0.0122572728038309,0.0319754790940873,-4.5,28.5,16.35,-323.73047,-18.06641,954.10156,-0.0822036115055313,0.0919296332951949,-0.016787100344457,84.0,2.55,79.8,-939.94141,-54.6875,323.73047,0.0887320155726161,0.0470306892217904,0.0519601971611231,60.15,21.75,8.4
-916.50391,60.54688,-403.32031,-0.0073277648644981,-0.1149786259299572,0.0059953805135257,-4.5,28.5,16.35,-316.40625,-11.71875,964.84375,-0.0579555776746489,0.0594211306475485,0.0345069046411798,83.55,2.4,79.95,-941.89453,-33.69141,335.9375,0.103787051167394,0.0812710820861907,0.0089264864593249,59.7,21.6,8.25
-920.89844,63.47656,-407.71484,-0.0106585512090041,-0.0888651841945432,-0.0267794593779749,-8.1,29.25,17.1,-320.80078,-23.92578,969.23828,-0.058088746296576,0.0996569040254746,-0.0472970264656447,81.75,3.15,81.0,-936.52344,-31.25,334.47266,0.1432236382808319,0.0496952833908101,0.027312482931534,60.15,20.7,7.95
-942.87109,67.87109,-402.34375,0.006128723668378,-0.1161776671260773,0.0155880591483369,-8.55,28.65,17.55,-328.125,-26.85547,951.66016,0.0094593354799588,0.077007591789419,-0.0827366350590903,81.75,3.15,81.0,-949.70703,-7.8125,333.98437,0.1509510835440367,0.0262466103573411,0.0616860444178615,60.15,20.7,7.95
-939.45312,48.82813,-392.08984,-0.0206509102425221,-0.118842261295097,-0.014522186574144,-7.35,29.55,16.05,-342.77344,-21.48438,964.35547,-0.0007993607974134,0.091529778363563,-0.1111148160318922,82.95,3.75,80.85,-940.91797,-16.11328,345.21484,0.2019785767528942,0.0430337107017981,0.0297105653237742,59.4,21.0,7.65
-929.19922,47.36328,-389.64844,-0.0888651841945432,-0.0863337586474507,-0.0847350370526239,-6.3,29.55,17.4,-336.91406,6.34766,974.12109,0.0598208110462552,0.0872664625997164,-0.0831363154577971,84.15,1.95,78.9,-944.33594,0.48828,335.9375,0.1907871765232561,0.0069280844657914,0.0478300500192038,59.1,21.0,7.35
