IMU1_AccX,IMU1_AccY,IMU1_AccZ,IMU1_GyrX,IMU1_GyrY,IMU1_GyrZ,IMU1_MagX,IMU1_MagY,IMU1_MagZ,IMU2_AccX,IMU2_AccY,IMU2_AccZ,IMU2_GyrX,IMU2_GyrY,IMU2_GyrZ,IMU2_MagX,IMU2_MagY,IMU2_MagZ,IMU3_AccX,IMU3_AccY,IMU3_AccZ,IMU3_GyrX,IMU3_GyrY,IMU3_GyrZ,IMU3_MagX,IMU3_MagY,IMU3_MagZ
-890.13672,35.15625,-432.12891,-0.0714118916745999,0.0667488955120467,-0.0590214502488418,-7.2,27.15,18.9,-335.44922,20.01953,977.53906,0.0037304667432126,-0.0454317930940384,0.1243047927879889,82.2,0.0,79.05,-958.49609,141.60156,354.00391,-0.231955653853448,0.032375159492794,-0.0831363154577971,60.15,22.5,7.65
-914.0625,31.73828,-424.31641,0.0106585512090041,0.0303767574992605,0.0058622118915985,-7.2,27.15,18.9,-334.96094,31.25,977.05078,0.0259800985805615,-0.1079173728422385,0.1044532433428802,82.2,0.0,79.05,-949.21875,100.09766,368.16406,-0.2371516735695603,0.0357059458372999,-0.0730107878023519,59.7,23.1,7.8
-911.13281,21.97266,-423.33984,-0.0374380105869791,0.0639509581881746,-0.0552909835056291,-9.0,28.65,17.25,-336.91406,30.76172,934.08203,0.0247810573844414,-0.067015232755901,0.143356806902759,83.1,1.2,80.25,-947.75391,88.86719,364.74609,-0.2436799031037199,0.0185191650941362,-0.0746095093971788,59.85,23.7,6.9
-916.99219,48.33984,-437.98828,-0.0214502710399355,0.0070612530877186,-0.0275788201753884,-8.4,29.25,16.35,-337.89062,57.61719,956.54297,0.0563568560798221,-0.0794058487145844,0.0941945470655079,82.8,1.65,79.95,-951.66016,75.19531,370.60547,-0.2015788963541875,-0.0085268060606182,-0.0439662401211387,59.85,22.5,5.85
-915.52734,68.35938,-421.38672,0.0187856768709157,-0.0302434143444081,-0.0157212277702641,-7.5,29.4,16.5,-325.68359,75.19531,962.40234,-0.0021317451483858,-0.0171867807431637,0.1454885520511449,82.8,1.65,79.95,-937.01172,80.56641,349.60937,-0.1978484296109748,-0.0037304667432126,-0.0058622118915985,60.6,22.95,6.6
-906.73828,68.84766,-414.55078,-0.059687642424328,0.0067947413109391,-0.016787100344457,-7.5,29.7,16.8,-321.28906,45.89844,953.61328,-0.0639509581881746,-0.0933951862680945,0.1771975193684527,84.15,1.95,80.25,-944.82422,61.03516,368.65234,-0.1858576685839233,-0.0162542513238231,-0.0499617951675896,60.15,22.95,6.3
-899.90234,74.70703,-396.48437,-0.0816707624848974,-0.0194516945134768,0.0057288687367461,-7.5,29.7,16.8,-293.94531,33.69141,973.63281,-0.0855343978500373,-0.1963828766380752,0.1105819670112583,82.8,-0.45,79.95,-924.80469,34.66797,371.58203,-0.1446891912537315,-0.0049295079393327,0.0050628510941851,59.4,22.5,7.65
-901.85547,82.03125,-403.32031,-0.0776737839649052,-0.0708790426539661,0.0219831200605693,-8.4,30.3,16.65,-302.73437,23.92578,957.51953,-0.0434333911005048,-0.0901975685455157,0.1040535629441735,83.55,1.65,79.95,-931.64062,40.52734,362.30469,-0.1097826062138449,-0.0158545709251164,-0.0277121633302407,59.4,22.5,7.65
-900.39062,80.07813,-393.06641,-0.1119141768293056,-0.0053291883380394,0.0245145456076619,-6.3,28.5,17.4,-306.15234,-14.16016,942.38281,0.0003996803987067,-0.0768744231674918,0.1069846688899728,83.55,1.65,79.95,-922.85156,32.71484,363.76953,-0.0929953313364626,-0.0442327518979182,-0.0430337107017981,59.4,23.7,6.9
-887.20703,75.19531,-393.55469,-0.1553475679298105,-0.0142556747973644,-0.0162542513238231,-9.0,29.4,16.8,-298.33984,-17.57813,952.63672,-0.0337075438437664,-0.0426340303030914,0.0810045703094112,83.1,1.2,79.2,-927.24609,20.99609,356.44531,-0.0341072242424731,-0.0089264864593249,-0.0483628990398376,59.4,23.7,6.9
-900.39062,74.21875,-386.23047,-0.1229724084370164,-0.0662158719584876,0.0632847660126884,-9.0,29.4,16.8,-319.82422,-35.64453,965.82031,-0.0085268060606182,0.0038636353651398,0.075275701572665,82.2,2.55,81.9,-929.19922,7.8125,363.28125,0.0466310088230837,-0.032908183046353,-0.0174532925199432,60.0,22.65,6.15
-906.25,74.21875,-391.60156,-0.2202312300702509,0.0127901218244648,0.0015987215948268,-8.1,28.5,15.6,-318.35937,-24.41406,968.75,0.0199847180670358,-0.0298437339457014,0.0446324322966249,82.2,2.55,81.9,-933.59375,28.32031,360.83984,0.1079173728422385,-0.0233155044115418,0.0086599746825454,59.85,22.95,6.9
-896.97266,55.17578,-391.11328,-0.1733338840033128,-0.0353062654385932,0.0879326547752027,-7.35,28.5,17.7,-314.45312,-23.92578,955.07812,0.0624854052152749,-0.0027979373238721,0.0122572728038309,83.7,3.3,79.35,-935.54687,48.33984,340.33203,0.1080505414641657,-0.0074609334864253,-0.0027979373238721,60.15,22.2,7.95
-907.22656,65.91797,-385.25391,-0.1326982556937548,-0.0378376909856858,0.1025880099712739,-9.15,30.6,17.1,-329.58984,-1.46484,970.70312,0.0579555776746489,0.0186523337160634,-0.0159877395470436,82.35,1.95,80.55,-945.3125,38.08594,337.89062,0.0822036115055313,0.0315757986953806,-0.0470306892217904,60.15,23.25,6.9
-904.29687,91.30859,-395.99609,-0.1574793130781963,-0.0069280844657914,0.080871401687484,-8.1,29.55,16.05,-328.61328,8.30078,962.40234,0.0836691644784309,-0.023448673033469,0.0002665117767795,82.95,1.5,79.35,-943.84766,65.42969,334.96094,0.1032542021467601,0.0407687969314851,-0.0209172474863764,60.15,23.25,6.9
-916.99219,108.88672,-398.4375,-0.1003230962009608,0.0118575924051242,0.0242480338308824,-8.1,29.55,16.05,-331.54297,18.55469,970.70312,0.0063950609122324,0.0075941021083525,-0.0606201718436686,82.95,1.5,79.35,-940.42969,81.05469,329.10156,0.1348300008421407,0.0341072242424731,-0.0194516945134768,60.15,23.25,6.9
-914.55078,88.86719,-409.17969,-0.0925956509377559,-0.0407687969314851,0.0401026047559989,-8.1,29.55,16.05,-344.23828,6.34766,980.46875,0.0121241041819038,0.004529827540626,0.0079939570399844,82.2,1.5,80.4,-936.52344,90.33203,331.54297,0.0835359958565038,0.0659495347146333,-0.0023980823922402,60.75,23.85,6.75
-923.82812,114.74609,-410.15625,-0.1156446435725182,0.0206509102425221,-0.0311761182966739,-6.9,30.15,17.85,-345.21484,30.76172,977.05078,0.0141225061754373,-0.0065284040670847,-0.0498284520127373,81.75,2.4,79.95,-959.47266,97.65625,318.84766,0.0900643999235885,0.0077274452632048,-0.0414349891069713,60.75,23.85,6.75
-920.41016,113.76953,-428.71094,-0.1401591891801802,0.0090596550812521,-0.0035972981212855,-8.4,29.25,16.05,-331.54297,11.23047,955.07812,-0.0157212277702641,-0.0347734164179594,-0.020117886688963,81.75,2.4,79.95,-951.66016,120.11719,322.75391,0.0787396565390981,0.0277121633302407,0.0087933178373978,58.8,22.5,6.9
-928.71094,91.79688,-442.38281,-0.1023216727274195,-0.0117244237831971,0.0153215473715574,-7.95,29.7,16.2,-344.23828,18.55469,946.77734,-0.0287778613715085,0.0217166082837898,-0.0218499514386422,81.75,2.4,79.95,-955.07812,116.21094,331.54297,0.0303767574992605,0.0037304667432126,-0.0528927265804637,60.6,23.7,7.65
-935.05859,95.21484,-434.08203,-0.1219065358628235,0.029044373148288,-0.0803383781339249,-7.95,29.7,16.2,-348.63281,11.71875,961.91406,-0.0021317451483858,0.0285115241276541,0.0069280844657914,84.45,1.5,80.85,-958.49609,101.5625,330.07812,0.0154548905264097,0.0237151848102485,-0.0494287716140306,57.9,23.1,5.4
-933.10547,73.73047,-424.31641,-0.0720780838500862,0.0250473946282958,-0.0405022851547056,-7.95,30.45,15.75,-354.98047,6.34766,948.24219,-0.011191400229638,0.0139893375535101,-0.0245145456076619,83.1,2.7,79.95,-955.07812,100.09766,329.58984,-0.0528927265804637,0.0393032439585855,-0.0155880591483369,58.5,23.1,6.15
-917.96875,64.45313,-413.57422,0.0163874199457503,-0.0278453319521679,-0.023448673033469,-7.65,28.05,17.1,-357.42187,16.11328,967.28516,-0.0433002224785777,0.0287778613715085,0.0191853572696224,83.55,2.4,80.25,-965.33203,102.53906,337.89062,-0.0791393369378048,0.0227824808579827,-0.0235820161883213,58.5,21.6,8.55
-907.71484,48.33984,-418.94531,-0.0090596550812521,0.0683476171068735,-0.0391699008037331,-7.35,30.6,18.15,-354.49219,20.99609,965.33203,-0.0369049870334201,-0.0221164632154217,-0.0031976177225788,83.55,2.4,80.25,-964.84375,105.46875,323.73047,-0.1461547442266311,-0.0253139064050753,-0.037970859607613,59.25,21.6,6.45
-903.80859,57.61719,-412.10937,-0.037970859607613,0.0415681577288985,-0.0802052095119978,-7.95,28.95,16.8,-347.65625,20.50781,959.96094,-0.0085268060606182,-0.0283781809728018,0.098724374606134,84.75,2.25,79.35,-962.89062,105.95703,326.17187,-0.1133797298022052,-0.0026645941690197,-0.0662158719584876,59.25,21.6,6.45
-910.64453,50.29297,-410.15625,0.05475795995207,0.0554241521275563,-0.0795390173365115,-7.95,28.95,16.8,-345.21484,19.53125,949.21875,-0.0091929982361045,-0.0025314255470925,0.0555574952824086,83.7,1.5,80.4,-964.84375,99.60938,335.44922,-0.1616094602201157,-0.0267794593779749,-0.049162259837251,58.5,22.35,8.25
-916.99219,39.0625,-407.71484,0.0470306892217904,-0.0229158240128351,-0.0679479367081668,-7.35,30.3,19.2,-346.67969,19.04297,953.61328,-0.0516936853843436,-0.0019984019935335,0.0699463387017003,81.9,2.25,79.8,-962.40234,108.88672,336.42578,-0.2055758748741797,0.0247810573844414,-0.074209828998472,59.4,23.25,6.9
-912.10937,58.59375,-418.45703,0.0480965617959833,0.1033873707686873,-0.094860564708069,-7.05,29.25,17.1,-329.10156,-1.46484,970.21484,-0.0506278128101507,-0.070346019100407,0.0634181091675407,82.95,0.75,79.8,-957.03125,103.02734,335.9375,-0.1966493884148547,0.0153215473715574,-0.0334410320669869,59.85,22.5,7.65
-911.62109,52.73438,-422.36328,0.0900643999235885,0.0381042027624654,-0.0800720408900706,-8.1,29.55,16.05,-340.82031,11.23047,942.87109,-0.04849624219469,-0.0047963393174056,0.0840688448771376,82.05,1.2,81.3,-947.75391,89.84375,342.28516,-0.2013123845774079,0.0090596550812521,-0.0476967068643514,58.95,23.4,6.45
-904.29687,42.96875,-419.43359,0.0694134896810664,0.0871332939777893,-0.10205516095064,-8.1,29.55,16.05,-331.54297,4.88281,979.00391,-0.0377045223637587,-0.0263797789792682,0.0664823837352672,84.0,0.75,80.1,-943.84766,90.33203,338.37891,-0.1750657742200668,0.0031976177225788,-0.0381042027624654,59.85,22.2,7.95
-921.875,46.38672,-414.0625,0.0551578148837019,0.0660827033365605,-0.0704793622552594,-7.2,30.9,17.85,-318.84766,17.08984,984.86328,-0.0326416712695735,-0.0648836621404404,0.0538254305327295,84.0,0.75,80.1,-957.51953,79.58984,338.86719,-0.1594777150717298,0.0341072242424731,0.0121241041819038,60.6,22.2,7.65
-910.15625,42.48047,-427.73437,0.0907304175661496,0.0318423104721601,-0.0334410320669869,-8.4,31.05,16.35,-337.40234,14.16016,956.05469,-0.0512940049856369,-0.0401026047559989,0.0820704428836041,82.95,2.25,81.15,-952.63672,74.70703,342.28516,-0.1664057995375213,-0.0007993607974134,-0.0391699008037331,60.6,22.2,7.65
-918.45703,31.73828,-416.99219,0.0094593354799588,0.0530260697353161,-0.0664823837352672,-6.9,28.95,16.8,-333.00781,1.46484,962.89062,-0.0305099261211876,-0.0620857248165682,0.059154618870769,83.25,1.5,80.85,-942.87109,69.33594,351.07422,-0.1374945950111605,-0.0174532925199432,-0.0143890179522168,60.3,22.35,8.25
-919.43359,37.59766,-412.10937,0.0082602942838387,0.050228132411444,-0.1061853080925594,-7.05,30.3,17.4,-316.89453,3.90625,970.21484,-0.0458314734927451,-0.0333078634450597,0.0498284520127373,81.9,1.05,80.4,-945.80078,66.40625,333.00781,-0.1220398790176759,-0.0033307863445059,-0.0330413516682802,60.3,22.35,8.25
-916.01562,40.03906,-412.10937,0.0512940049856369,0.0011990411961201,0.043566559722432,-7.05,30.3,17.4,-316.89453,-5.85937,953.125,0.0115910806283447,-0.0438330714992115,-0.0455651362488907,83.25,0.0,79.8,-942.87109,40.52734,335.9375,-0.1389601479840601,0.0310429496747467,-0.0427671989250186,59.4,22.2,8.4
-906.25,42.48047,-401.85547,-0.0242480338308824,0.0317089673173077,-0.0094593354799588,-7.05,29.25,16.65,-315.91797,1.95312,937.01172,-0.0141225061754373,-0.0583552580733556,0.0459648166475974,84.15,1.65,81.0,-910.64453,10.25391,246.58203,-0.2620658995759289,0.0503614755662963,0.0101255276554451,59.25,21.9,7.2
-913.57422,43.45703,-394.53125,-0.0253139064050753,0.043566559722432,0.0483628990398376,-8.4,29.85,16.35,-273.4375,-13.67187,961.42578,-0.0019984019935335,-0.0303767574992605,0.0319754790940873,81.15,2.25,80.4,-891.60156,-15.625,306.15234,-0.1265697065583019,0.237551353968267,-0.022382800459276,58.8,21.75,7.95
-880.37109,58.59375,-414.0625,0.022382800459276,-0.0277121633302407,0.0448989440734045,-8.4,30.3,17.7,-366.21094,-9.27734,939.94141,-0.0030642745677264,0.0543582795533633,0.0576890658978693,81.15,2.25,80.4,-956.05469,-18.06641,337.89062,0.0766079113907123,0.1035207139235396,-0.0883323351739094,58.95,21.6,8.55
-909.66797,73.73047,-418.94531,-0.0354394340605204,0.036238969390859,0.0326416712695735,-8.4,30.3,17.7,-318.35937,-31.73828,932.61719,-0.0532925815120956,0.1265697065583019,-0.0073277648644981,82.95,2.55,80.85,-953.61328,-10.25391,431.64062,0.1103154552344788,0.0275788201753884,-0.0126569532025376,58.95,21.6,8.55
-946.28906,95.21484,-428.22266,-0.0496952833908101,-0.0021317451483858,-0.039569755735365,-8.7,29.55,16.05,-306.15234,-29.29688,947.26562,-0.005595700114819,0.1112481591867445,-0.0385038831611721,82.95,0.75,81.45,-950.19531,-15.13672,395.99609,0.0971256530113072,-0.0098591904115907,0.0370383301882724,58.95,21.6,8.55
-925.29297,87.40234,-435.54687,-0.0401026047559989,-0.0198513749121835,0.0117244237831971,-7.5,28.2,19.35,-251.95312,-61.03516,1031.25,0.050228132411444,0.2873798059810043,-0.0460979852695246,83.7,1.05,80.1,-999.02344,1.46484,340.82031,0.1632081818149425,0.0179861415405771,0.0333078634450597,59.7,20.85,6.75
-904.78516,40.52734,-397.94922,-0.1081837100860929,0.0500949637895168,-0.0030642745677264,-7.5,29.4,17.55,-341.30859,-52.24609,970.21484,0.0983246942074273,0.0570230482553083,-0.0584886012282079,83.25,2.55,79.35,-940.91797,0.97656,382.32422,0.2079739572664199,0.1228392398150893,0.023448673033469,59.7,20.85,6.75
-881.83594,38.08594,-381.34766,-0.0832694840797242,0.0301102457224809,-0.0337075438437664,-7.95,30.15,16.2,-317.87109,-60.05859,992.67578,0.1610766111994818,0.0768744231674918,-0.0967257980796753,82.35,1.65,80.55,-991.21094,-5.37109,351.07422,0.2475437130017849,0.0708790426539661,0.0014655529728996,60.15,23.25,7.65
-898.92578,42.96875,-385.74219,0.0138559943986577,0.014522186574144,0.0778071271197576,-7.95,30.15,16.2,-320.80078,-47.85156,936.03516,0.103787051167394,0.011191400229638,-0.1015221373970809,83.85,2.4,79.5,-965.33203,33.20313,384.76562,0.2550046464882103,-0.0202512298438154,0.016787100344457,60.15,21.75,6.9
-904.78516,56.15234,-383.78906,-0.0046631706954784,0.0422343499043847,0.015055210127703,-7.05,29.25,17.4,-309.57031,-31.25,960.9375,-0.0185191650941362,0.0401026047559989,-0.1119141768293056,83.85,2.4,79.5,-942.38281,63.96484,370.60547,0.2660628780959211,-0.0133231453780239,0.051827028539196,59.7,23.4,7.2
-916.50391,67.38281,-401.85547,-0.0500949637895168,0.0478300500192038,-0.0378376909856858,-7.65,29.55,16.35,-293.45703,10.74219,989.25781,0.0010658725741929,0.0704793622552594,-0.1032542021467601,83.25,2.25,78.6,-964.84375,73.24219,354.98047,0.2158345711515519,0.0217166082837898,0.0442327518979182,59.4,21.75,7.35
-890.13672,73.24219,-392.57812,-0.0181194846954295,0.0275788201753884,0.0137228257767306,-6.45,30.15,17.55,-302.73437,20.99609,991.21094,0.0447657754514773,0.0494287716140306,-0.0917962901403425,82.35,0.45,79.95,-916.01562,110.83984,338.37891,0.1838590920574646,-0.0009327039522657,0.0043966589186989,60.6,22.5,7.35
-887.20703,71.77734,-399.90234,0.0594211306475485,0.0042633157638465,0.0029311059457992,-6.45,30.15,17.55,-340.33203,36.13281,986.81641,0.0646171503636608,-0.0025314255470925,-0.1127137121596442,82.05,2.7,79.95,-917.96875,121.58203,334.47266,0.118842261295097,0.0265129476011954,0.0474303696204971,59.1,21.75,6.9
-899.90234,73.73047,-413.08594,-0.023981696587028,0.0949939078629213,-0.0249142260063686,-8.4,29.55,17.7,-311.03516,43.45703,975.58594,0.0053291883380394,-0.0471638578437175,-0.1384272989634262,82.05,2.7,79.95,-915.52734,147.46094,341.79687,0.1526829737607907,0.0122572728038309,-0.0093261668580317,59.1,21.75,6.9
-916.99219,74.70703,-408.20312,0.0476967068643514,0.0575558972759422,-0.0155880591483369,-8.1,28.5,17.1,-297.36328,31.25,959.47266,0.022382800459276,-0.0295773967018471,-0.0600873228230347,83.85,1.65,79.95,-904.29687,137.69531,340.82031,0.0687472975055802,0.0258469299586344,-0.0303767574992605,60.0,22.65,6.15
-913.08594,57.12891,-426.26953,0.029044373148288,0.0075941021083525,-0.0375711792089063,-8.55,29.7,15.75,-303.22266,26.36719,955.56641,0.0295773967018471,0.0162542513238231,-0.0572893854991626,84.45,1.5,79.05,-940.91797,150.39062,346.67969,0.0624854052152749,0.0369049870334201,0.0214502710399355,59.25,22.65,7.5
-921.875,45.41016,-420.89844,0.0029311059457992,0.0640843013430269,-0.0989908863829135,-8.1,28.5,17.7,-329.58984,17.57813,965.82031,0.0179861415405771,-0.0129234649793172,-0.0566231933236764,84.45,1.5,79.05,-922.36328,140.13672,354.00391,0.0532925815120956,0.0270459711547545,0.0588882816269146,59.1,22.5,7.35
-919.92187,31.25,-428.22266,0.098724374606134,-0.0205175670876697,-0.0279785005740951,-8.1,28.5,17.7,-332.51953,9.76562,969.23828,0.0446324322966249,0.013456313999951,-0.0051960197161123,82.65,0.0,80.4,-947.26562,123.04688,345.21484,0.0203843984657425,-0.0063950609122324,0.0754088701945922,58.5,21.15,7.5
-925.29297,43.45703,-433.59375,0.0600873228230347,-0.0042633157638465,-0.0363721380127862,-8.1,28.5,17.7,-332.51953,32.22656,982.42187,0.077540615342978,0.0207840788644492,0.0066615726890119,81.0,1.65,79.5,-972.16797,111.81641,327.14844,0.0570230482553083,0.0106585512090041,-0.0114579120064175,58.8,21.75,6.9
-915.03906,34.66797,-437.01172,0.0675482563094601,-0.0131899767560967,-0.0454317930940384,-8.25,28.65,17.55,-346.67969,27.83203,950.68359,0.1402925323350325,0.185724325429071,-0.0047963393174056,83.7,1.5,80.1,-974.12109,90.33203,335.44922,0.0325085026476463,0.0492956029921034,0.0983246942074273,60.0,22.35,7.5
-920.41016,40.03906,-429.19922,0.089797888146809,-0.0751423584178126,-0.0010658725741929,-7.5,28.65,15.75,-339.35547,20.50781,972.16797,0.0560903443030425,0.0470306892217904,0.0247810573844414,83.7,1.5,80.1,-962.89062,96.19141,354.98047,-0.0037304667432126,0.0038636353651398,0.0712787230526728,60.0,22.35,7.5
-907.22656,41.50391,-426.26953,0.1111148160318922,-0.0483628990398376,-0.0033307863445059,-7.95,28.2,15.75,-347.65625,29.29688,986.32812,0.0178529729186499,0.1039203943222463,0.0090596550812521,83.7,1.5,80.1,-971.67969,82.03125,338.86719,-0.0474303696204971,0.0407687969314851,0.0321086477160144,60.3,20.1,6.75
-897.94922,50.78125,-403.32031,0.0474303696204971,-0.0230489926347623,-0.0269126279999021,-7.95,28.2,15.75,-342.28516,39.0625,967.77344,-0.0409019655534123,0.0282450123508746,-0.0039969785199922,82.35,3.45,80.25,-971.67969,89.84375,324.70703,0.0291777163031404,0.0572893854991626,0.032908183046353,60.3,20.1,6.75
-886.71875,51.26953,-417.48047,0.0652833425391471,-0.0768744231674918,-0.0171867807431637,-8.7,29.55,16.35,-335.9375,-0.97656,955.07812,-0.0181194846954295,0.0122572728038309,-0.0170536121212365,82.65,2.55,79.8,-953.125,71.28906,347.65625,0.0342403928644003,0.0110582316077108,0.0154548905264097,59.4,22.5,8.4
-893.55469,37.59766,-412.10937,0.0592879620256213,-0.0066615726890119,0.0331745202902074,-6.45,28.65,16.8,-324.70703,-3.41797,965.82031,-0.014522186574144,0.0205175670876697,0.0206509102425221,82.65,2.55,79.8,-956.54297,66.89453,336.42578,0.0009327039522657,0.0350397536618137,0.0483628990398376,59.7,22.65,7.2
-912.10937,44.92188,-416.01562,0.0207840788644492,0.0277121633302407,-0.0414349891069713,-7.65,29.55,16.35,-339.84375,-5.37109,984.86328,-0.0122572728038309,-0.0159877395470436,0.0043966589186989,82.95,1.5,79.8,-945.80078,60.54688,321.28906,0.058088746296576,0.0247810573844414,0.0098591904115907,59.85,22.2,7.35
-903.32031,34.66797,-422.85156,0.050228132411444,0.0181194846954295,-0.0283781809728018,-7.35,29.55,18.15,-352.05078,-14.64844,954.58984,-0.0018652333716063,0.0070612530877186,-0.0283781809728018,82.2,1.05,79.35,-937.98828,82.51953,342.77344,0.0486294108166172,0.0211837592631559,0.0406354537766327,57.6,22.5,5.85
-901.36719,48.82813,-440.91797,0.0343737360192527,-0.0014655529728996,0.0309096065198943,-7.35,29.55,18.15,-338.86719,12.20703,944.82422,-0.0013323843509724,0.0358392889921523,0.0291777163031404,82.8,3.15,79.5,-949.70703,82.51953,333.49609,0.0595542992694757,-0.0069280844657914,-0.0071944217096458,57.6,22.5,5.85
-905.76172,43.45703,-444.82422,0.0075941021083525,0.0258469299586344,-0.0269126279999021,-6.9,28.2,16.5,-335.9375,14.16016,945.80078,-0.0209172474863764,0.0227824808579827,0.0331745202902074,82.8,3.15,79.5,-951.17187,71.77734,326.17187,0.041301645952119,-0.0222496318373489,-0.041834669505678,57.6,22.5,5.85
-914.0625,52.73438,-438.47656,0.0122572728038309,-0.023981696587028,0.0835359958565038,-8.7,28.05,16.65,-359.375,25.87891,960.9375,-0.0027979373238721,0.0355727772153728,-0.0119907610270514,84.45,1.05,79.8,-965.82031,90.82031,339.35547,0.0562235129249697,0.0101255276554451,0.0486294108166172,59.7,21.9,6.15
-916.50391,54.6875,-442.87109,-0.0291777163031404,-0.007860613885132,0.0386370517830992,-7.65,29.25,16.65,-351.07422,18.06641,950.68359,0.0390367321818059,0.0772741035661985,0.0018652333716063,85.05,1.05,77.55,-974.12109,84.96094,354.98047,0.0660827033365605,-0.1052526041402936,-0.0102588708102974,59.7,21.9,6.15
-911.62109,55.66406,-422.36328,-0.0602204914449619,-0.0123904414257581,-0.0309096065198943,-7.65,29.25,16.65,-349.60937,4.88281,960.44922,0.0155880591483369,0.0490290912153239,0.0070612530877186,85.05,1.05,77.55,-968.75,92.28516,353.02734,0.0321086477160144,-0.0767412545455646,-0.0031976177225788,59.85,22.95,6.6
-898.92578,57.61719,-408.69141,-0.0175864611418704,-0.0071944217096458,-0.0161209081689708,-7.2,28.95,16.5,-353.51562,1.95312,963.86719,0.0194516945134768,0.0282450123508746,0.0294440535469947,83.7,1.5,80.4,-964.35547,66.40625,331.05469,0.041834669505678,-0.1029876903699806,0.0203843984657425,58.35,22.5,6.6
-894.04297,41.01563,-399.41406,-0.0182526533173567,0.0091929982361045,-0.0141225061754373,-7.95,29.4,16.8,-343.75,3.90625,957.03125,0.041834669505678,0.0301102457224809,-0.0101255276554451,84.15,1.95,79.2,-960.9375,71.28906,334.47266,0.0923293136939016,-0.0979250138087206,0.0098591904115907,59.85,23.25,6.3
-897.46094,35.15625,-410.15625,-0.0656830229378538,0.0245145456076619,0.0029311059457992,-8.4,28.5,15.3,-334.96094,7.8125,942.38281,0.0409019655534123,-0.0035972981212855,0.0082602942838387,82.35,1.2,79.2,-967.77344,58.59375,341.30859,0.0704793622552594,-0.086467101802303,0.0444992636746978,59.7,22.65,6.45
-910.15625,40.52734,-393.06641,-0.0175864611418704,-0.0031976177225788,-0.0039969785199922,-6.9,28.95,16.8,-317.87109,4.88281,941.89453,0.0293108849250675,0.0463644970463041,-0.0270459711547545,82.35,1.2,79.2,-952.63672,66.40625,331.54297,0.0177198042967228,-0.077007591789419,0.0110582316077108,58.2,23.1,6.15
-889.16016,48.82813,-409.17969,-0.0374380105869791,-0.0063950609122324,-0.0189188454928429,-6.9,28.95,16.8,-326.17187,0.97656,958.00781,0.0193185258915496,0.0021317451483858,-0.0110582316077108,83.55,2.4,80.25,-944.82422,60.05859,330.07812,0.0744763407752516,-0.0848683802074762,-0.0175864611418704,59.7,21.9,7.2
-915.03906,54.6875,-423.82812,-0.0530260697353161,0.0566231933236764,-0.0590214502488418,-8.1,28.8,16.05,-334.47266,5.85937,944.82422,-0.0146553551960711,0.0231821612566894,0.0439662401211387,84.45,2.55,80.4,-960.44922,66.89453,355.46875,0.0754088701945922,-0.08420218803199,0.0976585020319411,59.7,21.9,7.2
-912.10937,42.96875,-429.6875,-0.0219831200605693,0.0700796818565527,0.0322419908708668,-8.7,28.5,17.7,-346.67969,5.37109,937.5,-0.0175864611418704,0.0606201718436686,-0.0552909835056291,82.65,1.5,79.35,-958.00781,82.03125,354.49219,0.0862005900255235,-0.0616860444178615,-0.0278453319521679,60.0,22.35,7.5
-917.48047,46.38672,-437.5,-0.0109248884528585,0.0318423104721601,0.041301645952119,-9.6,28.95,16.8,-340.82031,-1.46484,956.54297,-0.0527595579585365,0.0536922619108023,0.0011990411961201,84.75,1.05,78.3,-962.89062,83.49609,346.67969,0.1464210814704855,-0.1586783542743164,0.0739433172216925,59.25,23.1,7.8
-919.43359,58.10547,-437.01172,-0.0824701232823108,0.0305099261211876,-0.0071944217096458,-9.6,28.95,16.8,-344.72656,-12.20703,961.91406,-0.0106585512090041,0.0608866836204481,-0.0069280844657914,82.95,2.25,80.1,-944.33594,65.42969,352.05078,0.1709356270781474,-0.1073843492886795,0.0682144484849463,59.1,22.95,7.35
-915.52734,40.52734,-401.36719,-0.0315757986953806,-0.0113245688515652,0.0101255276554451,-8.25,29.7,16.5,-322.26562,-19.53125,977.05078,-0.0282450123508746,-0.0019984019935335,-0.016787100344457,83.55,1.65,79.2,-962.89062,65.91797,375.48828,0.1791960958949114,-0.1044532433428802,0.0478300500192038,60.15,22.2,7.65
-908.69141,55.17578,-385.74219,-0.0255804181818548,-0.0025314255470925,-0.0093261668580317,-8.7,29.55,15.6,-318.84766,-13.67187,987.30469,-0.0375711792089063,-0.007860613885132,-0.068081105330094,83.55,1.65,79.2,-945.3125,65.91797,337.89062,0.1526829737607907,-0.0788728251610253,0.0616860444178615,58.95,24.15,6.75
-912.59766,54.19922,-388.18359,-0.075275701572665,0.0282450123508746,-0.0487625794385443,-7.95,29.7,16.5,-313.96484,-22.94922,956.54297,0.0330413516682802,-0.0073277648644981,-0.0515605167624164,84.15,2.4,78.45,-913.57422,80.07813,348.63281,0.1886554313748702,-0.0002665117767795,0.0403691165327784,59.7,23.1,7.5
-907.22656,52.73438,-391.60156,-0.0334410320669869,0.0263797789792682,0.0006661921754862,-8.4,28.05,17.1,-296.38672,-16.60156,936.52344,0.0126569532025376,0.0081271256619115,-0.0403691165327784,83.85,0.9,79.2,-924.80469,59.08203,357.91016,0.2122374475631916,0.0014655529728996,-0.0397029243572922,59.7,23.1,7.5
-916.01562,61.03516,-395.50781,-0.0019984019935335,0.0041301471419193,0.0270459711547545,-8.4,28.05,17.1,-288.57422,21.97266,951.17187,-0.0297105653237742,0.0603538345998143,-0.0520933657830503,84.15,1.65,79.2,-936.52344,109.86328,339.35547,0.2009127041787012,0.0043966589186989,0.0331745202902074,58.95,23.85,7.8
-901.85547,62.01172,-405.76172,-0.0472970264656447,0.0025314255470925,-0.0374380105869791,-6.6,29.85,17.1,-313.96484,-22.94922,980.46875,0.0013323843509724,0.0315757986953806,-0.0679479367081668,83.55,0.15,79.95,-897.46094,111.81641,340.82031,0.2519401973875587,0.0122572728038309,0.0125237845806105,58.95,23.85,7.8
-896.97266,58.59375,-395.50781,-0.0206509102425221,0.0083936374386911,-0.0385038831611721,-7.95,28.65,16.5,-317.38281,26.36719,971.67969,0.0295773967018471,0.0242480338308824,-0.082603291904238,82.65,1.5,80.4,-897.46094,151.85547,350.09766,0.2673950879139684,0.0651499993842947,0.0528927265804637,60.0,22.35,7.8
-909.66797,85.44922,-400.39062,0.0191853572696224,-0.0193185258915496,0.0933951862680945,-7.95,29.7,18.6,-337.89062,41.01563,947.26562,0.0715452348294523,0.0374380105869791,-0.1008561197545199,83.85,1.2,79.5,-926.75781,151.36719,347.16797,0.2769877665487796,0.13776110678794,-0.0143890179522168,59.7,22.65,8.25
-906.73828,75.68359,-401.36719,-0.0338407124656936,0.059687642424328,-0.0321086477160144,-7.95,29.7,18.6,-340.82031,22.46094,995.11719,-0.0357059458372999,0.0181194846954295,-0.0921959705390492,83.85,1.2,79.5,-921.875,142.08984,330.07812,0.2388835637863142,0.1268362183350815,0.007860613885132,59.7,23.1,7.8
-890.13672,96.19141,-407.22656,-0.043566559722432,0.0361056262360067,-0.0190520141147701,-7.2,29.4,16.5,-352.05078,21.48438,986.81641,-0.0436999028772844,-0.0277121633302407,-0.0471638578437175,83.55,0.9,79.5,-912.10937,165.03906,318.35937,0.2340872244689086,0.1364287224369675,-0.0374380105869791,59.25,22.35,7.2
-903.32031,79.10156,-420.41016,-0.0005328490206338,0.0447657754514773,-0.0027979373238721,-9.15,28.5,17.4,-332.03125,15.13672,947.26562,0.0174532925199432,-0.032908183046353,-0.0139893375535101,82.2,1.05,79.05,-964.35547,181.15234,331.05469,0.1706692898342931,0.1617428033749681,-0.0099923590335179,59.25,22.35,7.2
-911.13281,61.52344,-422.36328,-0.0315757986953806,0.045165455850184,-0.0456983048708179,-9.15,28.05,17.4,-352.05078,6.34766,967.77344,0.074209828998472,-0.0185191650941362,-0.0548913031069224,83.1,1.2,79.2,-950.68359,191.40625,335.44922,0.1322985752950481,0.1609432680446295,0.0511608363637097,59.25,22.35,7.2
-925.29297,47.36328,-426.75781,-0.0174532925199432,0.0452986244721112,-0.0317089673173077,-8.55,29.7,15.75,-342.28516,13.18359,973.14453,0.0177198042967228,-0.0475635382424242,-0.0026645941690197,83.1,1.2,79.2,-929.19922,205.56641,336.91406,0.0790061683158777,0.1100489434576992,0.0462311538914518,58.95,23.1,6.75
-917.48047,41.50391,-436.03516,0.0551578148837019,0.0030642745677264,0.0688804661275074,-8.55,29.7,15.75,-351.5625,11.23047,967.28516,0.0487625794385443,-0.0119907610270514,-0.0602204914449619,83.25,0.3,79.35,-961.42578,187.01172,337.40234,0.0544916227082157,0.1075176924435318,0.023448673033469,58.95,23.1,6.75
-917.96875,57.12891,-438.96484,0.0286446927495813,0.0330413516682802,-0.0778071271197576,-8.55,29.7,15.75,-353.51562,46.38672,954.10156,0.0575558972759422,-0.0631515973907612,-0.0115910806283447,83.1,-0.45,79.2,-958.49609,182.12891,356.44531,-0.0094593354799588,0.0854012292281101,0.0089264864593249,60.3,20.55,7.5
-911.13281,60.05859,-439.45312,0.058088746296576,0.0331745202902074,-0.0097258472567384,-8.1,30.6,16.35,-350.09766,46.875,956.05469,0.0439662401211387,-0.0631515973907612,0.0054625314928918,82.2,2.25,80.4,-954.58984,177.73437,350.09766,-0.118842261295097,0.0659495347146333,0.0098591904115907,59.85,24.0,5.85
-924.31641,43.94531,-443.35937,0.1025880099712739,0.0067947413109391,0.0235820161883213,-8.25,28.65,16.2,-350.09766,46.38672,962.40234,0.0559571756811154,-0.0278453319521679,0.0471638578437175,82.2,2.25,80.4,-960.44922,170.89844,349.60937,-0.1708024584562202,0.0618192130397887,0.0185191650941362,58.8,22.95,6.6
-923.33984,39.0625,-423.82812,0.0552909835056291,0.0704793622552594,-0.0487625794385443,-8.25,29.4,16.2,-350.09766,44.43359,975.09766,-0.0403691165327784,-0.0606201718436686,0.0486294108166172,82.95,-0.3,79.8,-944.33594,158.20312,333.98437,-0.1624088210175291,0.0590214502488418,-0.039569755735365,59.25,21.6,7.2
-913.57422,33.20313,-439.94141,0.041834669505678,0.0459648166475974,-0.0171867807431637,-8.25,29.4,16.2,-355.95703,33.69141,967.77344,0.0053291883380394,-0.0492956029921034,0.0852680606061829,82.35,1.65,80.55,-962.40234,140.13672,340.82031,-0.2575358975023777,0.0354394340605204,0.0211837592631559,59.7,23.4,6.45
-915.52734,41.01563,-426.75781,0.0847350370526239,0.0378376909856858,-0.0162542513238231,-9.0,28.2,16.8,-318.84766,22.46094,1000.97656,-0.0619525561946411,-0.4051561947019085,0.06634921511334,83.25,0.3,78.0,-961.91406,133.78906,355.95703,-0.285514572609398,-0.0317089673173077,0.0090596550812521,58.5,22.35,6.75
-897.46094,39.55078,-431.64062,0.0303767574992605,0.061419532641082,-0.0796723604913639,-8.4,29.55,16.65,-340.33203,19.53125,988.76953,-0.0275788201753884,-0.1728008604497538,0.0510274932088574,83.25,0.3,78.0,-937.01172,98.63281,343.26172,-0.2707258742584744,-0.0455651362488907,-0.0460979852695246,58.5,22.35,6.75
-896.48437,38.08594,-417.48047,0.0129234649793172,0.0002665117767795,-0.0638177895662474,-7.5,28.2,16.8,-341.30859,-3.90625,942.87109,-0.0173201238980161,-0.1444226794769519,0.0619525561946411,83.55,0.9,79.5,-933.10547,91.30859,347.16797,-0.3017688239332212,-0.0302434143444081,-0.0063950609122324,59.7,22.65,5.7
-900.39062,43.94531,-415.03906,0.0603538345998143,0.0803383781339249,0.0002665117767795,-9.45,28.8,16.65,-321.28906,19.04297,972.16797,-0.0526263893366094,-0.0850015488294034,0.1211071750654101,83.85,0.9,79.95,-944.33594,82.03125,338.37891,-0.3470674484053324,-0.0350397536618137,-0.0592879620256213,60.15,21.75,6.9
-897.94922,41.99219,-417.48047,-0.0138559943986577,0.0959264372822619,-0.0098591904115907,-9.45,28.8,16.65,-313.47656,-12.69531,968.75,-0.0818039311068246,-0.0233155044115418,0.0895313763700295,83.85,0.9,79.95,-963.37891,76.66016,357.91016,-0.3376079383924483,-0.0066615726890119,0.041834669505678,58.2,21.15,6.45
-895.01953,51.26953,-411.62109,-0.0672817445326806,0.107650861065459,-0.0357059458372999,-7.95,29.7,17.85,-318.35937,-18.55469,958.00781,-0.0911300979648563,-0.0576890658978693,0.0598208110462552,82.35,1.95,80.25,-948.73047,52.73438,349.60937,-0.3172235399267057,-0.0399694361340717,-0.0285115241276541,58.8,23.7,7.35
-877.92969,49.80469,-414.55078,-0.0275788201753884,0.0516936853843436,0.0170536121212365,-8.25,29.4,15.75,-331.05469,-20.50781,969.72656,-0.0732771250462063,-0.0662158719584876,0.0794058487145844,82.8,0.9,81.3,-919.43359,43.94531,346.19141,-0.2949739080893568,-0.0242480338308824,0.0050628510941851,59.1,22.5,6.9
-895.01953,38.08594,-423.82812,-0.0482297304179105,0.0901975685455157,-0.059154618870769,-6.9,30.45,16.8,-303.22266,-44.43359,962.40234,-0.0975253334100139,-0.0351730968166661,0.0366386497895657,82.95,0.75,80.4,-945.3125,25.39063,343.75,-0.2651301741436554,-0.0414349891069713,0.020117886688963,57.9,23.1,5.7
-907.22656,50.78125,-429.6875,-0.0483628990398376,0.0804717212887773,-0.0487625794385443,-6.9,30.45,16.8,-297.36328,-27.83203,969.23828,-0.0019984019935335,-0.0779402957416847,0.0377045223637587,82.95,0.75,80.4,-957.51953,26.85547,351.5625,-0.2462113286508125,-0.0350397536618137,0.0279785005740951,57.9,23.1,5.7
-918.45703,26.85547,-427.24609,-0.0293108849250675,0.0222496318373489,-0.0121241041819038,-9.45,28.8,17.1,-282.71484,-40.03906,951.17187,-0.0578224090527217,-0.0009327039522657,0.0335742006889141,83.25,0.0,80.4,-937.5,48.33984,346.19141,-0.2015788963541875,-0.0664823837352672,0.0506278128101507,58.2,21.6,7.2
-913.08594,28.80859,-424.31641,-0.0448989440734045,0.0555574952824086,-0.0880658233971298,-7.95,28.95,15.75,-299.31641,-27.34375,970.70312,-0.0271791397766816,-0.0118575924051242,0.0169204434993094,83.85,2.4,80.25,-946.28906,34.17969,354.98047,-0.1778637115439389,-0.039569755735365,0.0274456515534612,58.2,21.6,7.2
-916.01562,23.4375,-424.31641,-0.0542251109314362,-0.0570230482553083,-0.0479632186411309,-8.7,27.3,17.1,-314.94141,-52.24609,978.02734,-0.0567565364785288,-0.0095926786348112,0.0174532925199432,83.85,2.4,80.25,-948.24219,21.97266,339.84375,-0.1420244225517865,-0.0049295079393327,0.0202512298438154,58.95,23.1,6.75
-893.55469,28.32031,-422.85156,0.0202512298438154,-0.0185191650941362,-0.0265129476011954,-7.65,29.25,17.1,-305.66406,-44.92188,980.46875,0.027312482931534,-0.0147886983509235,0.0442327518979182,83.25,0.3,80.1,-929.6875,17.57813,344.23828,-0.1265697065583019,0.0010658725741929,-0.0026645941690197,60.15,22.2,6.9
-906.73828,41.01563,-411.62109,-0.0532925815120956,-0.0277121633302407,0.0,-7.65,29.25,17.1,-301.26953,-44.92188,958.49609,0.0163874199457503,0.0359724576140795,-0.0301102457224809,84.0,0.75,80.4,-917.96875,34.17969,344.23828,-0.0905972489442224,0.0494287716140306,0.051827028539196,59.7,23.4,7.8
-908.20312,37.10938,-410.15625,-0.0363721380127862,0.0049295079393327,-0.0627519169920545,-9.3,30.15,17.85,-291.01562,-38.57422,956.05469,-0.0381042027624654,0.0209172474863764,-0.0393032439585855,82.2,1.5,80.1,-928.71094,34.66797,327.14844,-0.0827366350590903,0.0343737360192527,-0.0193185258915496,59.4,23.25,6.9
-899.41406,33.69141,-412.10937,0.0327748398915007,-0.0907304175661496,0.0027979373238721,-8.7,27.3,16.65,-295.89844,-53.22266,958.00781,-0.0381042027624654,0.0779402957416847,-0.0206509102425221,82.2,1.5,80.1,-928.71094,21.48438,339.84375,-0.0190520141147701,0.0163874199457503,0.0594211306475485,59.4,23.25,6.9
-907.22656,16.60156,-410.64453,-0.032908183046353,-0.0233155044115418,-0.0790061683158777,-7.65,28.5,16.05,-322.75391,-65.91797,976.07422,-0.0251807377831481,0.0783399761403914,-0.0046631706954784,82.35,0.45,79.95,-929.19922,42.48047,357.42187,0.0371714988101996,0.0087933178373978,-0.0097258472567384,58.95,23.25,6.9
-885.25391,21.97266,-409.66797,-0.0608866836204481,-0.0452986244721112,-0.058088746296576,-7.65,28.5,16.05,-306.64062,-69.82422,960.9375,0.0138559943986577,0.0450321126953316,-0.0093261668580317,83.7,1.8,79.8,-948.73047,32.71484,354.49219,0.0830031468358699,0.007860613885132,0.0575558972759422,58.95,24.15,8.85
-894.04297,12.69531,-428.71094,0.0169204434993094,-0.0656830229378538,0.0127901218244648,-8.1,29.55,17.1,-312.5,-86.42578,971.19141,0.0274456515534612,-0.0047963393174056,-0.0322419908708668,84.15,1.2,79.95,-945.80078,41.99219,354.49219,0.049162259837251,0.0512940049856369,-0.0317089673173077,58.95,24.15,8.85
-906.73828,10.25391,-441.89453,0.0349065850398865,-0.0656830229378538,0.0261132672024887,-7.35,28.8,17.1,-326.17187,-78.61328,961.91406,0.0311761182966739,0.0548913031069224,-0.055823832526263,83.55,1.2,78.15,-957.03125,36.13281,357.91016,0.051827028539196,0.0050628510941851,-0.0054625314928918,59.85,24.3,7.65
-898.92578,6.34766,-423.33984,0.0047963393174056,-0.0587549384720623,-0.0488959225933967,-7.65,29.55,16.35,-336.42578,-59.08203,962.89062,0.0171867807431637,0.0023980823922402,-0.1259035143828157,82.95,0.3,79.8,-951.17187,59.08203,368.16406,0.0905972489442224,0.0322419908708668,-0.0099923590335179,59.85,24.0,7.65
-900.87891,16.60156,-425.78125,0.0880658233971298,-0.1133797298022052,0.0487625794385443,-8.1,30.6,16.65,-329.10156,-44.92188,965.82031,0.0527595579585365,0.0189188454928429,-0.0399694361340717,84.0,1.05,78.6,-940.42969,82.51953,356.93359,0.1312327027208552,0.0131899767560967,-0.0151883787496302,59.7,23.1,6.75
-900.87891,9.76562,-418.94531,0.0976585020319411,-0.0744763407752516,0.036238969390859,-8.1,30.6,16.65,-335.9375,-20.50781,965.82031,0.0351730968166661,0.0350397536618137,-0.0734104682010586,84.0,1.05,78.6,-921.875,80.07813,352.05078,0.1345634890653612,0.0387702204050264,0.0254472495599277,60.15,21.0,6.9
-894.53125,22.94922,-417.48047,0.0615528757959344,-0.0155880591483369,-0.0455651362488907,-7.35,28.5,16.65,-330.07812,-9.27734,957.51953,0.0603538345998143,0.0190520141147701,-0.023981696587028,82.05,1.2,80.25,-934.08203,122.07031,269.04297,0.2519401973875587,0.1036538825454668,0.0119907610270514,58.2,23.4,6.75
-907.22656,34.66797,-426.75781,0.1279019163763492,-0.0407687969314851,0.0495619402359577,-7.5,28.2,16.2,-312.98828,-19.53125,958.98437,0.054091942309509,0.0566231933236764,-0.0824701232823108,82.2,1.5,80.85,-922.85156,131.83594,235.35156,0.1209740064434829,0.1361623851931132,0.0085268060606182,58.5,23.1,6.75
-909.17969,22.46094,-459.47266,0.0740764858436197,-0.0788728251610253,0.0799386977352182,-8.25,27.9,17.25,-348.14453,4.39453,966.30859,0.0794058487145844,0.0608866836204481,-0.0490290912153239,83.25,0.75,80.1,-951.66016,151.36719,402.34375,-0.0478300500192038,0.0500949637895168,0.0138559943986577,58.5,23.1,6.75
-930.17578,-0.97656,-459.47266,0.0996569040254746,-0.0154548905264097,-0.0275788201753884,-8.25,27.9,17.25,-317.38281,3.90625,965.33203,0.068614128883653,0.0250473946282958,-0.0246477142295891,83.7,1.05,80.1,-901.36719,181.15234,370.60547,-0.0247810573844414,-0.0073277648644981,-0.0660827033365605,58.8,22.2,7.65
-948.24219,-12.20703,-459.47266,0.1907871765232561,-0.091529778363563,0.0322419908708668,-7.95,27.9,16.2,-328.125,23.4375,967.28516,0.1019218177957876,0.0567565364785288,-0.0406354537766327,82.65,0.3,81.45,-950.68359,164.55078,364.74609,-0.0511608363637097,-0.0373046674321268,-0.0909969293429291,59.25,22.65,6.45
-956.54297,17.57813,-439.94141,0.1231057515918688,-0.0972588216332344,0.0137228257767306,-7.2,28.2,16.8,-349.12109,26.85547,996.58203,0.0262466103573411,0.0512940049856369,0.0165205885676775,84.0,2.55,79.8,-954.10156,154.29687,302.24609,-0.0790061683158777,0.0029311059457992,-0.0390367321818059,58.05,23.25,6.9
-923.33984,31.73828,-401.36719,0.0879326547752027,-0.0694134896810664,-0.0151883787496302,-7.65,28.5,17.7,-347.16797,58.10547,944.82422,0.0620857248165682,0.0231821612566894,0.0161209081689708,84.0,2.55,79.8,-956.05469,151.85547,334.47266,-0.0868667822010097,0.0175864611418704,-0.0941945470655079,58.8,24.0,8.7
-875.97656,28.80859,-376.95312,0.0838025076332833,-0.1329647674705344,-0.036238969390859,-7.65,28.5,17.1,-337.40234,37.59766,916.01562,0.0357059458372999,-0.0119907610270514,0.0147886983509235,84.0,2.55,79.8,-968.75,131.34766,335.9375,-0.0807380585326316,-0.0099923590335179,0.0083936374386911,59.4,22.95,6.9
-858.39844,21.97266,-384.27734,0.0819372742616769,-0.0600873228230347,0.0058622118915985,-7.65,28.5,17.1,-316.40625,20.50781,930.66406,0.0190520141147701,0.0526263893366094,0.0784731447623186,82.65,1.05,80.1,-954.10156,101.07422,335.44922,-0.1448223598756587,-0.0166539317225298,-0.0542251109314362,58.2,24.15,8.85
-880.85937,31.73828,-387.20703,0.016787100344457,-0.0126569532025376,-0.0456983048708179,-7.65,28.5,17.1,-318.35937,5.85937,949.21875,0.0085268060606182,0.032375159492794,0.0838025076332833,83.25,-0.75,79.05,-968.75,83.98438,346.67969,-0.1682710329091277,0.0007993607974134,-0.0051960197161123,58.2,24.15,8.85
-898.92578,18.55469,-397.46094,0.0724777642487929,-0.0119907610270514,0.0277121633302407,-7.35,29.25,17.4,-330.07812,-5.37109,970.70312,-0.0215834396618626,0.0339738810876208,0.0598208110462552,82.95,1.05,79.8,-958.49609,53.71094,335.44922,-0.0687472975055802,0.0194516945134768,-0.0610198522423753,58.5,23.4,7.8
-898.92578,25.39063,-412.10937,0.0325085026476463,-0.0217166082837898,0.0303767574992605,-7.35,28.8,16.05,-331.05469,-23.92578,962.89062,-0.0269126279999021,0.0390367321818059,0.0564900247017492,82.65,0.3,78.3,-952.14844,16.60156,345.21484,-0.0454317930940384,0.0363721380127862,-0.0361056262360067,58.5,23.4,7.8
-903.80859,11.23047,-420.89844,-0.0231821612566894,0.0073277648644981,0.0103920394322246,-7.5,28.65,16.5,-331.54297,-30.76172,984.375,0.0390367321818059,0.0483628990398376,0.0879326547752027,82.95,0.3,80.4,-937.01172,36.62109,358.88672,-0.0011990411961201,0.0644839817417337,-0.0170536121212365,60.0,23.1,7.2
-908.20312,8.30078,-416.99219,0.0154548905264097,-0.0253139064050753,0.0672817445326806,-7.5,28.65,16.5,-330.56641,-14.64844,972.16797,0.0331745202902074,0.0563568560798221,0.074209828998472,84.0,1.8,80.1,-936.03516,41.50391,354.98047,0.041834669505678,0.0390367321818059,0.0001331686219271,59.25,22.65,5.7
-899.41406,-2.92969,-427.24609,-0.023448673033469,-0.0337075438437664,0.046897346066938,-8.7,29.25,17.7,-317.38281,-16.60156,960.44922,0.0218499514386422,0.0628850856139816,0.0552909835056291,84.0,1.8,80.1,-918.45703,51.75781,357.91016,0.0635512777894679,0.0935283548900217,-0.0587549384720623,59.25,22.65,7.8
-910.15625,36.62109,-420.41016,-0.0707458740320389,-0.0005328490206338,0.0655498543159266,-7.95,29.7,16.5,-319.33594,-2.44141,966.30859,0.0102588708102974,0.0774072721881257,0.0255804181818548,83.25,0.3,80.4,-947.75391,54.6875,362.79297,0.0599539796681824,0.0299770771005538,-0.0586217698501351,59.4,24.75,6.3
-910.64453,41.99219,-399.41406,-0.050761155965003,-0.0590214502488418,0.0458314734927451,-6.6,29.55,16.35,-331.05469,3.90625,974.12109,0.0062618922903052,0.0800720408900706,0.0634181091675407,82.8,3.15,81.0,-953.125,73.24219,356.93359,0.061419532641082,0.0522267089379027,-0.0439662401211387,59.4,24.75,6.3
-904.78516,37.59766,-403.80859,-0.0631515973907612,-0.0584886012282079,0.0472970264656447,-8.1,28.05,17.1,-325.68359,5.37109,988.28125,0.0114579120064175,0.0552909835056291,0.0520933657830503,83.55,0.45,77.7,-955.07812,105.46875,334.47266,0.052493046181757,0.0823369546603836,-0.0628850856139816,58.95,24.15,8.25
-905.27344,56.64063,-401.36719,-0.1566799522807829,-0.0125237845806105,-0.0097258472567384,-8.1,28.05,17.1,-327.63672,-0.97656,976.07422,0.0143890179522168,0.0203843984657425,0.0389035635598788,83.55,0.45,77.7,-954.10156,115.23438,346.67969,0.0419678381276052,0.1033873707686873,-0.1011224569983742,58.95,24.15,8.25
-904.29687,58.10547,-410.15625,-0.1205743260447762,-0.0560903443030425,0.0294440535469947,-6.45,29.7,18.3,-331.05469,1.95312,960.44922,0.0431668793237253,0.0031976177225788,0.0590214502488418,84.45,0.3,79.35,-938.47656,136.71875,368.16406,0.0403691165327784,0.1036538825454668,-0.1192419416938038,58.95,24.15,8.25
-907.71484,58.10547,-399.90234,-0.1458882324498516,-0.0193185258915496,-0.0005328490206338,-7.95,28.65,17.25,-331.54297,2.92969,968.26172,0.0235820161883213,0.0500949637895168,0.0606201718436686,83.25,2.25,79.35,-955.07812,124.02344,344.72656,0.0359724576140795,0.0530260697353161,-0.0711455544307456,59.25,22.65,6.75
-886.23047,61.52344,-395.50781,-0.184658452854878,0.0191853572696224,0.0014655529728996,-7.95,28.2,16.2,-329.10156,-13.18359,985.35156,0.0179861415405771,-0.0101255276554451,0.075275701572665,83.25,2.25,79.35,-956.05469,112.79297,351.5625,0.0178529729186499,0.0624854052152749,-0.1055191159170731,59.4,23.7,6.3
-914.0625,68.35938,-414.55078,-0.1314992144976347,-0.0538254305327295,0.0634181091675407,-7.95,28.2,16.2,-334.47266,8.78906,969.72656,0.0303767574992605,-0.0123904414257581,0.0763415741468579,84.15,-0.15,79.5,-949.21875,119.14063,361.81641,-0.0226493122360556,0.0178529729186499,-0.0186523337160634,59.1,21.75,7.35
-912.10937,63.47656,-405.76172,-0.1458882324498516,-0.0141225061754373,-0.0046631706954784,-8.1,28.8,17.4,-324.21875,-0.48828,964.35547,0.0214502710399355,-0.0190520141147701,0.0459648166475974,83.55,1.65,78.9,-947.26562,91.79688,358.39844,0.0325085026476463,-0.002264913770313,-0.0594211306475485,59.25,24.15,6.45
-917.96875,58.59375,-408.69141,-0.1777305429220118,0.0459648166475974,-0.0238483534321757,-9.0,28.95,17.25,-324.21875,-0.48828,957.51953,0.0198513749121835,-0.0398360929792193,0.0165205885676775,82.2,0.0,79.8,-951.17187,91.79688,339.84375,0.0303767574992605,0.0425006871482391,-0.0337075438437664,60.3,22.35,6.75
-926.26953,60.05859,-417.48047,-0.148952507017578,0.032375159492794,-0.041834669505678,-7.65,28.05,15.6,-335.44922,-21.48438,960.9375,-0.0049295079393327,-0.0094593354799588,0.0382373713843925,82.2,0.0,79.8,-958.00781,97.65625,338.37891,0.0385038831611721,0.0173201238980161,-0.0337075438437664,59.25,22.65,8.25
-912.59766,49.31641,-422.85156,-0.0527595579585365,-0.0342403928644003,-0.0271791397766816,-7.95,28.65,16.2,-322.75391,-6.83594,948.24219,0.0430337107017981,0.0089264864593249,0.0127901218244648,82.8,0.9,79.5,-954.58984,75.68359,349.12109,0.04849624219469,0.0106585512090041,-0.0025314255470925,59.25,22.65,8.25
-906.25,58.59375,-420.41016,-0.0925956509377559,-0.0003996803987067,-0.0602204914449619,-7.95,28.65,16.2,-333.98437,-22.94922,956.54297,0.0334410320669869,0.0377045223637587,0.0731439564242791,84.15,2.4,79.2,-950.68359,58.59375,338.37891,0.0301102457224809,0.0390367321818059,-0.0057288687367461,58.95,21.9,6.75
-910.64453,56.64063,-419.43359,-0.039569755735365,-0.0262466103573411,-0.016787100344457,-7.95,28.65,17.55,-325.19531,-19.53125,958.49609,0.0478300500192038,0.0122572728038309,0.0311761182966739,84.15,2.4,79.2,-956.05469,56.15234,346.19141,0.0568897051004559,0.0130566336012443,0.0454317930940384,58.95,22.35,7.2
-923.82812,42.96875,-420.89844,0.0062618922903052,-0.0488959225933967,0.0584886012282079,-7.35,28.05,16.35,-341.30859,-13.67187,956.54297,0.0407687969314851,0.042900542079871,0.0158545709251164,83.25,1.05,78.6,-954.10156,78.61328,354.00391,0.0610198522423753,0.0147886983509235,0.0066615726890119,58.35,22.5,7.35
-927.24609,66.40625,-445.3125,-0.052493046181757,-0.0194516945134768,-0.0137228257767306,-6.3,28.8,16.65,-338.37891,-19.04297,962.40234,0.0277121633302407,0.031309286918601,0.0535589187559499,84.15,0.45,79.2,-950.68359,76.17188,354.49219,-0.0066615726890119,-0.0039969785199922,0.0154548905264097,60.3,21.15,6.15
-926.26953,62.01172,-419.92187,-0.0442327518979182,-0.0063950609122324,0.0163874199457503,-6.3,28.8,16.65,-329.10156,-22.94922,984.86328,0.05475795995207,0.0027979373238721,0.0369049870334201,83.7,1.8,79.8,-953.125,76.17188,339.84375,0.0319754790940873,-0.004529827540626,0.0089264864593249,60.9,23.25,6.9
