IMU1_AccX,IMU1_AccY,IMU1_AccZ,IMU1_GyrX,IMU1_GyrY,IMU1_GyrZ,IMU1_MagX,IMU1_MagY,IMU1_MagZ,IMU2_AccX,IMU2_AccY,IMU2_AccZ,IMU2_GyrX,IMU2_GyrY,IMU2_GyrZ,IMU2_MagX,IMU2_MagY,IMU2_MagZ,IMU3_AccX,IMU3_AccY,IMU3_AccZ,IMU3_GyrX,IMU3_GyrY,IMU3_GyrZ,IMU3_MagX,IMU3_MagY,IMU3_MagZ
-916.50391,18.06641,-420.89844,-0.1131133925583509,0.0159877395470436,-0.0302434143444081,-8.25,26.7,16.2,-309.08203,-39.0625,978.51562,-0.0627519169920545,-0.015055210127703,0.0711455544307456,83.25,0.3,79.8,-951.66016,85.9375,398.92578,-0.1909203451451833,-0.0049295079393327,-0.0881991665519822,60.3,22.65,8.85
-897.46094,19.04297,-418.45703,-0.1139127533557643,0.0496952833908101,-0.0263797789792682,-8.4,27.75,16.35,-303.71094,-32.71484,965.82031,-0.068614128883653,-0.0099923590335179,0.1149786259299572,83.25,0.3,79.8,-929.6875,57.12891,388.18359,-0.1473537854227512,-0.0478300500192038,-0.1374945950111605,58.95,23.4,8.85
-895.50781,10.25391,-416.50391,-0.0731439564242791,-0.0338407124656936,0.0227824808579827,-8.4,27.75,16.05,-319.82422,-38.57422,977.05078,-0.0691469779042869,-0.0221164632154217,0.1024548413493467,83.25,0.3,79.8,-945.3125,81.54297,369.14062,-0.1318988948963414,-0.039569755735365,-0.054091942309509,60.6,21.0,7.95
-903.80859,19.04297,-439.94141,-0.0523598775598298,-0.0103920394322246,0.0215834396618626,-8.7,27.75,16.35,-322.26562,-19.53125,957.51953,-0.0538254305327295,-0.054091942309509,0.0443659205198454,81.45,-0.75,79.8,-926.26953,95.70313,377.92969,-0.0827366350590903,-0.036238969390859,-0.114312433754471,60.0,22.35,8.55
-918.94531,15.13672,-438.96484,-0.0814042507081179,0.0512940049856369,-0.0246477142295891,-8.7,27.75,16.35,-305.66406,-21.97266,964.35547,-0.0610198522423753,-0.0147886983509235,0.0552909835056291,81.75,-0.15,79.95,-933.59375,97.16797,385.74219,-0.1203078142679967,0.0107917198309313,-0.13776110678794,58.35,24.0,6.6
-916.99219,25.87891,-434.57031,-0.014522186574144,-0.0166539317225298,0.0263797789792682,-8.4,27.75,14.55,-316.40625,-26.85547,984.86328,-0.0611531953972277,-0.0083936374386911,0.1128468807815713,84.15,-0.15,78.9,-931.64062,83.00781,378.41797,-0.1215068554641168,-0.0135896571548034,-0.1517504443414501,58.35,24.0,6.6
-935.05859,4.39453,-425.29297,-0.0622190679714206,-0.0151883787496302,0.0391699008037331,-9.45,27.0,15.6,-307.61719,-26.85547,977.05078,0.0086599746825454,-0.0133231453780239,0.0708790426539661,84.15,-0.15,78.9,-930.17578,90.82031,372.07031,-0.1486859952407985,-0.0277121633302407,-0.145621720673072,59.4,21.0,8.4
-915.52734,19.53125,-413.57422,-0.0706125308771865,-0.0097258472567384,-0.034640073263107,-9.0,27.15,15.45,-303.22266,-30.76172,966.79687,-0.0510274932088574,-0.0511608363637097,0.0688804661275074,83.55,-0.45,78.9,-928.71094,101.5625,376.46484,-0.1259035143828157,-0.0812710820861907,-0.1197749652473628,59.85,22.95,7.95
-914.55078,18.06641,-426.75781,0.0383705400063197,-0.050761155965003,0.0483628990398376,-7.65,27.75,15.6,-312.98828,-30.27344,957.51953,-0.0261132672024887,0.0291777163031404,0.0162542513238231,82.65,1.05,79.05,-930.66406,91.79688,378.41797,-0.0666155523571943,-0.0415681577288985,-0.0891316959713228,60.75,22.35,7.5
-910.64453,20.99609,-426.75781,0.0282450123508746,-0.022382800459276,0.0535589187559499,-7.65,27.75,15.6,-306.64062,-49.80469,971.67969,-0.0011990411961201,0.0157212277702641,0.0515605167624164,82.65,1.05,79.05,-963.86719,87.40234,356.44531,-0.1277687477544221,-0.0543582795533633,-0.0932618431132422,58.35,21.75,8.4
-902.83203,4.88281,-428.71094,-0.0406354537766327,-0.0283781809728018,-0.0283781809728018,-9.15,28.5,16.05,-321.28906,-22.46094,981.93359,0.0229158240128351,-0.0339738810876208,0.0676814249313873,83.7,0.0,80.1,-940.91797,83.98438,364.25781,-0.1236386006125027,0.0129234649793172,-0.1029876903699806,58.05,22.5,9.0
-900.39062,6.34766,-424.31641,0.0342403928644003,-0.0067947413109391,0.039569755735365,-9.45,26.55,17.1,-310.54687,-19.04297,972.16797,-0.0459648166475974,-0.0447657754514773,0.0694134896810664,83.7,0.75,80.4,-947.26562,86.91406,384.27734,-0.1017886491738605,0.0163874199457503,-0.0979250138087206,61.35,21.15,7.8
-905.27344,12.20703,-430.66406,0.0343737360192527,-0.0233155044115418,0.0105252080541518,-7.35,26.55,16.35,-322.26562,-43.94531,966.79687,-0.0271791397766816,0.0185191650941362,0.0758085505932989,82.8,0.15,80.25,-932.12891,77.14844,387.20703,-0.1544150385104699,0.0158545709251164,-0.1092495826602858,61.35,21.15,7.8
-898.92578,15.13672,-428.22266,0.0247810573844414,0.0417013263508257,-0.004529827540626,-7.35,26.55,16.35,-309.57031,-9.27734,974.60937,-0.0127901218244648,0.0331745202902074,0.0798055291132911,82.8,0.15,80.25,-938.47656,102.05078,373.53516,-0.1581455052536826,0.0219831200605693,-0.0806048899107045,61.35,22.35,8.85
-905.27344,4.39453,-435.05859,0.0551578148837019,0.0221164632154217,0.0021317451483858,-8.4,27.3,15.3,-361.32812,-11.71875,969.72656,0.013456313999951,0.1640077171452811,0.0604870032217414,83.1,-0.9,81.3,-948.24219,101.07422,400.39062,-0.1356293616395541,0.0353062654385932,-0.0804717212887773,61.35,22.35,8.85
-897.46094,-0.48828,-414.0625,0.0830031468358699,0.0107917198309313,0.0106585512090041,-8.25,27.15,16.2,-342.77344,-13.18359,959.96094,0.0463644970463041,0.0536922619108023,0.1029876903699806,81.9,0.3,79.35,-953.125,104.49219,365.72266,-0.1081837100860929,-0.0198513749121835,-0.0367718184114929,61.35,22.35,8.85
-895.01953,12.20703,-438.47656,0.0081271256619115,0.027312482931534,-0.0458314734927451,-8.7,28.05,16.65,-329.58984,-10.74219,973.63281,-0.018385996472209,0.0133231453780239,0.0475635382424242,83.55,-0.15,79.2,-950.68359,107.91016,371.58203,-0.1325650870718277,-0.0508943245869302,-0.0662158719584876,60.3,21.9,7.5
-899.41406,2.44141,-434.08203,0.0543582795533633,0.0089264864593249,0.0347734164179594,-8.7,27.3,16.35,-330.07812,-16.60156,952.14844,0.0190520141147701,0.0269126279999021,0.0871332939777893,83.1,1.65,78.9,-943.84766,99.60938,376.95312,-0.0651499993842947,0.0006661921754862,-0.0666155523571943,59.25,22.65,9.3
-910.15625,21.48438,-452.63672,0.059687642424328,0.0217166082837898,0.0795390173365115,-8.7,27.3,16.35,-333.49609,-19.04297,983.88672,0.0343737360192527,0.0215834396618626,0.0838025076332833,82.8,-0.9,80.25,-965.82031,96.67969,381.83594,-0.0945942274642146,-0.0253139064050753,-0.0586217698501351,61.35,23.1,8.85
-906.25,1.46484,-437.5,-0.0058622118915985,0.0476967068643514,-0.0085268060606182,-8.7,27.3,16.35,-332.03125,-26.36719,945.80078,0.0071944217096458,-0.0130566336012443,0.0832694840797242,83.55,0.45,80.55,-944.82422,99.12109,383.78906,-0.1181760691196108,-0.0123904414257581,-0.0594211306475485,60.9,22.5,9.75
-913.08594,-1.46484,-443.84766,0.0270459711547545,-0.0117244237831971,0.0399694361340717,-6.15,27.45,15.15,-308.59375,-17.08984,953.125,0.0126569532025376,-0.0157212277702641,0.0852680606061829,83.55,0.45,80.55,-961.42578,91.79688,373.04687,-0.1369617459905266,0.011191400229638,-0.0483628990398376,60.9,22.5,9.75
-906.73828,-4.88281,-449.21875,0.050761155965003,-0.013456313999951,0.0147886983509235,-8.25,26.4,16.5,-321.28906,-22.46094,972.16797,-0.0013323843509724,0.0367718184114929,0.1253706653621819,83.85,0.45,80.25,-922.36328,70.3125,367.1875,-0.1156446435725182,-0.0122572728038309,-0.0794058487145844,59.25,23.1,9.3
-902.83203,-12.69531,-444.82422,0.0085268060606182,0.0053291883380394,-0.0197182062902563,-9.3,26.4,15.75,-333.98437,-15.625,968.26172,0.0085268060606182,-0.0070612530877186,0.1091164140383586,82.65,0.75,80.4,-958.00781,83.00781,352.05078,-0.0872664625997164,-0.0648836621404404,-0.0535589187559499,59.25,23.1,9.3
-896.97266,-1.46484,-425.29297,0.0528927265804637,-0.063684446411395,0.0566231933236764,-9.3,26.4,15.75,-321.77734,-5.85937,939.94141,0.0051960197161123,-0.0433002224785777,0.1145789455312505,84.75,0.0,79.05,-927.73437,80.56641,379.88281,-0.1040535629441735,-0.0185191650941362,-0.0698131700797731,59.4,21.45,8.4
-897.94922,0.97656,-436.03516,0.0487625794385443,-0.0486294108166172,0.039569755735365,-9.3,27.45,14.4,-328.61328,-16.11328,956.54297,0.0182526533173567,-0.005595700114819,0.1080505414641657,84.6,-0.15,81.0,-939.94141,93.26172,366.21094,-0.0779402957416847,0.0251807377831481,-0.0944608843093623,58.35,21.75,7.65
-890.13672,0.97656,-451.66016,-0.0375711792089063,0.0266462907560478,0.0026645941690197,-6.9,27.45,15.45,-336.42578,-8.78906,942.38281,-0.0014655529728996,0.0326416712695735,0.0943277156874351,82.2,1.05,81.15,-936.03516,99.12109,365.72266,-0.0981913510525749,-0.0590214502488418,-0.0674150876875329,59.7,20.85,9.3
-893.55469,21.48438,-435.05859,0.0279785005740951,-0.020117886688963,0.0920628019171221,-7.2,27.15,15.75,-324.70703,-10.25391,936.03516,-0.0058622118915985,0.0077274452632048,0.1264363634034496,83.85,1.2,79.95,-926.26953,105.46875,357.91016,-0.1398928519363259,-0.0447657754514773,-0.0802052095119978,59.25,22.35,8.25
-881.34766,33.69141,-441.89453,0.0074609334864253,-0.0401026047559989,0.0790061683158777,-7.95,28.2,16.8,-326.17187,-9.27734,956.05469,0.0398360929792193,0.0626187483701273,0.1065849884912661,83.85,1.2,79.95,-939.45312,99.60938,378.90625,-0.1025880099712739,-0.0254472495599277,-0.0899310567687362,60.9,20.25,7.95
-883.30078,22.94922,-449.70703,-0.0907304175661496,0.043566559722432,0.0498284520127373,-7.95,28.2,16.8,-325.19531,-7.32422,970.70312,0.0170536121212365,0.0019984019935335,0.1019218177957876,82.05,0.45,78.9,-919.92187,113.28125,374.02344,-0.1634746935917221,-0.0043966589186989,-0.0836691644784309,59.4,21.45,9.0
-885.74219,32.22656,-444.33594,-0.0748760211739583,-0.0179861415405771,0.0944608843093623,-9.3,28.65,15.45,-333.00781,-6.34766,958.00781,0.0570230482553083,-0.0087933178373978,0.0945942274642146,83.55,1.65,79.95,-900.39062,134.27734,387.69531,-0.0640843013430269,-0.1360290420382608,-0.0251807377831481,59.4,21.45,9.0
-897.46094,38.08594,-429.19922,-0.0598208110462552,-0.0103920394322246,0.0676814249313873,-8.55,26.7,14.7,-313.96484,1.95312,962.40234,0.0230489926347623,0.0258469299586344,0.1398928519363259,83.1,1.2,79.95,-957.51953,97.65625,342.28516,-0.0896645449919567,-0.0909969293429291,-0.0794058487145844,58.35,20.7,7.95
-908.20312,7.32422,-450.19531,-0.1253706653621819,0.0254472495599277,-0.0179861415405771,-9.0,27.15,15.15,-332.03125,4.88281,971.67969,0.0867336135790826,0.0321086477160144,0.1413584049092255,83.1,1.2,79.95,-953.61328,105.46875,375.97656,-0.1303001733015146,-0.1009892883764471,-0.0784731447623186,61.2,22.5,7.95
-913.57422,25.87891,-451.66016,-0.0666155523571943,-0.0542251109314362,0.0423675185263119,-8.4,28.05,16.05,-317.38281,39.0625,976.5625,0.0534257501340228,-0.0353062654385932,0.1177763887209041,84.45,1.05,81.15,-930.66406,118.65234,380.37109,-0.1215068554641168,-0.0888651841945432,-0.0535589187559499,61.35,21.15,8.85
-927.24609,7.32422,-453.125,-0.0876661429984231,-0.0355727772153728,0.08420218803199,-8.25,27.45,15.15,-314.45312,15.625,973.14453,-0.0046631706954784,-0.0238483534321757,0.1594777150717298,83.7,0.0,80.85,-940.91797,109.86328,397.94922,-0.2079739572664199,-0.0506278128101507,-0.0827366350590903,59.1,20.7,8.4
-927.24609,16.11328,-443.84766,-0.114312433754471,-0.0566231933236764,0.0270459711547545,-7.2,26.7,15.75,-333.49609,3.41797,990.72266,-0.0301102457224809,-0.0158545709251164,0.1404257009569597,83.7,0.0,80.85,-956.54297,75.19531,365.72266,-0.3019019925551483,0.0165205885676775,-0.0981913510525749,58.95,20.85,11.4
-916.99219,22.46094,-436.52344,-0.0913966097416358,-0.032375159492794,0.0291777163031404,-9.0,27.45,16.2,-334.47266,10.25391,957.51953,0.045165455850184,-0.0238483534321757,0.1633415249697949,84.75,0.3,79.8,-934.57031,99.60938,384.76562,-0.2200980614483237,-0.0182526533173567,-0.1192419416938038,60.3,22.35,9.6
-900.39062,36.62109,-426.26953,-0.1071178375118999,-0.0480965617959833,0.032908183046353,-9.45,28.8,15.0,-332.03125,3.41797,941.89453,0.0760750623700784,-0.0799386977352182,0.1525498051388636,82.95,0.0,79.8,-960.44922,71.77734,389.64844,-0.2744563410016871,-0.0135896571548034,-0.0711455544307456,60.3,22.35,9.6
-887.69531,53.71094,-424.31641,-0.0297105653237742,-0.0759418937481512,0.0279785005740951,-9.45,28.8,15.0,-319.33594,11.23047,957.51953,0.036238969390859,-0.0131899767560967,0.1536156777130565,81.3,1.2,82.05,-958.00781,61.52344,392.08984,-0.2907105923255103,0.0227824808579827,-0.1301670046795875,58.95,21.15,8.85
-886.23047,70.80078,-416.99219,-0.0568897051004559,-0.0334410320669869,0.0299770771005538,-9.45,26.25,17.1,-345.70312,39.55078,952.14844,0.05475795995207,0.0,0.1782633919426456,81.3,1.2,82.05,-967.77344,38.08594,391.11328,-0.2863139334068114,0.0217166082837898,-0.061419532641082,60.3,20.85,10.35
-895.01953,55.66406,-402.34375,-0.0784731447623186,0.0046631706954784,-0.0293108849250675,-8.4,27.75,16.05,-343.26172,9.27734,1002.92969,-0.0499617951675896,-0.3241516243924973,0.1782633919426456,81.3,1.2,82.05,-929.6875,62.5,375.0,-0.3321454068995564,0.0255804181818548,-0.1137794102009119,59.25,20.55,10.35
-908.69141,59.08203,-416.99219,-0.0804717212887773,-0.0269126279999021,0.0409019655534123,-8.1,27.75,16.35,-309.57031,4.88281,1007.32422,-0.0386370517830992,-0.1874563901787501,0.1585451856523893,82.95,1.05,80.85,-933.10547,41.99219,399.41406,-0.285514572609398,-0.0608866836204481,-0.0552909835056291,60.75,20.85,8.55
-912.59766,51.26953,-416.50391,-0.1362955538150403,0.0373046674321268,0.0039969785199922,-7.95,27.15,15.45,-298.82812,8.78906,958.98437,-0.0731439564242791,-0.203577298347721,0.1826600508613445,84.45,1.8,80.4,-928.22266,61.03516,404.78516,-0.3058989710751406,-0.0103920394322246,-0.0760750623700784,60.75,20.85,10.35
-903.32031,30.27344,-412.10937,-0.1316323831195619,0.0079939570399844,-0.0119907610270514,-7.95,27.15,15.45,-315.42969,-1.46484,953.61328,-0.0983246942074273,-0.3088300770209398,0.1596110582265822,84.45,1.8,80.4,-924.80469,24.41406,395.01953,-0.2637977897926829,-0.0299770771005538,-0.0387702204050264,60.75,22.35,7.5
-918.45703,38.08594,-429.6875,-0.046897346066938,0.0129234649793172,0.0375711792089063,-7.95,27.15,16.2,-310.54687,-5.85937,967.28516,-0.0678147680862396,-0.219698381049617,0.1753322859968463,83.25,0.3,80.1,-928.71094,49.80469,415.52734,-0.2820506176429648,-0.0131899767560967,-0.0740764858436197,59.25,21.6,9.9
-906.25,49.31641,-408.69141,-0.1017886491738605,0.0309096065198943,-0.0266462907560478,-8.4,28.05,15.3,-307.61719,-12.20703,960.44922,-0.0539585991546566,-0.177330862523305,0.1585451856523893,80.85,1.8,80.4,-913.57422,39.0625,396.97266,-0.2912434413461441,0.0575558972759422,-0.0834028272345766,59.25,21.6,9.9
-907.71484,35.15625,-418.94531,-0.1067181571131932,0.0587549384720623,0.0159877395470436,-8.55,28.65,16.2,-303.22266,5.85937,972.16797,-0.0610198522423753,-0.1260366830047429,0.2127702965838255,81.9,1.8,79.35,-916.50391,-3.41797,395.50781,-0.2957734434196954,-0.015055210127703,-0.0578224090527217,60.15,21.45,9.75
-897.94922,39.0625,-400.39062,-0.0275788201753884,-0.0135896571548034,-0.0129234649793172,-8.55,28.65,16.2,-285.64453,-6.83594,958.49609,-0.039569755735365,-0.1079173728422385,0.1698697545039545,81.9,1.8,79.35,-918.94531,0.97656,402.34375,-0.2863139334068114,0.0755420388165193,-0.0190520141147701,60.15,21.45,9.75
-883.78906,44.92188,-403.80859,-0.0594211306475485,0.0247810573844414,0.0508943245869302,-7.95,29.7,15.15,-300.29297,9.27734,945.80078,-0.014522186574144,-0.0957932686603347,0.1048529237415869,82.2,3.3,80.4,-900.39062,4.39453,394.53125,-0.2255604184082903,0.0594211306475485,0.0318423104721601,58.95,21.6,10.65
-895.01953,66.89453,-412.59766,-0.0811377389313384,0.0827366350590903,-0.0161209081689708,-8.55,28.65,15.45,-289.55078,-12.69531,952.14844,-0.0504946441882235,-0.0523598775598298,0.1224395594163826,84.0,1.05,80.4,-910.64453,-14.16016,385.74219,-0.2280918439553829,0.0082602942838387,0.0492956029921034,60.0,22.35,10.65
-902.34375,83.98438,-408.69141,-0.0691469779042869,0.0289112045263608,0.0274456515534612,-9.3,28.95,16.2,-271.97266,-19.04297,948.73047,-0.0297105653237742,-0.0386370517830992,0.1279019163763492,81.9,1.5,80.85,-897.94922,-11.23047,387.69531,-0.1746660938213601,0.0215834396618626,-0.014522186574144,60.9,21.45,9.75
-901.85547,77.63672,-416.50391,-0.1135130729570576,0.0127901218244648,0.0258469299586344,-9.6,29.7,14.4,-284.17969,-22.94922,955.56641,-0.0463644970463041,0.0247810573844414,0.1181760691196108,84.15,1.95,80.55,-905.76172,-5.85937,397.94922,-0.1057856276938527,0.068081105330094,0.0053291883380394,59.7,21.6,8.55
-895.99609,65.42969,-413.57422,-0.1670719917130076,0.071944915228159,0.0117244237831971,-9.6,29.7,14.4,-285.64453,-43.94531,966.79687,-0.0230489926347623,0.0105252080541518,0.0414349891069713,83.1,3.15,82.05,-896.97266,-10.74219,376.46484,-0.1195084534705833,0.0779402957416847,0.0331745202902074,59.7,21.6,8.55
-904.29687,62.5,-415.52734,-0.0884655037958365,0.0221164632154217,-0.002264913770313,-7.95,27.9,16.2,-277.83203,-29.29688,962.89062,0.0191853572696224,0.029044373148288,0.0644839817417337,82.2,0.75,81.9,-888.67187,-29.78516,377.44141,-0.0682144484849463,0.1071178375118999,0.0039969785199922,59.4,21.75,9.45
-898.4375,41.99219,-417.48047,-0.0282450123508746,0.0293108849250675,0.007860613885132,-8.1,28.05,16.35,-283.69141,-22.46094,960.9375,0.0027979373238721,0.0275788201753884,0.0342403928644003,82.2,0.75,81.9,-922.85156,-4.88281,365.23437,-0.0628850856139816,0.1277687477544221,0.0245145456076619,59.4,21.75,9.45
-909.17969,45.41016,-440.91797,-0.0967257980796753,0.0495619402359577,-0.0006661921754862,-9.15,28.05,15.3,-303.22266,-30.76172,946.77734,0.0486294108166172,0.0391699008037331,-0.0026645941690197,82.05,1.95,82.35,-931.64062,6.34766,367.1875,0.0006661921754862,0.0798055291132911,0.0425006871482391,59.4,21.45,10.5
-879.88281,38.08594,-425.78125,-0.041834669505678,-0.0090596550812521,-0.0302434143444081,-9.15,28.05,15.3,-300.78125,-28.32031,953.61328,0.0482297304179105,0.079272505559732,-0.0050628510941851,83.7,2.55,80.4,-931.64062,0.97656,377.92969,0.0103920394322246,0.1470872736459717,0.0269126279999021,60.75,21.15,9.9
-885.74219,53.71094,-419.92187,-0.0118575924051242,-0.0275788201753884,0.0274456515534612,-7.95,28.95,15.3,-313.47656,-8.30078,974.60937,0.0494287716140306,0.0851347174513306,0.0038636353651398,82.35,1.2,81.75,-920.89844,2.92969,371.09375,0.0219831200605693,0.1021883295725672,0.016787100344457,58.95,21.6,9.6
-882.32422,49.80469,-421.875,-0.0606201718436686,0.0407687969314851,-0.0038636353651398,-7.95,28.95,15.75,-309.08203,-9.27734,976.5625,0.0500949637895168,0.0810045703094112,-0.0175864611418704,82.8,1.95,80.25,-933.59375,26.85547,382.8125,0.0576890658978693,0.1171101965454179,0.0631515973907612,60.6,21.75,10.05
-883.78906,62.98828,-433.59375,-0.0269126279999021,-0.0159877395470436,0.0249142260063686,-8.55,27.15,16.2,-309.57031,-8.78906,977.05078,0.0790061683158777,0.0690138092823597,-0.0089264864593249,83.25,2.25,80.4,-942.87109,41.99219,384.27734,0.0057288687367461,0.185724325429071,0.004529827540626,59.4,22.95,9.0
-903.32031,72.26563,-438.96484,0.0041301471419193,-0.0009327039522657,-0.0278453319521679,-9.0,28.65,15.75,-316.89453,-8.78906,978.02734,0.0828698036810175,0.1148452827751048,-0.0510274932088574,84.0,2.25,80.1,-953.125,50.78125,391.11328,-0.0109248884528585,0.177330862523305,0.040235773377926,61.2,20.7,9.0
-900.87891,67.87109,-438.96484,-0.058088746296576,0.0247810573844414,-0.0823369546603836,-8.55,29.7,15.45,-304.6875,1.46484,979.00391,0.0919296332951949,0.0594211306475485,-0.0579555776746489,84.0,2.25,80.1,-948.24219,32.71484,373.53516,-0.0317089673173077,0.1741332448007262,0.0307764378979672,61.2,20.7,9.0
-908.20312,54.19922,-447.75391,0.0083936374386911,-0.0231821612566894,-0.0286446927495813,-8.55,29.7,15.45,-318.35937,0.48828,976.5625,0.0648836621404404,0.0560903443030425,-0.0210505906412288,83.1,1.65,81.75,-938.47656,30.76172,381.83594,-0.0209172474863764,0.2046431709219139,0.0089264864593249,59.85,20.7,10.05
-926.26953,62.5,-448.24219,-0.0030642745677264,-0.0642174699649541,-0.0066615726890119,-7.5,27.15,16.2,-313.47656,0.48828,982.91016,0.0069280844657914,0.0378376909856858,-0.0885988469506889,82.35,0.15,80.25,-939.45312,30.27344,387.20703,0.0478300500192038,0.195183835441955,0.0398360929792193,60.15,21.75,10.8
-905.27344,54.6875,-445.3125,-0.0358392889921523,0.0041301471419193,-0.064750318985588,-8.25,27.45,15.15,-316.89453,-7.8125,963.86719,-0.0642174699649541,0.063684446411395,-0.0253139064050753,83.55,0.9,82.8,-949.70703,50.29297,361.32812,0.1085833904847996,0.1545482071323971,0.03064326927604,60.9,21.0,9.45
-923.82812,39.55078,-452.63672,-0.0005328490206338,-0.0608866836204481,0.0419678381276052,-8.7,28.5,15.6,-315.42969,-20.50781,952.63672,-0.041301645952119,0.1067181571131932,-0.0374380105869791,83.55,0.9,82.8,-934.08203,45.89844,374.02344,0.0235820161883213,0.17346705262524,0.0431668793237253,58.8,21.0,8.7
-901.36719,30.27344,-452.14844,0.0498284520127373,-0.0694134896810664,-0.0129234649793172,-8.7,28.5,15.6,-326.17187,-30.27344,961.42578,-0.0013323843509724,0.1882557509761635,-0.1061853080925594,82.65,1.05,81.15,-941.89453,46.875,364.25781,0.0804717212887773,0.2011792159554807,0.0514271736075641,58.8,21.0,8.7
-900.39062,23.92578,-458.49609,0.023981696587028,-0.0235820161883213,-0.0170536121212365,-7.5,28.2,16.8,-340.33203,-18.06641,979.98047,0.0496952833908101,0.19132002554389,-0.064750318985588,82.8,1.95,80.25,-951.66016,59.08203,361.32812,0.11990813386929,0.1557472483285172,0.0333078634450597,60.6,21.75,8.7
-902.34375,40.52734,-450.68359,0.0988575432280612,-0.0706125308771865,-0.0030642745677264,-7.95,28.65,16.5,-351.5625,-7.8125,969.23828,0.036238969390859,0.1211071750654101,-0.0638177895662474,82.8,1.95,80.25,-948.73047,69.33594,357.91016,0.0799386977352182,0.1356293616395541,0.0446324322966249,58.95,20.55,8.85
-893.06641,50.78125,-459.47266,0.1217733672408963,-0.0648836621404404,0.0043966589186989,-8.25,28.95,17.25,-339.84375,18.55469,984.86328,0.0370383301882724,0.0779402957416847,-0.1011224569983742,83.1,1.2,81.3,-960.44922,85.9375,349.12109,0.0884655037958365,0.1394931715376192,0.0872664625997164,58.95,20.55,8.85
-922.36328,54.6875,-445.3125,0.0146553551960711,-0.067015232755901,-0.0186523337160634,-8.55,28.2,15.75,-354.49219,28.80859,959.47266,-0.0115910806283447,0.0776737839649052,-0.0423675185263119,83.1,1.65,79.5,-953.61328,58.59375,372.55859,0.1059187963157798,0.0482297304179105,0.0530260697353161,58.5,21.6,7.8
-917.96875,80.56641,-442.87109,0.0287778613715085,-0.0903307371674429,0.0357059458372999,-8.55,28.2,15.75,-344.23828,21.97266,951.66016,-0.0163874199457503,0.0879326547752027,-0.0298437339457014,82.8,1.65,78.9,-943.35937,50.78125,371.09375,0.0754088701945922,0.0333078634450597,0.0586217698501351,60.75,21.6,9.6
-906.25,59.08203,-433.10547,0.0995237354035474,-0.0464976656682313,0.0357059458372999,-7.95,27.9,15.75,-333.49609,10.25391,965.82031,-0.0335742006889141,0.0483628990398376,-0.0794058487145844,82.8,1.65,78.9,-955.56641,58.59375,348.14453,0.0884655037958365,0.0373046674321268,0.0410353087082646,59.1,22.95,7.95
-921.875,45.89844,-435.05859,0.0531592383572432,-0.0373046674321268,-0.071944915228159,-8.25,28.65,16.2,-327.63672,0.0,969.23828,-0.0562235129249697,0.0901975685455157,-0.0979250138087206,82.8,1.65,78.9,-941.40625,82.03125,344.23828,0.0766079113907123,0.0482297304179105,0.0788728251610253,60.15,22.5,7.95
-906.25,57.61719,-439.45312,0.0321086477160144,-0.0818039311068246,-0.0353062654385932,-7.65,28.8,16.05,-337.40234,-22.46094,956.05469,-0.0126569532025376,0.0528927265804637,-0.0394364125805126,82.95,1.8,80.4,-947.26562,46.38672,348.14453,0.0586217698501351,-0.0087933178373978,0.0302434143444081,59.25,22.65,9.3
-899.90234,41.99219,-430.17578,0.0790061683158777,-0.0522267089379027,-0.0226493122360556,-7.65,28.8,16.05,-344.23828,2.44141,949.21875,-0.0070612530877186,0.0945942274642146,-0.050761155965003,84.15,0.9,80.55,-934.08203,93.75,342.28516,0.0452986244721112,0.0155880591483369,0.0726111074036452,58.5,22.65,9.3
-914.0625,48.33984,-435.05859,0.0169204434993094,-0.007860613885132,-0.0355727772153728,-9.3,28.2,15.75,-333.98437,-9.76562,947.26562,-0.0105252080541518,0.1131133925583509,-0.0879326547752027,84.15,0.9,80.55,-941.40625,79.58984,358.88672,0.0494287716140306,0.0143890179522168,0.1175098769441246,58.5,22.65,9.3
-900.39062,26.85547,-429.6875,0.0855343978500373,-0.0444992636746978,0.0101255276554451,-8.55,27.9,14.7,-355.95703,-0.97656,955.56641,0.0495619402359577,0.0664823837352672,-0.0503614755662963,83.1,1.2,80.25,-952.63672,83.98438,365.72266,0.0393032439585855,-0.0118575924051242,0.0877993116203503,60.0,21.15,9.3
-897.46094,49.31641,-422.85156,0.0991240550048407,-0.027312482931534,-0.0091929982361045,-8.25,28.95,15.75,-344.72656,15.13672,949.21875,0.0544916227082157,0.073676805444913,-0.0993905667816202,83.1,1.65,79.95,-930.66406,58.10547,350.09766,0.0274456515534612,-0.0163874199457503,0.0634181091675407,60.0,21.15,9.3
-891.60156,58.10547,-434.57031,0.0532925815120956,0.067015232755901,-0.0227824808579827,-8.7,27.75,16.65,-343.75,24.41406,958.00781,0.0414349891069713,0.0690138092823597,-0.0604870032217414,82.8,0.9,79.5,-936.52344,102.05078,349.12109,0.0377045223637587,-0.0331745202902074,0.1211071750654101,59.85,23.25,7.35
-894.04297,52.24609,-423.33984,0.1077840296873862,0.0189188454928429,-0.0832694840797242,-8.7,27.75,16.65,-335.44922,7.8125,963.37891,0.0546247913301429,0.0498284520127373,-0.0562235129249697,82.8,0.9,79.5,-943.84766,74.70703,334.47266,0.0814042507081179,0.016787100344457,0.0711455544307456,58.95,21.6,8.85
-911.62109,43.94531,-437.98828,0.0779402957416847,0.0486294108166172,-0.0333078634450597,-8.25,28.65,16.2,-334.47266,6.34766,967.28516,0.0217166082837898,0.0385038831611721,-0.0335742006889141,84.0,0.75,79.8,-948.24219,73.24219,365.23437,0.050761155965003,0.0027979373238721,0.0683476171068735,60.75,21.9,8.85
-893.06641,45.41016,-442.87109,0.0504946441882235,0.0476967068643514,-0.0433002224785777,-8.1,27.0,17.1,-325.19531,-8.78906,959.47266,-0.0001331686219271,0.0342403928644003,-0.069680001457846,84.45,1.8,78.6,-945.80078,66.40625,367.67578,0.0555574952824086,0.0026645941690197,0.0504946441882235,59.85,22.5,8.4
-920.89844,44.92188,-453.125,0.0459648166475974,0.0763415741468579,-0.0684807857288007,-8.7,30.3,17.1,-320.3125,-2.44141,976.5625,0.0351730968166661,0.0556906639043358,-0.037970859607613,81.75,0.45,79.95,-941.89453,76.66016,372.07031,0.0650168307623675,-0.0190520141147701,0.073676805444913,59.85,22.5,8.4
-913.57422,22.46094,-438.96484,0.0764747427687851,0.0274456515534612,-0.0059953805135257,-8.7,30.3,17.1,-334.96094,-17.08984,979.98047,0.0171867807431637,0.0327748398915007,-0.0523598775598298,83.55,0.45,81.0,-941.40625,59.57031,376.46484,0.0710122112758932,-0.0683476171068735,0.0539585991546566,59.7,21.9,8.85
-920.41016,24.41406,-443.35937,0.0401026047559989,0.0447657754514773,-0.0179861415405771,-9.0,27.9,16.5,-310.54687,-8.78906,964.84375,0.0385038831611721,0.0378376909856858,-0.0756753819713717,82.95,1.5,80.1,-943.84766,59.57031,373.53516,0.0652833425391471,-0.0358392889921523,0.0860674214035963,59.7,21.9,8.85
-905.76172,17.08984,-426.75781,0.0090596550812521,-0.0087933178373978,-0.0133231453780239,-10.05,26.1,16.2,-324.70703,1.95312,971.67969,0.0206509102425221,0.0454317930940384,-0.032908183046353,83.25,2.25,79.8,-940.91797,84.47266,392.57812,0.0988575432280612,0.0005328490206338,0.0999234158022541,58.8,21.45,7.95
-907.22656,50.29297,-413.08594,0.0658161915597809,0.0062618922903052,-0.0054625314928918,-8.4,28.8,15.6,-340.82031,26.36719,977.53906,0.0173201238980161,0.0261132672024887,-0.0310429496747467,83.25,2.25,79.8,-955.56641,84.47266,360.83984,0.0800720408900706,-0.0269126279999021,0.0285115241276541,58.5,21.9,9.3
-894.53125,53.71094,-408.69141,0.0087933178373978,0.0414349891069713,-0.005595700114819,-8.4,28.5,15.3,-326.66016,28.32031,956.54297,0.0235820161883213,-0.0275788201753884,-0.0390367321818059,82.05,1.2,79.2,-942.38281,49.80469,369.62891,0.0178529729186499,0.0158545709251164,-0.0082602942838387,60.0,23.1,8.85
-887.69531,51.26953,-400.39062,-0.0238483534321757,0.0179861415405771,0.0082602942838387,-8.4,28.5,15.3,-307.61719,31.73828,946.77734,-0.0137228257767306,0.0447657754514773,-0.060753514998521,82.65,0.75,80.85,-946.77734,72.26563,399.41406,0.0158545709251164,-0.0254472495599277,0.0094593354799588,58.95,21.6,8.55
-895.99609,51.75781,-421.38672,0.0616860444178615,-0.0202512298438154,0.0319754790940873,-8.7,28.5,16.35,-315.91797,38.08594,972.65625,0.0338407124656936,-0.0241148652089552,-0.0421010067495324,83.1,1.2,79.95,-921.38672,64.45313,394.04297,0.0314426300734534,0.0149218669728507,0.0291777163031404,58.95,21.6,8.55
-883.30078,41.01563,-427.24609,-0.0287778613715085,0.0571562168772355,0.0185191650941362,-9.0,27.9,15.45,-321.77734,20.99609,973.63281,-0.0281118437289474,0.0197182062902563,0.0018652333716063,83.55,1.2,80.55,-930.17578,97.65625,366.21094,0.0640843013430269,0.0162542513238231,0.0354394340605204,59.7,23.1,7.2
-892.57812,23.92578,-428.22266,-0.0554241521275563,0.0464976656682313,-0.0716784034513795,-9.15,27.3,17.1,-317.38281,23.92578,966.79687,0.0121241041819038,0.0281118437289474,-0.0450321126953316,83.25,0.3,79.8,-925.29297,76.66016,372.55859,0.1023216727274195,0.0039969785199922,0.032375159492794,59.85,22.5,9.45
-902.34375,42.96875,-431.15234,0.0127901218244648,0.0069280844657914,-0.0097258472567384,-9.15,27.3,17.1,-311.52344,14.64844,958.98437,0.0011990411961201,0.0595542992694757,-0.0141225061754373,83.1,0.45,78.45,-937.5,73.73047,365.23437,0.1016554805519333,0.022382800459276,0.0667488955120467,59.85,22.5,9.45
-911.13281,41.01563,-446.28906,-0.0367718184114929,0.0603538345998143,-0.0318423104721601,-7.95,27.3,17.1,-324.70703,23.92578,959.47266,-0.0182526533173567,0.0462311538914518,-0.05475795995207,83.1,0.45,78.45,-942.38281,64.94141,374.51172,0.0976585020319411,-0.0009327039522657,0.0018652333716063,59.4,23.7,9.45
-891.11328,54.19922,-432.12891,0.0039969785199922,0.0655498543159266,-0.0265129476011954,-7.95,28.65,15.75,-331.05469,14.64844,989.74609,-0.057422728654015,0.0532925815120956,0.0046631706954784,82.95,1.8,80.1,-935.05859,57.61719,375.97656,0.1420244225517865,0.0643506385868813,0.0806048899107045,59.25,22.35,8.55
-905.27344,52.73438,-432.12891,0.0261132672024887,0.0206509102425221,0.032908183046353,-9.9,28.05,16.05,-330.07812,2.44141,958.00781,0.0358392889921523,0.0081271256619115,-0.055823832526263,83.55,0.9,79.2,-930.17578,57.61719,376.46484,0.1185757495183175,-0.0174532925199432,0.059687642424328,58.95,23.1,7.8
-891.60156,73.24219,-438.96484,-0.0298437339457014,0.0,-0.0305099261211876,-7.35,29.25,16.05,-319.33594,17.08984,945.3125,0.0498284520127373,0.0608866836204481,-0.0025314255470925,83.55,0.45,78.45,-941.40625,39.0625,379.88281,0.1079173728422385,-0.0137228257767306,0.0455651362488907,60.3,23.85,7.8
-885.74219,57.61719,-422.85156,-0.0843353566539172,0.0193185258915496,-0.0339738810876208,-10.5,27.0,16.65,-317.87109,13.18359,982.42187,-0.0129234649793172,0.0178529729186499,-0.0482297304179105,83.55,0.45,78.45,-964.35547,56.15234,393.55469,0.1973154060574157,-0.005595700114819,0.0528927265804637,59.85,22.2,9.45
-895.50781,42.96875,-433.10547,-0.0345069046411798,-0.0351730968166661,0.0202512298438154,-10.5,27.0,16.65,-318.84766,2.44141,972.65625,0.0015987215948268,0.0051960197161123,-0.0350397536618137,82.65,0.3,80.1,-940.42969,52.73438,406.25,0.2687274722649409,-0.0567565364785288,0.0443659205198454,58.5,21.15,9.3
-890.625,53.71094,-429.6875,-0.046897346066938,-0.0286446927495813,-0.0070612530877186,-8.25,26.4,17.25,-328.125,25.87891,970.70312,0.0057288687367461,0.0170536121212365,-0.0566231933236764,85.05,0.3,78.3,-953.125,85.9375,392.08984,0.1938514510909826,-0.0159877395470436,0.0258469299586344,58.5,21.15,9.3
-888.18359,62.01172,-434.57031,-0.0920628019171221,-0.0007993607974134,-0.0389035635598788,-8.7,29.25,16.65,-294.43359,12.69531,968.75,-0.0098591904115907,0.0755420388165193,-0.0446324322966249,85.05,0.3,78.3,-949.21875,72.26563,390.13672,0.2307564381244027,-0.0426340303030914,0.0101255276554451,60.0,22.65,7.5
-892.57812,36.62109,-429.6875,-0.0042633157638465,-0.014522186574144,0.0456983048708179,-7.95,27.9,16.2,-354.49219,8.30078,957.03125,-0.0684807857288007,0.0211837592631559,-0.0494287716140306,83.55,1.95,79.95,-944.33594,147.94922,388.18359,0.2624655799746356,-0.0599539796681824,0.1019218177957876,59.1,23.7,8.7
-897.46094,48.82813,-436.52344,-0.0779402957416847,-0.0169204434993094,-0.0867336135790826,-7.95,27.9,16.2,-325.19531,3.41797,995.60547,0.0074609334864253,0.0767412545455646,-0.0873996312216436,83.25,1.8,79.05,-959.47266,105.46875,391.11328,0.2146355299554318,-0.0634181091675407,0.0881991665519822,60.75,23.1,8.85
-882.8125,52.24609,-423.82812,-0.0287778613715085,-0.0567565364785288,0.0355727772153728,-8.7,27.0,17.4,-340.33203,0.48828,992.67578,0.0059953805135257,0.0237151848102485,-0.1060521394706322,85.05,-0.75,79.8,-953.61328,113.28125,390.625,0.2390169069411666,-0.0261132672024887,0.0141225061754373,61.2,22.95,8.7
-866.69922,47.36328,-420.89844,-0.013456313999951,-0.0265129476011954,0.0049295079393327,-9.6,27.9,15.45,-341.30859,-10.25391,958.00781,-0.027312482931534,-0.0250473946282958,-0.0672817445326806,85.05,-0.75,79.8,-938.96484,79.10156,371.09375,0.2526063895630449,-0.0151883787496302,0.0406354537766327,60.15,21.0,7.95
-874.51172,59.57031,-419.92187,-0.0646171503636608,0.0189188454928429,-0.0209172474863764,-9.3,27.45,15.75,-317.87109,-17.08984,960.44922,-0.0258469299586344,-0.0455651362488907,-0.0552909835056291,82.2,2.25,79.8,-947.26562,94.23828,359.375,0.2620658995759289,0.0089264864593249,0.0341072242424731,59.25,22.35,9.9
-875.97656,61.03516,-423.82812,-0.0385038831611721,-0.0079939570399844,-0.0034639549664331,-7.65,28.05,16.05,-325.19531,9.76562,960.9375,0.0391699008037331,-0.0357059458372999,-0.0217166082837898,84.15,0.45,79.2,-917.96875,106.44531,355.95703,0.2238285281915364,0.0294440535469947,0.0266462907560478,59.25,22.35,9.9
-879.88281,61.52344,-428.71094,0.0295773967018471,-0.0632847660126884,0.0759418937481512,-7.65,28.05,16.05,-307.12891,4.88281,968.26172,-0.0554241521275563,-0.0961929490590414,-0.052493046181757,84.15,0.45,79.2,-912.59766,123.04688,349.12109,0.2248944007657293,0.0171867807431637,0.0243813769857347,58.95,22.35,9.3
-889.64844,76.17188,-438.96484,-0.057422728654015,0.0043966589186989,-0.0462311538914518,-8.1,27.75,16.35,-291.50391,13.18359,968.26172,-0.0682144484849463,-0.060753514998521,-0.031309286918601,84.15,0.45,79.2,-919.43359,120.60547,361.81641,0.1939846197129097,0.0586217698501351,0.0253139064050753,58.95,22.35,9.3
-897.94922,52.24609,-448.73047,-0.08420218803199,-0.050228132411444,-0.025713586803782,-7.5,26.7,16.5,-313.47656,1.95312,940.91797,-0.0774072721881257,-0.023448673033469,-0.0250473946282958,82.95,0.3,80.4,-911.62109,107.91016,337.40234,0.1658729505168874,0.0995237354035474,0.0488959225933967,59.4,22.5,7.65
-916.99219,61.52344,-452.14844,-0.0073277648644981,-0.1115144964305989,-0.041301645952119,-8.25,27.9,16.5,-321.77734,0.97656,949.70703,-0.0563568560798221,0.0426340303030914,-0.0654165111610742,83.25,1.5,80.4,-904.78516,93.26172,338.37891,0.1978484296109748,0.0588882816269146,0.0397029243572922,60.15,24.0,8.7
-918.45703,61.52344,-443.84766,-0.0209172474863764,-0.06634921511334,-0.031309286918601,-8.7,27.0,15.3,-343.75,-28.32031,928.71094,-0.0836691644784309,0.0414349891069713,-0.0246477142295891,82.95,0.75,79.8,-931.64062,67.87109,366.21094,0.2178331476780106,0.0321086477160144,0.0672817445326806,58.95,22.35,7.8
-898.4375,55.17578,-428.71094,-0.0270459711547545,-0.0552909835056291,-0.0635512777894679,-8.7,27.75,17.1,-349.60937,-28.80859,960.44922,0.0039969785199922,-0.0118575924051242,-0.113246561180278,82.95,0.75,79.8,-920.89844,100.58594,348.14453,0.2176998045231583,0.0175864611418704,0.0410353087082646,58.95,21.9,7.8
-894.04297,55.66406,-439.45312,0.034640073263107,-0.1119141768293056,0.0071944217096458,-9.0,27.15,15.75,-328.61328,-37.59766,980.95703,-0.0283781809728018,0.0130566336012443,-0.1039203943222463,83.7,1.05,79.05,-946.77734,121.09375,367.67578,0.2063752356715931,0.0209172474863764,0.0883323351739094,58.95,21.9,7.8
-900.39062,51.26953,-443.35937,0.0266462907560478,-0.0347734164179594,-0.073676805444913,-8.7,28.05,16.65,-351.5625,-13.18359,960.9375,-0.037970859607613,0.0704793622552594,-0.077540615342978,83.25,0.3,80.4,-922.36328,118.65234,326.17187,0.1781302233207184,0.0720780838500862,0.0659495347146333,58.95,21.9,7.8
-901.36719,57.12891,-444.82422,0.0226493122360556,-0.0526263893366094,-0.0354394340605204,-8.25,26.4,16.2,-334.47266,-29.29688,972.16797,-0.0851347174513306,-0.0203843984657425,-0.1180429004976836,82.65,-0.3,80.1,-929.6875,107.91016,356.44531,0.1576124817001235,0.0804717212887773,0.059154618870769,58.95,22.35,8.85
-903.32031,66.40625,-424.80469,0.0905972489442224,-0.0956601000384076,-0.054091942309509,-8.25,26.4,16.2,-347.65625,-15.13672,961.91406,-0.0163874199457503,-0.0030642745677264,-0.0907304175661496,83.1,0.9,79.95,-934.57031,92.28516,347.65625,0.1640077171452811,0.075275701572665,0.1077840296873862,58.95,22.35,8.85
-904.29687,59.08203,-422.36328,0.0138559943986577,-0.0671485759107534,-0.0177198042967228,-9.9,28.5,16.65,-346.67969,-32.71484,925.29297,0.0033307863445059,-0.0133231453780239,-0.1295008125041012,84.0,0.0,79.05,-943.35937,104.98047,349.60937,0.1541485267336904,0.1621424837736748,0.0510274932088574,59.85,24.0,7.65
-914.55078,62.5,-428.22266,0.0251807377831481,-0.0640843013430269,-0.0999234158022541,-7.5,28.2,16.5,-339.35547,-45.89844,947.75391,0.0006661921754862,-0.0166539317225298,-0.1474869540446784,82.8,0.15,79.2,-948.24219,113.28125,345.21484,0.2022450885296737,0.0470306892217904,0.1201746456460695,59.25,21.6,8.55
-906.25,51.26953,-428.22266,0.1016554805519333,-0.0896645449919567,-0.0684807857288007,-7.65,27.0,16.35,-343.75,-51.75781,961.42578,-0.0198513749121835,0.0322419908708668,-0.1620091406188224,82.8,0.15,79.2,-960.44922,88.37891,363.76953,0.1799954566923248,0.0654165111610742,0.1005896079777403,59.4,22.5,7.35
-923.82812,63.47656,-431.15234,0.0659495347146333,-0.0135896571548034,-0.107650861065459,-9.0,27.45,16.5,-351.07422,-36.13281,944.82422,0.0278453319521679,0.0383705400063197,-0.1406922127337393,82.2,0.0,80.4,-930.17578,98.14453,353.02734,0.1481531462201646,0.0771409349442713,0.1322985752950481,59.1,23.25,7.95
-914.55078,51.26953,-429.6875,0.0642174699649541,0.0207840788644492,-0.0819372742616769,-9.0,27.45,16.5,-344.23828,-63.47656,931.64062,0.0405022851547056,0.0333078634450597,-0.1644073975439878,84.45,0.3,80.4,-970.70312,112.30469,349.12109,0.1649402465646217,0.0831363154577971,0.1326982556937548,58.35,22.95,6.6
-918.45703,44.92188,-432.61719,0.1438898304563181,-0.0193185258915496,-0.0660827033365605,-9.0,26.7,15.45,-336.91406,-29.78516,981.44531,0.0604870032217414,0.041834669505678,-0.1692037368613934,81.0,0.15,79.95,-952.14844,117.67578,360.35156,0.1406922127337393,0.0042633157638465,0.1376279381660128,58.8,23.25,7.35
-902.34375,43.94531,-422.85156,0.0992572236267679,0.0066615726890119,-0.085934078248744,-7.5,27.45,16.2,-370.11719,-40.03906,945.80078,0.087532974376496,0.10205516095064,-0.2178331476780106,85.05,0.3,79.35,-967.77344,94.72656,359.86328,0.1817273469090787,0.0500949637895168,0.1352296812408474,58.8,23.25,7.35
-892.57812,44.43359,-425.29297,0.0774072721881257,0.0436999028772844,-0.0815375938629702,-7.65,28.5,16.65,-367.67578,-44.43359,933.59375,0.0538254305327295,0.0666155523571943,-0.1637412053685016,83.1,0.9,79.5,-956.05469,100.58594,365.23437,0.1394931715376192,0.025713586803782,0.1005896079777403,59.7,22.35,7.5
-861.81641,41.01563,-412.10937,0.1329647674705344,0.0287778613715085,-0.0684807857288007,-7.65,28.5,16.65,-350.58594,-70.80078,966.30859,0.0976585020319411,0.0149218669728507,-0.2435467344817927,84.0,0.75,79.35,-972.65625,114.74609,346.19141,0.1863905176045572,0.0225161436141284,0.1360290420382608,59.7,23.4,6.75
-876.46484,34.17969,-414.0625,0.0967257980796753,0.0851347174513306,-0.1598775700033617,-7.65,27.75,17.1,-331.54297,-62.98828,954.58984,0.1145789455312505,0.0371714988101996,-0.2119709357864121,84.0,0.75,79.35,-961.42578,80.56641,349.12109,0.1954501726858094,-0.0097258472567384,0.172401180051047,58.2,22.65,7.5
-883.78906,22.94922,-428.22266,0.1092495826602858,0.1160443239712249,-0.0847350370526239,-7.5,26.7,17.85,-354.00391,-41.50391,965.33203,0.1313660458757076,0.0221164632154217,-0.2079739572664199,84.0,0.3,78.3,-924.80469,117.1875,337.40234,0.2256937615631427,-0.0443659205198454,0.1696034172601001,58.8,24.0,7.95
-895.50781,16.60156,-426.26953,0.1702694349026612,0.0639509581881746,-0.0584886012282079,-7.65,28.05,15.0,-345.70312,-29.78516,958.98437,0.1069846688899728,0.0079939570399844,-0.2399494363605072,83.55,-0.45,79.2,-917.96875,79.58984,350.09766,0.225960098806997,-0.0873996312216436,0.1193751103157309,60.0,21.9,7.8
-892.57812,8.30078,-430.66406,0.1546815502872494,0.0486294108166172,-0.0671485759107534,-9.3,26.4,15.15,-338.37891,-13.67187,944.82422,0.1184425808963904,0.0027979373238721,-0.2335543754482748,83.85,0.15,78.15,-924.31641,130.85937,341.79687,0.2815175940894058,-0.1272358987337882,0.1672051603349347,58.2,22.35,6.15
-897.46094,12.69531,-459.47266,0.1179097318757565,0.0646171503636608,-0.1963828766380752,-9.3,26.4,15.15,-331.54297,-28.32031,929.6875,0.1184425808963904,-0.029044373148288,-0.2478100502456393,83.85,0.15,78.15,-920.89844,128.41797,333.00781,0.232621671496009,-0.0373046674321268,0.1036538825454668,58.2,22.35,6.15
-898.4375,-11.23047,-447.26562,0.216367594705111,0.0530260697353161,-0.113246561180278,-7.35,27.75,16.35,-323.24219,9.76562,942.38281,0.1585451856523893,-0.0233155044115418,-0.210771894590292,84.75,0.0,78.6,-907.22656,154.29687,354.00391,0.2583354328327162,-0.0732771250462063,0.0567565364785288,60.0,23.4,7.2
-900.87891,-25.87891,-451.66016,0.1614762915981885,0.0018652333716063,-0.0450321126953316,-8.25,26.4,16.35,-319.82422,-4.88281,967.28516,0.1582786738756097,0.0207840788644492,-0.1536156777130565,84.0,-0.3,79.05,-903.32031,161.62109,356.93359,0.2804517215152128,-0.0474303696204971,0.1035207139235396,58.2,24.15,7.5
-925.78125,-23.4375,-446.28906,0.1536156777130565,-0.0026645941690197,-0.0854012292281101,-8.25,26.4,15.75,-294.43359,7.8125,974.60937,0.2350199284211744,0.242081181508893,-0.2199647182934713,84.0,-0.3,79.05,-903.32031,147.94922,354.49219,0.2813844254674786,-0.0612863640191548,0.0925956509377559,59.4,24.75,7.35
-920.89844,-32.22656,-428.71094,0.1608100994227023,-0.0475635382424242,-0.0322419908708668,-8.25,27.9,16.2,-333.00781,-6.34766,967.28516,0.171202138854927,0.0794058487145844,-0.2010458728006284,82.95,-1.5,79.35,-898.92578,159.66797,349.60937,0.2969724846158156,-0.0301102457224809,0.1035207139235396,58.35,23.25,7.95
-936.52344,-30.76172,-420.89844,0.1947841550432483,-0.1004564393558132,-0.0003996803987067,-8.25,27.9,16.2,-305.17578,-24.41406,980.95703,0.1692037368613934,0.0880658233971298,-0.2444792639011333,84.15,-2.4,79.5,-898.92578,170.89844,350.09766,0.3229525831963771,-0.0335742006889141,0.1128468807815713,59.1,24.0,8.4
-934.08203,-22.94922,-431.15234,0.1271025555789358,-0.0214502710399355,-0.0075941021083525,-7.65,26.25,16.05,-299.80469,-28.32031,968.75,0.1897213039490632,0.0867336135790826,-0.1882557509761635,85.65,-1.2,78.9,-909.17969,164.0625,320.3125,0.2527397327178972,0.0326416712695735,0.1157779867273706,57.6,23.7,8.7
-919.92187,-15.13672,-419.43359,0.1248376418086228,-0.1051194355183664,-0.0093261668580317,-8.1,27.0,16.35,-316.89453,-4.88281,973.63281,0.1863905176045572,0.0450321126953316,-0.1777305429220118,85.65,-1.2,78.9,-935.54687,175.29297,308.10547,0.2099723592599534,0.0422343499043847,0.042900542079871,57.6,23.7,8.7
-914.0625,-39.0625,-416.50391,0.1219065358628235,-0.1017886491738605,0.0667488955120467,-8.25,26.4,16.2,-318.84766,-10.74219,939.94141,0.164540566165915,0.0550244717288496,-0.1472204422678988,83.1,-1.65,79.2,-907.71484,169.43359,347.65625,0.1917197059425967,0.0169204434993094,0.0551578148837019,57.6,23.7,8.7
-918.45703,-23.4375,-407.22656,0.1033873707686873,-0.0390367321818059,-0.0151883787496302,-8.7,25.8,15.0,-332.51953,27.34375,964.84375,0.1095160944370653,0.0409019655534123,-0.1241714496331365,83.55,-1.65,78.45,-909.17969,174.31641,353.51562,0.1830597312600512,-0.0009327039522657,0.0390367321818059,59.25,23.1,8.25
-918.94531,-38.57422,-404.29687,0.1275022359776425,-0.0860674214035963,0.0391699008037331,-8.7,25.8,15.0,-330.56641,28.32031,976.5625,0.0975253334100139,0.0563568560798221,-0.0695466583029936,83.55,-1.65,78.45,-935.54687,186.03516,325.19531,0.1291011321053945,0.0067947413109391,0.0407687969314851,59.25,23.1,8.25
-913.57422,-23.92578,-414.0625,0.1273690673557154,-0.0780734643636119,0.0744763407752516,-7.5,25.35,16.8,-344.23828,41.99219,966.79687,0.0578224090527217,0.0834028272345766,-0.0872664625997164,83.25,-2.25,79.05,-934.57031,185.05859,335.9375,0.1087167336396519,-0.0087933178373978,0.023981696587028,59.85,23.25,8.4
-916.99219,0.97656,-406.25,0.0619525561946411,-0.0314426300734534,-0.0007993607974134,-7.05,26.55,16.05,-340.82031,40.52734,960.44922,0.0365053066347134,0.0411684773301918,-0.0783399761403914,83.1,0.15,77.4,-933.59375,203.61328,362.30469,0.1161776671260773,-0.0358392889921523,-0.0065284040670847,58.2,23.4,7.2
-914.0625,-12.69531,-399.90234,0.067015232755901,-0.0723445956268657,0.08420218803199,-8.25,25.65,15.75,-324.70703,32.22656,971.67969,0.0158545709251164,0.0190520141147701,-0.0718115720733066,84.9,-0.45,78.9,-942.87109,183.59375,343.75,0.0444992636746978,0.0025314255470925,-0.0450321126953316,60.0,24.15,6.45
-915.03906,-4.39453,-405.27344,0.0955267568835552,-0.0074609334864253,0.0590214502488418,-8.25,25.65,15.75,-339.35547,26.36719,967.28516,-0.0129234649793172,0.0021317451483858,-0.0143890179522168,84.9,-0.45,78.9,-937.01172,190.42969,339.35547,0.0110582316077108,0.0407687969314851,-0.0707458740320389,58.35,23.25,7.95
-911.62109,-9.27734,-411.62109,-0.0527595579585365,0.0815375938629702,-0.0049295079393327,-8.25,26.4,17.55,-333.49609,14.64844,955.07812,-0.016787100344457,0.0085268060606182,0.0255804181818548,84.9,-0.45,78.9,-919.92187,210.44922,354.98047,-0.0021317451483858,-0.0163874199457503,-0.0514271736075641,58.35,23.25,7.95
-912.59766,-18.55469,-421.875,0.0190520141147701,-0.0191853572696224,0.0325085026476463,-7.65,25.8,15.6,-349.60937,26.85547,955.07812,-0.0146553551960711,0.064750318985588,0.0474303696204971,84.0,-1.5,78.3,-942.38281,208.00781,347.16797,-0.037970859607613,0.0221164632154217,-0.1049862668964393,58.8,24.0,7.35
-916.01562,0.97656,-426.75781,0.0138559943986577,0.0409019655534123,0.0460979852695246,-7.35,26.25,15.6,-347.16797,21.48438,970.70312,-0.0219831200605693,0.0494287716140306,0.0091929982361045,83.55,-0.45,78.15,-935.05859,174.80469,358.39844,-0.077007591789419,0.0289112045263608,-0.0977916706538682,58.8,24.0,7.35
-921.38672,3.41797,-422.36328,-0.071944915228159,0.0515605167624164,-0.0007993607974134,-9.0,25.65,18.3,-350.58594,9.76562,939.94141,-0.0619525561946411,0.0095926786348112,0.0353062654385932,85.05,-0.3,78.6,-949.70703,197.26562,381.83594,-0.0952604196397009,-0.0107917198309313,-0.0623522365933478,59.4,23.25,8.7
-917.96875,-3.90625,-431.64062,-0.0539585991546566,0.0602204914449619,0.0202512298438154,-9.0,25.65,18.3,-337.89062,13.67187,961.42578,-0.0399694361340717,-0.0286446927495813,0.079272505559732,82.8,-0.9,78.15,-948.24219,177.24609,367.67578,-0.1012558001532266,0.0003996803987067,-0.1039203943222463,59.25,21.9,7.5
