IMU1_AccX,IMU1_AccY,IMU1_AccZ,IMU1_GyrX,IMU1_GyrY,IMU1_GyrZ,IMU1_MagX,IMU1_MagY,IMU1_MagZ,IMU2_AccX,IMU2_AccY,IMU2_AccZ,IMU2_GyrX,IMU2_GyrY,IMU2_GyrZ,IMU2_MagX,IMU2_MagY,IMU2_MagZ,IMU3_AccX,IMU3_AccY,IMU3_AccZ,IMU3_GyrX,IMU3_GyrY,IMU3_GyrZ,IMU3_MagX,IMU3_MagY,IMU3_MagZ
-906.73828,-32.71484,-373.04687,-0.0023980823922402,-0.037970859607613,0.036238969390859,-4.35,26.1,22.5,-111.32813,-77.63672,971.67969,0.0728774446474996,0.0255804181818548,0.0832694840797242,70.5,5.4,86.7,-822.26562,61.03516,517.57812,-0.0888651841945432,-0.0562235129249697,0.0019984019935335,58.95,23.1,20.85
-918.94531,-29.78516,-374.02344,-0.0326416712695735,0.0222496318373489,-0.0762082309920056,-4.35,26.1,22.5,-114.74609,-65.91797,974.60937,0.0639509581881746,0.0715452348294523,0.1001899275790336,70.5,5.4,86.7,-827.63672,27.34375,530.27344,-0.1785299037194251,0.0009327039522657,0.0298437339457014,57.15,22.65,21.15
-924.31641,-26.36719,-369.62891,-0.0531592383572432,0.0146553551960711,-0.0261132672024887,-4.35,26.1,22.5,-102.05078,-102.05078,993.65234,0.0893982077481023,0.0929953313364626,0.0747426780191059,72.6,4.2,87.75,-830.56641,29.78516,526.36719,-0.1997136629825811,-0.0025314255470925,0.0492956029921034,56.7,23.85,21.9
-925.78125,-30.76172,-375.48828,-0.0309096065198943,0.0054625314928918,0.0067947413109391,-6.45,25.35,22.8,-120.11719,-80.56641,977.05078,0.1243047927879889,0.1156446435725182,0.0460979852695246,70.8,5.7,87.75,-848.63281,25.87891,547.36328,-0.2067749160702998,-0.0005328490206338,0.0616860444178615,58.2,21.6,23.25
-920.41016,-4.39453,-367.67578,-0.0570230482553083,0.0334410320669869,-0.0151883787496302,-5.4,25.65,23.1,-113.28125,-103.51563,1010.74219,0.1680045211323481,0.0612863640191548,0.004529827540626,70.65,4.8,86.55,-849.60937,24.90234,563.96484,-0.209706022016099,-0.0065284040670847,0.0227824808579827,58.2,21.6,23.25
-920.41016,6.34766,-372.55859,-0.0800720408900706,0.0347734164179594,-0.0238483534321757,-5.4,26.4,22.05,-112.30469,-41.01563,1004.88281,0.1666723113143009,0.1345634890653612,0.0683476171068735,70.65,3.75,87.6,-856.44531,19.53125,526.36719,-0.1373614263892333,-0.0330413516682802,0.0588882816269146,58.8,21.75,22.5
-920.89844,-11.23047,-375.97656,-0.0342403928644003,0.0065284040670847,0.029044373148288,-6.3,25.8,21.9,-107.91016,-58.10547,1022.94922,0.1613431229762614,0.113246561180278,0.0587549384720623,73.05,5.4,87.0,-851.5625,28.80859,559.57031,-0.1328315988486072,0.0029311059457992,0.0599539796681824,58.8,21.75,22.5
-930.17578,-12.20703,-380.37109,-0.0688804661275074,0.0419678381276052,-0.063018428768834,-6.3,25.8,21.9,-134.27734,-25.87891,1047.85156,0.1061853080925594,0.128834620328615,0.093128674491315,73.5,6.3,87.15,-851.07422,45.41016,553.71094,-0.1272358987337882,0.0612863640191548,0.0446324322966249,57.0,23.25,23.1
-973.63281,-11.71875,-397.46094,-0.0727442760255724,0.0572893854991626,0.0423675185263119,-5.25,25.05,21.9,-124.51172,-31.25,1062.98828,0.0844685252758443,0.1402925323350325,0.0756753819713717,73.5,6.3,87.15,-867.67578,55.66406,544.92187,-0.0957932686603347,0.0059953805135257,0.0443659205198454,57.3,23.25,22.05
-992.67578,-35.15625,-395.50781,0.0042633157638465,-0.0038636353651398,-0.016787100344457,-6.45,23.85,23.1,-137.20703,-22.94922,1071.77734,0.0762082309920056,0.0939280352887284,0.1409587245105188,71.7,4.5,86.55,-860.83984,46.875,573.24219,-0.243147054083086,0.0479632186411309,0.0303767574992605,58.35,22.95,23.55
-1014.64844,-31.25,-391.60156,-0.0178529729186499,0.0471638578437175,-0.0255804181818548,-5.25,26.25,22.65,-183.59375,-31.73828,1004.39453,0.0523598775598298,0.4268729775186235,0.0923293136939016,72.3,4.2,87.0,-872.07031,20.01953,547.85156,-0.2176998045231583,0.0165205885676775,0.0945942274642146,57.45,22.65,21.15
-1017.57812,-31.25,-400.39062,-0.0123904414257581,-0.0147886983509235,-0.0121241041819038,-6.0,24.75,20.55,-142.08984,-26.36719,1015.13672,0.0094593354799588,0.176797838969746,0.1817273469090787,72.3,5.4,85.95,-876.95312,11.71875,568.35937,-0.2607335152249564,0.0207840788644492,0.1340306400447273,57.9,23.85,22.95
-989.74609,-27.83203,-397.94922,0.0417013263508257,-0.0421010067495324,0.0197182062902563,-6.0,24.75,20.55,-124.51172,-83.00781,1008.78906,-0.0166539317225298,0.1950504922871027,0.1869233666251911,72.3,5.4,85.95,-863.76953,-16.60156,545.89844,-0.2737901488262009,-0.0394364125805126,0.0778071271197576,57.0,23.25,23.55
-981.93359,-32.22656,-390.13672,-0.0002665117767795,-0.0233155044115418,-0.0523598775598298,-5.55,25.05,23.25,-120.11719,-76.17188,1025.39063,0.0171867807431637,0.2328881832727885,0.1640077171452811,73.05,4.95,85.95,-882.32422,-43.45703,540.52734,-0.2596676426507636,-0.0085268060606182,0.089797888146809,57.0,23.25,23.55
-972.65625,-29.29688,-380.37109,0.034640073263107,-0.0143890179522168,-0.0587549384720623,-5.7,24.9,23.55,-131.34766,-96.19141,1017.08984,0.004529827540626,0.191853049097449,0.1540153581117632,72.45,3.75,85.8,-859.375,-45.89844,568.35937,-0.3114946711899595,-0.0186523337160634,0.0664823837352672,57.6,24.0,23.85
-955.07812,-15.625,-378.41797,0.074209828998472,-0.0478300500192038,-0.0067947413109391,-6.0,25.05,22.65,-145.50781,-92.77344,1058.59375,0.0373046674321268,0.1147121141531777,0.1373614263892333,72.45,3.75,85.8,-852.53906,-65.91797,540.52734,-0.2439464148804994,-0.0218499514386422,0.1016554805519333,57.6,24.0,23.85
-943.84766,-5.37109,-363.28125,0.0838025076332833,-0.0434333911005048,0.0013323843509724,-6.0,25.5,21.9,-121.09375,-79.10156,1043.45703,0.0751423584178126,0.1261700261595952,0.1260366830047429,72.9,4.5,86.55,-850.09766,-62.5,555.17578,-0.2280918439553829,-0.0002665117767795,0.0949939078629213,55.5,22.5,21.3
-947.26562,-4.88281,-370.11719,0.0069280844657914,0.0191853572696224,0.0090596550812521,-6.0,25.5,21.9,-135.74219,-74.70703,981.93359,0.0185191650941362,0.1642740543891354,0.1334976164911682,73.95,5.55,85.5,-844.72656,-65.42969,572.75391,-0.2011792159554807,-0.0062618922903052,0.1505512286124048,57.6,21.75,22.05
-954.58984,-16.11328,-360.83984,0.0467641774450108,-0.0411684773301918,0.0062618922903052,-6.3,25.8,22.65,-133.30078,-70.80078,1019.04297,0.0099923590335179,0.1452220402743654,0.1173767083221974,72.3,4.65,85.95,-824.21875,-55.17578,550.78125,-0.0215834396618626,0.0158545709251164,0.0979250138087206,57.6,21.75,22.05
-944.82422,-9.76562,-371.58203,0.0594211306475485,-0.0187856768709157,0.0831363154577971,-5.7,24.6,23.85,-116.21094,-78.61328,1001.46484,0.0103920394322246,0.1858576685839233,0.1081837100860929,72.3,4.65,85.95,-830.56641,-32.71484,556.64062,-0.0619525561946411,-0.0062618922903052,0.0175864611418704,57.9,23.4,22.65
-943.84766,-9.76562,-348.63281,0.0330413516682802,-0.0843353566539172,0.0559571756811154,-4.95,27.0,22.95,-116.69922,-51.26953,975.09766,-0.0058622118915985,0.1978484296109748,0.1059187963157798,73.05,6.15,84.9,-830.56641,-24.90234,532.71484,-0.0712787230526728,0.0219831200605693,0.0488959225933967,57.0,24.0,22.8
-946.77734,-8.78906,-351.07422,-0.0026645941690197,0.0361056262360067,0.0023980823922402,-6.15,26.7,23.1,-102.05078,-48.33984,967.77344,0.0003996803987067,0.2050428513206206,0.122173047639603,73.05,5.4,85.95,-816.40625,-18.55469,534.66797,-0.069680001457846,0.0307764378979672,0.041301645952119,58.05,23.7,22.5
-919.43359,3.90625,-349.60937,0.0406354537766327,-0.0616860444178615,0.0744763407752516,-6.15,26.7,23.1,-118.16406,-44.43359,984.86328,0.0302434143444081,0.2424808619075998,0.078606487917171,73.05,5.4,85.95,-809.57031,11.71875,566.89453,-0.0985910314512816,0.0800720408900706,0.0903307371674429,57.9,23.4,22.95
-911.13281,-0.48828,-351.07422,0.0053291883380394,-0.037970859607613,0.0333078634450597,-7.05,25.05,21.6,-140.625,-44.43359,978.02734,0.079272505559732,0.296705972839036,0.0643506385868813,73.2,5.25,85.8,-824.70703,-11.71875,554.19922,-0.1087167336396519,0.0359724576140795,0.025713586803782,57.9,23.4,22.95
-887.69531,-5.37109,-341.30859,-0.0005328490206338,0.0122572728038309,-0.032375159492794,-5.4,24.9,22.5,-122.07031,-54.19922,988.76953,0.0307764378979672,0.2444792639011333,0.1085833904847996,72.6,4.95,85.95,-821.77734,-26.36719,578.61328,-0.1357627047944065,0.0249142260063686,0.0099923590335179,58.2,23.4,22.65
-900.87891,-24.90234,-334.96094,-0.0030642745677264,0.0318423104721601,0.0754088701945922,-5.4,24.6,22.05,-136.23047,-65.42969,994.14062,0.0718115720733066,0.1881225823542364,0.1189754299170242,72.3,6.6,85.65,-849.12109,-42.96875,575.68359,-0.1428239578821251,0.059154618870769,0.0690138092823597,58.2,23.4,22.65
-903.80859,-22.46094,-349.60937,0.0237151848102485,0.0039969785199922,0.0411684773301918,-5.4,24.6,22.05,-136.23047,-69.33594,986.81641,0.0399694361340717,0.1841256038342442,0.1005896079777403,72.3,6.6,85.65,-835.9375,-20.99609,571.28906,-0.0568897051004559,0.0399694361340717,0.0520933657830503,57.6,24.3,22.05
-903.80859,-7.32422,-355.46875,-0.0069280844657914,0.0520933657830503,0.0105252080541518,-5.7,26.4,22.8,-135.25391,-89.84375,987.79297,0.0121241041819038,0.1488193383956508,0.1111148160318922,73.2,6.0,85.8,-842.28516,-12.69531,601.5625,-0.1164441789028568,0.0531592383572432,0.049162259837251,56.55,24.0,23.1
-909.17969,-4.88281,-360.35156,0.0594211306475485,0.0421010067495324,0.0490290912153239,-5.25,23.7,22.35,-126.95313,-83.98438,999.02344,0.0803383781339249,0.1524164619840112,0.0654165111610742,72.6,6.6,86.7,-847.65625,0.0,577.14844,-0.0794058487145844,0.0193185258915496,0.0595542992694757,57.15,23.4,22.65
-903.32031,1.95312,-355.46875,0.0266462907560478,0.0178529729186499,0.0255804181818548,-6.6,25.05,22.95,-129.88281,-66.40625,1020.99609,0.1187090926731699,0.13776110678794,0.0198513749121835,73.5,4.8,86.1,-843.75,13.67187,610.83984,-0.0971256530113072,0.0535589187559499,0.0552909835056291,57.3,24.0,22.8
-912.10937,8.78906,-356.93359,0.0091929982361045,0.0816707624848974,-0.0375711792089063,-5.1,27.45,22.05,-121.58203,-25.39063,1034.66797,0.1783965605645728,0.0951270764848485,0.0334410320669869,73.5,4.8,86.1,-853.02734,26.36719,616.69922,-0.1005896079777403,0.0483628990398376,0.0722112524720134,58.8,22.95,22.8
-891.11328,-9.76562,-366.69922,0.0361056262360067,0.0175864611418704,0.0603538345998143,-5.1,27.45,22.05,-148.92578,-14.16016,1030.27344,0.1309663654770009,0.2047763395438411,0.0560903443030425,73.95,7.05,85.5,-857.42187,37.59766,591.79687,-0.080871401687484,0.0438330714992115,0.0345069046411798,56.7,25.35,23.7
-895.50781,5.85937,-366.69922,0.0122572728038309,0.0410353087082646,0.0125237845806105,-6.6,25.8,21.6,-141.11328,-21.97266,1046.38672,0.0394364125805126,0.1490856756395052,0.0301102457224809,72.45,7.05,84.75,-854.49219,31.73828,616.21094,-0.0674150876875329,0.0750091897958855,0.0900643999235885,56.7,25.35,23.7
-897.94922,-14.16016,-368.65234,0.0259800985805615,0.0446324322966249,0.0019984019935335,-6.6,25.05,22.35,-152.34375,-49.80469,1072.75391,0.006128723668378,0.1530826541594974,0.0979250138087206,73.2,7.05,84.75,-853.51562,48.33984,594.23828,-0.0238483534321757,0.071944915228159,0.0916631215184153,57.15,23.1,22.65
-909.66797,-17.08984,-385.25391,0.1113813278086717,0.0692803210591393,0.0716784034513795,-6.6,25.5,22.65,-145.01953,-51.26953,1033.69141,0.0927289940926083,0.1686707133078344,0.0599539796681824,73.2,7.05,84.75,-847.65625,38.08594,618.65234,-0.0115910806283447,-0.0054625314928918,0.0812710820861907,57.15,24.15,23.25
-938.47656,-16.11328,-393.06641,0.1297671497479555,0.037970859607613,0.0456983048708179,-5.1,26.1,23.1,-143.55469,-22.46094,1027.34375,0.0828698036810175,0.1243047927879889,0.0977916706538682,73.8,4.95,86.25,-846.67969,24.90234,597.16797,0.0,0.0241148652089552,0.1581455052536826,56.55,23.25,22.05
-944.33594,-23.4375,-380.85937,0.1075176924435318,0.059154618870769,-0.0692803210591393,-5.1,26.1,23.1,-144.53125,-20.01953,1014.16016,0.1526829737607907,0.0386370517830992,0.1075176924435318,75.15,6.15,83.85,-831.54297,23.4375,578.61328,-0.0901975685455157,0.0171867807431637,0.1392266597608396,58.5,23.1,21.15
-923.82812,-35.64453,-386.23047,0.1083170532409452,-0.0367718184114929,0.0103920394322246,-6.15,25.35,24.15,-140.13672,0.97656,1016.60156,0.1360290420382608,0.1075176924435318,0.080871401687484,73.2,6.0,86.1,-832.03125,25.87891,600.09766,-0.0419678381276052,0.0307764378979672,0.1438898304563181,58.35,24.0,21.75
-940.42969,-35.15625,-385.74219,0.1819938586858583,-0.10205516095064,-0.0331745202902074,-6.9,26.1,22.5,-145.50781,26.36719,1008.78906,0.1430902951259795,0.0896645449919567,0.1484196579969441,73.35,6.6,86.25,-843.26172,15.13672,598.14453,-0.0590214502488418,-0.0137228257767306,0.1418912539298594,56.7,23.4,22.2
-905.76172,-13.18359,-373.53516,0.1342971518215068,-0.055823832526263,-0.0712787230526728,-6.15,25.65,22.8,-138.18359,-7.32422,1034.66797,0.1224395594163826,0.0550244717288496,0.1434899755246862,73.8,6.6,84.6,-824.21875,13.18359,590.82031,-0.114312433754471,-0.0194516945134768,0.1220398790176759,56.7,23.4,22.2
-919.43359,-0.97656,-376.95312,0.1117810082073784,-0.0712787230526728,-0.0255804181818548,-6.6,25.5,21.9,-155.76172,-3.90625,1037.10938,0.1191087730718766,0.0037304667432126,0.1629418445710882,73.2,6.75,86.85,-832.51953,7.32422,592.28516,-0.0319754790940873,-0.0353062654385932,0.1438898304563181,57.6,23.7,22.05
-905.76172,21.97266,-370.60547,0.0924624823158288,-0.0850015488294034,0.0267794593779749,-6.6,25.5,21.9,-147.46094,0.48828,1012.20703,0.1167105161467112,-0.0342403928644003,0.1365620655918199,73.2,6.75,86.85,-830.07812,-10.25391,590.82031,-0.0454317930940384,0.0013323843509724,0.1235054319905755,57.6,23.7,22.05
-907.71484,34.66797,-383.78906,0.0175864611418704,-0.0583552580733556,0.0261132672024887,-6.6,25.5,21.9,-161.13281,-3.90625,1003.41797,0.1139127533557643,-0.0698131700797731,0.1285681085518354,74.7,7.8,85.5,-820.80078,2.44141,568.35937,-0.0123904414257581,-0.0135896571548034,0.0708790426539661,57.6,23.7,22.05
-905.27344,42.48047,-373.53516,0.0222496318373489,-0.1264363634034496,0.049162259837251,-5.1,25.35,23.1,-149.41406,15.625,1000.48828,0.1445558480988791,-0.0739433172216925,0.107650861065459,73.35,6.6,85.65,-827.63672,-1.46484,572.26562,-0.0851347174513306,-0.0151883787496302,0.0927289940926083,56.1,23.85,23.7
-912.10937,44.43359,-379.39453,-0.0003996803987067,-0.1235054319905755,0.0814042507081179,-6.0,25.05,22.35,-125.48828,12.20703,997.55859,0.1207074946667034,-0.0455651362488907,0.1793292645168386,73.05,5.4,85.2,-833.49609,-0.48828,573.73047,-0.0294440535469947,0.0114579120064175,0.0266462907560478,58.5,24.9,22.95
-916.50391,44.92188,-386.71875,-0.0750091897958855,-0.0804717212887773,0.0635512777894679,-5.7,26.1,21.45,-130.85937,21.97266,999.02344,0.0314426300734534,-0.0924624823158288,0.0984578628293545,73.05,5.4,85.2,-826.66016,-1.95312,562.98828,-0.014522186574144,0.0303767574992605,0.049162259837251,57.15,24.6,24.0
-928.22266,45.41016,-376.95312,-0.0401026047559989,-0.1412250617543731,0.1156446435725182,-6.6,25.05,22.65,-160.15625,8.78906,1001.95312,0.0386370517830992,-0.0488959225933967,0.1534823345582041,73.8,5.7,85.95,-830.07812,9.76562,576.66016,-0.0335742006889141,0.0133231453780239,0.020117886688963,56.55,25.05,22.8
-939.94141,39.0625,-384.27734,-0.0510274932088574,-0.1385604675853534,0.1116478395854512,-6.6,25.05,22.65,-143.06641,-2.92969,1004.88281,0.0175864611418704,-0.0490290912153239,0.1358958734163337,73.95,7.5,85.05,-838.86719,19.04297,544.43359,0.0049295079393327,-0.0482297304179105,0.0852680606061829,57.9,23.4,23.25
-940.91797,35.15625,-383.30078,-0.0764747427687851,-0.1260366830047429,0.0975253334100139,-5.1,25.65,22.5,-154.78516,1.95312,983.39844,0.0321086477160144,-0.0782068075184643,0.0984578628293545,73.95,7.5,85.05,-843.75,5.37109,560.54687,-0.0531592383572432,-0.023981696587028,0.0576890658978693,56.55,24.75,23.55
-935.54687,40.52734,-393.55469,-0.0215834396618626,-0.1973154060574157,0.1312327027208552,-5.4,26.4,23.1,-152.34375,-3.90625,982.42187,-0.0033307863445059,-0.0815375938629702,0.114312433754471,72.6,5.4,85.2,-856.93359,5.85937,556.64062,-0.0604870032217414,-0.0349065850398865,0.0291777163031404,56.55,24.75,23.55
-923.82812,55.17578,-367.67578,-0.0496952833908101,-0.1770643507465255,0.1023216727274195,-5.4,26.1,23.1,-161.13281,-15.13672,993.65234,0.054091942309509,-0.1033873707686873,0.1271025555789358,73.8,6.15,85.95,-861.81641,13.18359,557.61719,-0.0976585020319411,-0.0002665117767795,0.0676814249313873,57.6,25.05,23.55
-914.55078,53.22266,-373.53516,-0.0410353087082646,-0.1073843492886795,0.0866002704242302,-5.4,26.1,23.1,-169.43359,-18.55469,989.25781,0.0266462907560478,-0.0877993116203503,0.1287014517066878,72.6,7.35,85.2,-847.65625,2.92969,548.33984,-0.0690138092823597,-0.0247810573844414,0.0322419908708668,57.6,25.05,23.55
-906.25,65.42969,-373.04687,-0.068081105330094,-0.0619525561946411,0.0382373713843925,-5.7,26.1,22.5,-177.24609,-31.25,990.72266,0.0510274932088574,-0.0904640803222952,0.0631515973907612,72.6,7.35,85.2,-865.23437,17.57813,550.29297,-0.070346019100407,-0.045165455850184,0.06634921511334,57.45,24.9,22.95
-910.64453,83.49609,-361.32812,-0.0377045223637587,-0.1314992144976347,0.077540615342978,-5.55,25.8,22.65,-159.66797,-26.85547,992.1875,0.0142556747973644,-0.1097826062138449,0.0512940049856369,73.2,9.0,86.85,-859.86328,26.36719,567.38281,-0.0582220894514284,-0.0090596550812521,0.0289112045263608,57.15,24.9,22.65
-921.38672,52.73438,-362.79297,-0.0881991665519822,-0.073676805444913,0.0375711792089063,-4.5,25.05,20.85,-160.64453,-32.22656,997.07031,0.0712787230526728,-0.079272505559732,0.0049295079393327,73.35,7.65,84.6,-847.16797,22.94922,565.42969,-0.0169204434993094,-0.045165455850184,0.0738101485997654,57.3,25.05,22.5
-925.78125,61.03516,-362.79297,-0.0648836621404404,-0.0476967068643514,-0.0102588708102974,-4.95,25.5,21.9,-169.92187,-45.41016,1008.78906,0.0923293136939016,-0.050228132411444,-0.0005328490206338,73.35,7.65,84.6,-855.95703,12.20703,556.64062,-0.0237151848102485,-0.043566559722432,0.0628850856139816,56.55,24.75,23.55
-920.89844,40.52734,-358.39844,-0.036238969390859,-0.1157779867273706,0.0879326547752027,-4.95,25.5,21.9,-167.96875,-35.64453,1016.60156,0.0846018684306967,-0.0638177895662474,0.0077274452632048,73.35,7.35,85.2,-858.39844,20.99609,589.84375,-0.0033307863445059,-0.0165205885676775,0.0634181091675407,57.45,25.35,22.95
-919.92187,62.5,-364.74609,-0.0811377389313384,-0.0314426300734534,-0.0318423104721601,-6.3,25.8,22.35,-169.92187,-15.13672,1006.83594,0.1016554805519333,-0.0877993116203503,0.023981696587028,72.6,8.1,84.9,-860.83984,12.20703,561.52344,0.0575558972759422,-0.0644839817417337,0.096459460835821,57.45,25.35,23.25
-923.82812,65.91797,-361.32812,-0.0863337586474507,-0.0122572728038309,0.0205175670876697,-7.35,27.0,22.35,-169.92187,12.69531,1031.73828,0.1056524590719255,-0.0419678381276052,-0.0151883787496302,72.45,8.25,85.8,-860.83984,12.69531,584.47266,-0.0259800985805615,-0.022382800459276,-0.0009327039522657,57.45,25.35,23.25
-917.48047,69.82422,-368.65234,-0.0515605167624164,-0.0246477142295891,0.0337075438437664,-6.0,26.25,22.95,-148.92578,41.50391,1045.41016,0.0880658233971298,-0.0928621627145355,-0.0438330714992115,72.45,8.25,85.8,-861.32812,-11.23047,604.98047,0.0199847180670358,-0.0054625314928918,0.0266462907560478,57.45,23.85,22.65
-934.57031,66.89453,-379.39453,-0.0747426780191059,0.0242480338308824,-0.0225161436141284,-5.7,25.35,23.1,-143.06641,8.78906,1038.57422,0.0873996312216436,-0.0827366350590903,-0.0969923098564548,73.8,8.85,84.6,-850.58594,-30.27344,559.08203,0.0796723604913639,-0.0146553551960711,0.0347734164179594,57.45,23.85,22.65
-931.15234,68.84766,-377.44141,-0.0586217698501351,0.0086599746825454,-0.0017320647496791,-5.7,25.35,23.1,-150.87891,4.88281,1035.64453,0.0378376909856858,-0.1203078142679967,-0.0373046674321268,74.1,8.1,85.65,-834.96094,-29.78516,558.10547,0.073676805444913,0.0195850376683291,0.0206509102425221,56.7,23.85,23.25
-974.12109,60.05859,-372.07031,0.0011990411961201,-0.0089264864593249,-0.03064326927604,-6.15,24.6,23.85,-144.04297,9.76562,1016.60156,0.0062618922903052,-0.1372282577673061,-0.0514271736075641,73.8,8.4,85.65,-838.37891,-28.80859,522.46094,0.1641408857672083,0.0166539317225298,-0.0133231453780239,57.6,24.3,25.2
-982.91016,62.98828,-382.8125,-0.0325085026476463,-0.0599539796681824,0.0026645941690197,-4.2,25.5,22.95,-134.76562,22.46094,1015.13672,-0.0019984019935335,-0.1283017713079811,-0.0762082309920056,73.35,9.15,84.6,-819.33594,-34.66797,509.76562,0.1464210814704855,-0.0009327039522657,-0.0322419908708668,56.4,23.4,22.65
-981.44531,61.03516,-385.74219,-0.0444992636746978,-0.0780734643636119,0.0151883787496302,-5.25,25.5,23.25,-157.22656,12.69531,1009.76562,-0.0394364125805126,-0.1469541050240445,-0.0881991665519822,72.9,8.55,84.75,-837.89062,-27.34375,532.71484,0.1588116974291688,-0.0127901218244648,-0.0377045223637587,56.7,24.9,22.2
-988.28125,59.57031,-395.50781,0.0103920394322246,-0.0903307371674429,-0.0242480338308824,-5.7,26.1,23.85,-128.90625,3.41797,1022.94922,-0.0795390173365115,-0.1855911568071438,-0.0644839817417337,72.3,6.9,84.9,-823.24219,-20.01953,533.69141,0.1280352595312016,0.0407687969314851,-0.041301645952119,56.7,24.9,22.2
-988.28125,69.33594,-371.58203,-0.0166539317225298,-0.0504946441882235,-0.0298437339457014,-5.7,26.1,23.85,-150.39062,-0.48828,1005.85937,-0.0712787230526728,-0.1342971518215068,-0.1364287224369675,72.3,6.9,84.9,-825.19531,3.90625,555.17578,0.0877993116203503,-0.0297105653237742,-0.0679479367081668,56.1,23.85,22.65
-965.33203,50.29297,-352.53906,-0.0217166082837898,-0.1177763887209041,-0.0937948666668012,-6.3,25.05,22.65,-143.55469,-18.55469,990.23437,-0.113246561180278,-0.1676048407336414,-0.1212403436873373,72.3,6.9,84.9,-824.70703,22.94922,516.11328,0.1354961930176269,0.0331745202902074,-0.1253706653621819,56.25,24.75,22.5
-950.68359,66.89453,-347.65625,0.0151883787496302,-0.1365620655918199,-0.059154618870769,-6.0,24.75,21.9,-148.92578,-9.76562,972.16797,-0.1372282577673061,-0.196915725658709,-0.052493046181757,73.35,6.9,87.0,-837.89062,28.80859,540.52734,0.1791960958949114,0.0170536121212365,-0.0419678381276052,56.25,24.75,22.5
-937.5,60.54688,-336.91406,0.0230489926347623,-0.1207074946667034,0.0119907610270514,-5.4,25.65,22.05,-122.55859,-15.13672,984.86328,-0.1406922127337393,-0.1557472483285172,-0.1312327027208552,72.9,6.75,85.8,-844.72656,28.80859,552.24609,0.1040535629441735,-0.0003996803987067,-0.1380276185647195,57.9,23.1,22.95
-936.52344,48.33984,-323.73047,-0.0051960197161123,-0.0672817445326806,-0.0426340303030914,-4.65,25.35,24.15,-126.95313,-19.04297,979.49219,-0.116577347524784,-0.1629418445710882,-0.0799386977352182,73.2,6.0,85.8,-854.00391,56.64063,572.75391,0.1638743739904287,0.0058622118915985,-0.0933951862680945,57.9,23.1,22.95
-904.29687,48.82813,-333.49609,0.0386370517830992,-0.0984578628293545,-0.0639509581881746,-4.65,25.35,24.15,-143.06641,-9.76562,957.03125,-0.1354961930176269,-0.1269693869570086,-0.093128674491315,73.2,6.0,85.8,-852.53906,36.62109,618.65234,0.0928621627145355,0.0559571756811154,-0.1084502218628724,57.3,24.3,21.75
-901.36719,38.08594,-339.35547,0.0177198042967228,-0.0660827033365605,-0.046897346066938,-5.4,25.65,23.85,-150.87891,-20.50781,1002.44141,-0.0519601971611231,-0.1388269793621329,-0.1051194355183664,72.9,7.5,86.55,-864.25781,30.27344,570.80078,0.1424242774834185,0.0726111074036452,-0.1100489434576992,56.7,23.85,23.25
-926.75781,29.29688,-334.47266,-0.0314426300734534,0.0215834396618626,-0.0903307371674429,-6.0,26.55,22.65,-135.74219,2.44141,1038.08594,-0.0923293136939016,-0.064750318985588,-0.171202138854927,73.2,8.55,85.8,-850.58594,49.80469,558.10547,0.1673385034897871,0.0648836621404404,-0.1009892883764471,58.05,24.75,22.5
-936.03516,26.36719,-354.00391,0.0961929490590414,-0.0213169278850831,-0.0803383781339249,-5.25,25.8,23.25,-139.64844,17.57813,1039.0625,-0.0687472975055802,-0.0783399761403914,-0.1610766111994818,73.2,8.55,85.8,-859.86328,46.38672,554.6875,0.1402925323350325,0.0227824808579827,-0.0885988469506889,57.6,24.0,22.5
-953.61328,31.25,-357.91016,0.0433002224785777,-0.0082602942838387,-0.0678147680862396,-4.65,24.9,23.1,-136.23047,-19.53125,1042.48047,-0.1068515002680456,-0.1340306400447273,-0.15561407970659,72.9,7.05,85.5,-835.44922,41.01563,549.31641,0.174000076178799,0.0383705400063197,-0.0880658233971298,57.6,24.0,22.5
-966.79687,36.62109,-358.39844,-0.0137228257767306,0.0755420388165193,-0.0560903443030425,-4.65,24.9,23.1,-125.48828,-5.85937,1025.87891,-0.1493521874162847,-0.1869233666251911,-0.1167105161467112,72.6,6.6,86.25,-849.60937,38.08594,567.38281,0.1569464640575625,0.0488959225933967,-0.1119141768293056,58.05,23.25,23.1
-975.58594,34.66797,-367.1875,0.0598208110462552,0.0286446927495813,-0.0608866836204481,-6.45,25.35,22.8,-123.04688,-45.89844,1013.18359,-0.1689372250846139,-0.1590780346730231,-0.1163108357480045,72.9,6.0,85.05,-841.79687,39.55078,532.71484,0.1861240058277777,0.0266462907560478,-0.1205743260447762,58.05,23.25,23.1
-980.46875,15.13672,-372.07031,0.0213169278850831,0.0286446927495813,0.023448673033469,-5.25,25.5,24.0,-125.97656,-44.92188,989.74609,-0.1674716721117143,-0.1060521394706322,-0.141091893132446,72.9,6.0,85.05,-844.72656,51.75781,562.5,0.1628085014162358,0.0627519169920545,-0.1185757495183175,57.3,24.0,21.0
-980.46875,2.44141,-361.81641,0.0229158240128351,0.0807380585326316,-0.042900542079871,-6.15,25.35,22.5,-118.65234,-44.43359,973.14453,-0.141091893132446,-0.0911300979648563,-0.1789295841181318,72.6,6.6,86.7,-851.07422,68.84766,576.17187,0.0846018684306967,0.0526263893366094,-0.1228392398150893,57.6,23.7,23.55
-976.07422,3.90625,-355.46875,0.0620857248165682,-0.0133231453780239,-0.0190520141147701,-6.15,25.35,22.5,-108.88672,-42.48047,1003.41797,-0.1167105161467112,-0.0374380105869791,-0.1316323831195619,74.1,6.9,86.25,-847.16797,67.38281,567.38281,0.1148452827751048,0.0456983048708179,-0.0868667822010097,55.2,24.75,23.55
-964.84375,-23.4375,-353.02734,0.0866002704242302,-0.1011224569983742,-0.0115910806283447,-6.15,25.35,22.5,-109.375,-37.10938,1012.20703,-0.0462311538914518,0.0174532925199432,-0.1592113778278755,74.1,6.9,86.25,-832.03125,65.42969,563.47656,0.1445558480988791,0.1096492630589925,-0.0899310567687362,56.1,24.6,22.65
-973.14453,-5.85937,-344.72656,0.0536922619108023,0.0371714988101996,-0.0479632186411309,-5.25,24.3,21.9,-112.79297,-21.97266,1023.4375,-0.0342403928644003,-0.0086599746825454,-0.1328315988486072,71.55,4.65,85.2,-836.91406,73.24219,589.84375,0.1096492630589925,0.0543582795533633,-0.1028545217480534,57.45,23.4,21.6
-953.125,-11.23047,-335.9375,0.0495619402359577,0.0054625314928918,-0.1091164140383586,-5.1,23.85,22.8,-103.02734,5.85937,996.09375,-0.0011990411961201,0.0039969785199922,-0.1384272989634262,73.35,6.15,85.95,-842.77344,65.42969,584.96094,0.0659495347146333,0.0952604196397009,-0.1059187963157798,57.6,23.25,22.8
-923.82812,-4.39453,-337.89062,0.1301670046795875,-0.034640073263107,0.0154548905264097,-4.05,24.9,22.5,-89.35547,10.25391,1006.34766,0.014522186574144,-0.0209172474863764,-0.1309663654770009,71.7,6.3,86.1,-831.05469,72.26563,572.75391,0.1084502218628724,0.0702128504784798,-0.0877993116203503,57.6,23.25,22.8
-921.38672,16.60156,-323.24219,0.0474303696204971,0.0425006871482391,0.0059953805135257,-6.0,25.5,23.7,-98.14453,57.12891,1003.90625,-0.0315757986953806,-0.0373046674321268,-0.0924624823158288,71.7,6.3,86.1,-823.24219,78.125,582.51953,0.0175864611418704,0.0711455544307456,-0.1144456023763981,57.45,23.85,22.2
-915.03906,28.80859,-332.51953,0.0858009096268168,0.0058622118915985,0.0552909835056291,-6.0,25.5,23.7,-96.67969,47.85156,1019.04297,-0.0393032439585855,-0.0503614755662963,-0.1089830708835063,71.25,5.7,85.2,-824.21875,62.01172,602.05078,0.0185191650941362,0.0508943245869302,-0.1191087730718766,57.45,23.85,22.2
-925.29297,30.27344,-321.77734,0.0512940049856369,-0.0294440535469947,0.0811377389313384,-5.7,26.7,22.8,-94.23828,73.24219,988.28125,-0.1690703937065411,0.0038636353651398,-0.0606201718436686,71.4,6.0,86.55,-821.77734,47.85156,559.08203,0.0383705400063197,0.0570230482553083,-0.1533491659362769,57.6,24.3,21.3
-901.36719,17.08984,-326.17187,0.0327748398915007,0.0225161436141284,-0.0146553551960711,-4.35,24.9,23.85,-112.79297,65.91797,1016.60156,-0.1837259234355374,0.0158545709251164,-0.0069280844657914,70.8,4.95,85.65,-828.61328,73.73047,585.9375,0.0029311059457992,0.0856677410048896,-0.1413584049092255,56.4,23.85,22.2
-889.16016,26.85547,-323.73047,0.0245145456076619,-0.0161209081689708,0.0427671989250186,-5.1,26.7,23.1,-99.60938,39.0625,1033.69141,-0.1971822374354885,-0.0411684773301918,0.0218499514386422,73.05,4.65,84.9,-818.84766,51.75781,581.05469,0.0542251109314362,0.0598208110462552,-0.1702694349026612,56.4,23.85,22.2
-891.11328,8.30078,-328.61328,0.0511608363637097,0.0087933178373978,0.0107917198309313,-6.45,25.35,23.1,-100.58594,4.39453,1032.22656,-0.2500749640159523,-0.0868667822010097,0.0802052095119978,71.1,3.75,86.55,-809.57031,50.78125,578.61328,0.060753514998521,0.1056524590719255,-0.2183659966986445,57.3,23.25,21.75
-915.03906,7.32422,-330.07812,0.0014655529728996,0.0912634411197086,-0.0674150876875329,-6.45,25.35,23.1,-85.44922,-15.625,1017.08984,-0.3109616476364005,-0.1572128013014168,0.1534823345582041,72.3,5.7,85.95,-798.82812,49.80469,623.53516,-0.0090596550812521,0.0784731447623186,-0.1542816953556175,56.7,22.35,21.15
-931.64062,14.64844,-329.58984,0.0377045223637587,-0.0231821612566894,-0.0944608843093623,-5.7,25.35,22.8,-76.17188,-55.66406,1005.37109,-0.2743231723797599,-0.2587351132314229,0.055823832526263,72.3,5.7,85.95,-791.99219,23.4375,563.47656,-0.0097258472567384,0.1457548892949992,-0.1569464640575625,57.0,22.2,21.75
-941.89453,21.97266,-337.40234,-0.0158545709251164,-0.0230489926347623,-0.0475635382424242,-4.95,25.8,21.3,-69.82422,-84.96094,978.02734,-0.3130933927847864,-0.2154348907528452,0.0814042507081179,70.8,4.2,85.95,-805.66406,33.69141,580.07812,0.0034639549664331,0.1195084534705833,-0.1822603704626378,57.6,24.75,22.5
-945.80078,31.73828,-354.00391,-0.0774072721881257,-0.0133231453780239,-0.0885988469506889,-6.0,24.3,21.3,-72.75391,-77.63672,958.98437,-0.2765880861500729,-0.2159679143064043,0.0046631706954784,71.4,3.75,86.55,-814.94141,29.78516,576.66016,0.077540615342978,0.1362955538150403,-0.1958498530845161,57.6,24.75,22.5
-930.66406,18.55469,-336.91406,-0.0333078634450597,-0.0436999028772844,-0.0590214502488418,-5.55,26.25,22.65,-86.42578,-86.91406,993.16406,-0.2169004437257448,-0.1778637115439389,0.0119907610270514,71.25,5.4,86.25,-838.37891,32.22656,536.13281,0.0956601000384076,0.1269693869570086,-0.1713353074768541,57.3,23.25,21.0
-937.01172,-9.76562,-354.49219,-0.0830031468358699,-0.0812710820861907,-0.0804717212887773,-5.55,26.25,22.65,-110.83984,-72.75391,979.00391,-0.1961163648612956,-0.1117810082073784,0.0285115241276541,72.0,3.9,87.0,-842.28516,57.61719,555.17578,0.0482297304179105,0.1108484787880378,-0.1961163648612956,57.3,23.25,21.0
-920.89844,1.95312,-350.58594,-0.0648836621404404,-0.0417013263508257,-0.1357627047944065,-5.1,24.6,22.8,-98.63281,-69.82422,1016.11328,-0.1263031947815224,-0.0799386977352182,0.0266462907560478,71.7,4.8,86.1,-833.49609,41.01563,567.87109,0.0658161915597809,0.1496186991930643,-0.1636080367465744,58.5,23.1,22.65
-912.59766,6.83594,-348.63281,-0.068081105330094,-0.0367718184114929,-0.1139127533557643,-6.45,24.15,23.1,-109.86328,-55.17578,1012.69531,-0.1362955538150403,-0.0427671989250186,-0.0013323843509724,73.2,4.5,85.05,-854.98047,17.57813,546.875,0.0325085026476463,0.0899310567687362,-0.1361623851931132,58.05,23.25,21.75
-900.39062,-2.44141,-345.21484,-0.0331745202902074,-0.0161209081689708,-0.0836691644784309,-6.0,26.55,23.25,-111.32813,-28.80859,1013.18359,-0.116577347524784,-0.0448989440734045,0.023448673033469,73.2,4.5,85.05,-844.23828,-9.76562,572.75391,-0.0564900247017492,0.1276355791324949,-0.2042434905232072,57.15,21.9,21.6
-916.50391,12.69531,-356.93359,-0.0895313763700295,0.0325085026476463,-0.0834028272345766,-4.95,24.0,23.25,-105.95703,-61.52344,1004.39453,-0.0961929490590414,-0.022382800459276,0.0345069046411798,71.4,4.8,86.85,-858.39844,-23.4375,551.26953,-0.0243813769857347,0.1049862668964393,-0.1596110582265822,59.1,22.2,21.0
-913.57422,12.69531,-371.09375,-0.1585451856523893,-0.0159877395470436,-0.0366386497895657,-4.95,24.0,23.25,-101.07422,-69.82422,1038.57422,-0.1977150864561224,-0.0620857248165682,0.0342403928644003,72.3,4.2,86.25,-884.76562,-16.11328,563.47656,-0.0066615726890119,0.0847350370526239,-0.1831928998819784,57.45,23.4,20.85
-912.59766,8.78906,-373.53516,-0.0957932686603347,-0.0326416712695735,-0.0063950609122324,-6.3,24.0,22.65,-118.65234,-84.47266,1040.03906,-0.1538820149569108,-0.089797888146809,0.0166539317225298,71.1,3.3,86.25,-873.04687,-13.67187,553.22266,0.0286446927495813,0.1099157748357721,-0.1689372250846139,56.7,21.6,21.15
-935.54687,-0.48828,-371.58203,-0.1249709849634751,0.0194516945134768,-0.0467641774450108,-4.95,25.5,22.65,-139.16016,-97.65625,1010.25391,-0.2599341544275431,-0.0171867807431637,0.0086599746825454,71.1,3.3,87.9,-866.21094,-13.67187,537.10937,0.0751423584178126,0.1128468807815713,-0.1867901980032639,56.7,21.6,21.15
-932.61719,-1.46484,-381.83594,-0.1656064387401079,0.0387702204050264,-0.0495619402359577,-4.5,25.5,22.95,-118.65234,-106.93359,1038.08594,-0.2379510343669737,-0.0297105653237742,0.0026645941690197,71.1,3.3,87.9,-861.32812,-23.92578,541.99219,0.0940612039106556,0.0567565364785288,-0.1477534658214579,57.3,22.2,19.95
-944.33594,-35.15625,-376.46484,-0.1064518198693389,0.0041301471419193,0.0291777163031404,-4.5,25.5,22.95,-179.6875,-95.70313,987.79297,-0.2832496588390849,-0.3349433442234286,-0.0159877395470436,71.4,3.75,85.8,-882.8125,4.39453,546.875,0.1179097318757565,0.1044532433428802,-0.1666723113143009,57.3,22.2,19.95
-939.94141,-29.78516,-394.04297,-0.1100489434576992,0.031309286918601,0.007860613885132,-4.65,25.65,22.5,-126.46484,-147.94922,1048.82813,-0.167871352510421,-0.1036538825454668,0.0179861415405771,71.7,4.5,86.55,-877.44141,15.13672,532.71484,0.077540615342978,0.1084502218628724,-0.1590780346730231,57.15,20.1,20.85
-955.07812,-28.32031,-390.13672,-0.0867336135790826,0.0182526533173567,-0.0295773967018471,-4.2,25.5,22.95,-145.99609,-116.21094,993.65234,-0.1398928519363259,-0.0908637607210019,0.0118575924051242,71.7,4.5,86.55,-873.04687,52.73438,514.16016,0.020117886688963,0.0877993116203503,-0.1392266597608396,58.2,22.35,21.6
-961.91406,-40.03906,-400.39062,-0.0443659205198454,-0.0295773967018471,-0.0411684773301918,-6.15,24.9,22.8,-152.83203,-116.21094,954.10156,-0.1071178375118999,-0.0338407124656936,-0.0047963393174056,71.4,4.05,86.55,-880.85937,45.41016,525.87891,-0.0109248884528585,0.043566559722432,-0.1318988948963414,59.1,23.7,20.25
-942.87109,-30.76172,-389.16016,-0.105385947295146,-0.0062618922903052,-0.0250473946282958,-5.4,26.4,22.05,-112.79297,-125.0,987.79297,-0.0839356762552105,-0.0071944217096458,-0.0299770771005538,70.65,3.3,86.85,-866.21094,48.33984,548.82812,-0.0828698036810175,0.0447657754514773,-0.1151117945518844,56.7,23.1,21.6
-940.42969,-2.44141,-389.16016,-0.0715452348294523,0.0087933178373978,-0.0935283548900217,-5.4,26.4,22.05,-121.58203,-94.23828,1002.92969,-0.068081105330094,-0.0386370517830992,-0.0241148652089552,70.5,3.45,87.75,-879.39453,37.59766,527.34375,-0.0587549384720623,-0.0071944217096458,-0.1009892883764471,56.7,23.1,21.6
-958.98437,4.88281,-378.41797,-0.0345069046411798,-0.0575558972759422,-0.0650168307623675,-5.25,25.05,24.0,-94.72656,-83.00781,1011.23047,-0.0013323843509724,-0.011191400229638,0.007860613885132,70.5,3.45,87.75,-875.48828,23.4375,553.22266,-0.0920628019171221,-0.0129234649793172,-0.0846018684306967,58.95,20.85,21.6
-943.35937,-10.25391,-376.95312,-0.096459460835821,-0.0523598775598298,-0.1187090926731699,-3.75,25.8,23.25,-104.00391,-78.125,983.88672,-0.0694134896810664,-0.0250473946282958,0.0163874199457503,70.2,4.2,87.0,-876.95312,25.87891,546.875,-0.1241714496331365,-0.004529827540626,-0.0598208110462552,58.95,20.85,21.6
-943.84766,-18.55469,-364.74609,-0.0818039311068246,-0.0347734164179594,-0.0851347174513306,-5.55,25.8,21.9,-87.89063,-81.05469,996.58203,-0.0354394340605204,-0.0378376909856858,0.0105252080541518,71.1,4.5,86.85,-850.58594,-0.48828,531.73828,-0.0730107878023519,-0.0166539317225298,-0.0548913031069224,56.25,22.5,21.3
-916.01562,-26.85547,-377.44141,-0.0431668793237253,-0.1215068554641168,-0.0235820161883213,-5.4,25.65,22.5,-86.42578,-86.42578,1030.27344,-0.1123138572280122,0.0450321126953316,0.0884655037958365,70.2,3.45,87.45,-859.375,34.66797,537.59766,-0.1414915735311527,0.0350397536618137,0.0109248884528585,58.35,21.75,21.3
-904.78516,-24.90234,-358.88672,-0.0475635382424242,-0.0976585020319411,0.0075941021083525,-5.4,25.65,22.5,-100.09766,-87.40234,987.79297,-0.08420218803199,-0.025713586803782,0.0568897051004559,72.0,5.4,87.45,-861.81641,7.8125,520.99609,-0.0843353566539172,0.0069280844657914,-0.0195850376683291,58.35,21.75,21.75
-915.52734,-20.50781,-339.35547,-0.0390367321818059,-0.0692803210591393,-0.1461547442266311,-4.05,24.15,22.5,-112.30469,-107.42188,1004.88281,-0.0888651841945432,0.0566231933236764,0.0871332939777893,70.5,3.15,87.75,-841.30859,4.88281,546.875,-0.0973919902551615,0.0390367321818059,-0.0715452348294523,58.05,21.75,21.3
-895.50781,-46.875,-353.02734,-0.0618192130397887,-0.0834028272345766,-0.1091164140383586,-5.1,24.9,21.75,-101.07422,-111.81641,988.28125,-0.0431668793237253,-0.0026645941690197,0.0768744231674918,70.8,3.9,87.75,-841.79687,15.13672,524.90234,-0.0799386977352182,-0.0070612530877186,-0.0153215473715574,57.6,21.0,21.0
-913.57422,-44.43359,-356.44531,-0.0121241041819038,-0.1136462415789847,-0.0317089673173077,-4.05,24.15,22.8,-112.30469,-98.14453,979.49219,-0.0492956029921034,-0.0017320647496791,0.0832694840797242,70.8,3.9,87.75,-836.42578,26.36719,520.50781,-0.0699463387017003,0.0203843984657425,0.0054625314928918,58.5,22.65,21.15
-900.39062,-62.5,-343.26172,-0.0378376909856858,-0.0508943245869302,-0.0714118916745999,-4.35,26.1,25.65,-108.88672,-104.49219,972.65625,0.0354394340605204,-0.0042633157638465,0.079272505559732,70.2,3.45,88.05,-844.23828,21.97266,530.76172,-0.1354961930176269,0.0190520141147701,0.0310429496747467,58.35,21.0,20.7
-909.66797,-66.40625,-341.79687,0.0059953805135257,-0.0784731447623186,-0.0940612039106556,-4.35,26.1,25.65,-113.28125,-113.28125,1001.46484,0.0359724576140795,-0.0394364125805126,0.0892648645932499,70.5,3.15,86.7,-844.23828,23.92578,523.4375,-0.0969923098564548,-0.034640073263107,0.0431668793237253,58.35,21.0,20.7
-916.50391,-59.08203,-344.72656,0.0291777163031404,-0.1055191159170731,-0.0544916227082157,-4.35,26.1,25.65,-105.46875,-102.53906,978.51562,0.0798055291132911,0.0488959225933967,0.0706125308771865,71.55,4.95,88.05,-853.02734,0.97656,527.34375,-0.1516171011865978,0.0359724576140795,0.0422343499043847,58.05,21.0,21.3
-922.36328,-64.94141,-338.86719,0.0119907610270514,-0.05475795995207,-0.1208406632886305,-4.65,25.35,23.55,-114.25781,-93.75,965.82031,0.091529778363563,-0.0169204434993094,0.1209740064434829,71.55,4.95,88.05,-847.16797,16.11328,520.50781,-0.19132002554389,0.0310429496747467,0.0434333911005048,58.05,21.0,21.3
-920.41016,-33.69141,-346.19141,0.0363721380127862,-0.0724777642487929,-0.0079939570399844,-4.2,25.5,22.65,-109.86328,-79.58984,977.05078,0.0658161915597809,0.018385996472209,0.123238920213796,70.2,4.95,87.75,-846.67969,5.37109,511.71875,-0.2010458728006284,0.0415681577288985,0.0321086477160144,59.1,21.0,20.25
-913.08594,-41.01563,-344.72656,0.0325085026476463,-0.0643506385868813,0.0270459711547545,-5.25,23.7,25.8,-126.46484,-88.37891,992.1875,0.0909969293429291,0.0233155044115418,0.1285681085518354,71.25,3.15,88.05,-859.86328,0.48828,555.17578,-0.2617993877991494,-0.0131899767560967,0.0622190679714206,57.45,20.55,20.85
-927.24609,-40.03906,-353.51562,-0.0149218669728507,0.0205175670876697,-0.0235820161883213,-3.75,26.55,23.25,-120.11719,-88.37891,1003.90625,0.0506278128101507,0.0297105653237742,0.0869999508229369,71.25,3.15,88.05,-863.28125,2.92969,538.57422,-0.2759218939745868,-0.0203843984657425,0.045165455850184,57.6,21.75,21.3
-936.03516,-30.76172,-357.42187,0.0298437339457014,0.0010658725741929,0.0267794593779749,-3.75,26.55,23.25,-124.02344,-96.19141,1015.13672,0.0710122112758932,-0.0242480338308824,0.1155114749505911,70.5,3.45,87.75,-875.0,13.18359,520.01953,-0.2467441776714463,-0.0027979373238721,-0.014522186574144,57.9,22.35,20.1
-953.61328,-41.01563,-363.28125,0.0070612530877186,-0.006128723668378,0.0523598775598298,-6.0,25.05,22.65,-130.37109,-111.32813,1000.97656,0.1144456023763981,-0.0026645941690197,0.1195084534705833,69.9,3.75,86.55,-876.95312,12.69531,537.10937,-0.2660628780959211,-0.0532925815120956,0.0310429496747467,58.35,22.5,21.75
-937.5,-28.32031,-369.62891,-0.0153215473715574,0.0030642745677264,0.023981696587028,-4.05,25.65,22.5,-149.41406,-102.05078,963.37891,0.0039969785199922,-0.2570030484817438,0.240882140312773,72.3,4.2,86.7,-876.46484,14.64844,538.08594,-0.3169572026828514,0.0011990411961201,0.0390367321818059,57.15,22.65,21.6
-936.03516,-30.76172,-360.35156,0.0458314734927451,0.015055210127703,0.0289112045263608,-3.75,24.75,22.95,-74.21875,-126.46484,1034.17969,0.1518836129633773,-0.0081271256619115,0.1510842521659639,72.3,4.2,86.7,-879.88281,-8.78906,571.28906,-0.3639877173717166,-0.0009327039522657,0.0450321126953316,57.15,22.65,21.6
-953.125,-22.94922,-360.83984,0.0157212277702641,0.0253139064050753,0.0033307863445059,-4.2,25.05,21.9,-129.88281,-86.42578,1027.83203,0.0803383781339249,0.0283781809728018,0.1490856756395052,69.9,3.3,88.35,-886.23047,-7.8125,555.17578,-0.3342771520479423,-0.0190520141147701,0.0548913031069224,57.3,22.2,21.75
-959.47266,-19.04297,-365.23437,-0.0254472495599277,0.0454317930940384,-0.0233155044115418,-4.2,25.05,21.9,-119.62891,-109.375,1044.92188,0.1350965126189202,-0.0197182062902563,0.1390934911389125,69.9,4.5,87.15,-872.07031,-13.67187,514.64844,-0.2693934899075019,-0.0421010067495324,0.1021883295725672,57.3,22.2,21.75
-975.09766,11.71875,-354.00391,-0.0367718184114929,-0.0433002224785777,0.0023980823922402,-5.4,24.9,23.85,-101.07422,-96.67969,1011.71875,0.1398928519363259,0.0141225061754373,0.1553475679298105,69.9,4.5,87.15,-890.13672,-27.83203,561.52344,-0.343603318905974,0.0147886983509235,0.068614128883653,58.5,21.15,20.55
-959.96094,-2.44141,-365.23437,-0.0161209081689708,-0.0251807377831481,-0.0021317451483858,-4.65,25.65,21.75,-109.86328,-95.21484,1053.71094,0.1293674693492489,0.0171867807431637,0.1212403436873373,69.75,4.65,87.45,-877.92969,-46.38672,562.01172,-0.2955069316429159,-0.0720780838500862,0.0782068075184643,58.35,22.95,21.75
-980.46875,-24.41406,-373.53516,-0.0615528757959344,0.0083936374386911,-0.0077274452632048,-4.05,24.6,22.8,-104.49219,-92.28516,1043.94531,0.0904640803222952,-0.0030642745677264,0.1909203451451833,70.8,4.95,88.05,-887.69531,-63.96484,578.61328,-0.291110272724217,-0.0086599746825454,0.1068515002680456,56.25,22.95,22.5
-996.09375,-38.57422,-365.72266,-0.0543582795533633,-0.0266462907560478,-0.0459648166475974,-4.05,24.6,22.8,-83.49609,-83.00781,1050.29297,-0.0021317451483858,-0.0217166082837898,0.2366186500160012,71.7,5.25,87.6,-883.78906,-76.17188,579.10156,-0.2302235891037688,0.0226493122360556,0.1223062162615302,58.5,21.9,21.6
-984.375,-38.57422,-362.79297,-0.0470306892217904,-0.0466310088230837,0.0009327039522657,-4.5,25.05,22.95,-205.07812,-102.53906,1063.47656,-0.0463644970463041,-0.3869035413845518,0.2267596341373356,71.7,5.25,87.6,-867.67578,-70.3125,539.0625,-0.1520167815853045,-0.0098591904115907,0.2009127041787012,58.5,22.35,21.6
-980.46875,-25.39063,-354.49219,-0.0592879620256213,-0.0568897051004559,-0.0146553551960711,-4.35,25.35,23.55,-80.07813,-147.94922,1074.70703,-0.0798055291132911,-0.1394931715376192,0.1819938586858583,71.7,5.25,87.6,-860.83984,-65.42969,573.73047,-0.1552143993078833,0.0350397536618137,0.1317657262744143,56.7,22.65,22.95
-952.14844,-44.92188,-345.21484,-0.0095926786348112,-0.0602204914449619,-0.0130566336012443,-4.35,25.35,23.85,-71.77734,-127.44141,1038.08594,-0.027312482931534,-0.0174532925199432,0.1833262430368307,69.75,3.9,88.5,-866.69922,-67.87109,526.85547,-0.1155114749505911,0.0381042027624654,0.1664057995375213,56.7,22.65,22.95
-936.52344,-45.89844,-341.79687,0.0365053066347134,-0.0711455544307456,0.0318423104721601,-4.95,24.3,24.0,-81.54297,-142.57812,1036.13281,0.0063950609122324,0.0049295079393327,0.1708024584562202,69.45,3.9,88.8,-859.86328,-39.0625,518.06641,-0.036238969390859,0.0335742006889141,0.1249709849634751,56.7,22.65,22.95
-935.54687,-40.52734,-341.79687,-0.0010658725741929,-0.0203843984657425,-0.031309286918601,-4.95,24.3,24.0,-101.5625,-131.83594,993.65234,0.0471638578437175,0.022382800459276,0.1309663654770009,70.35,4.5,87.6,-844.72656,-22.94922,553.71094,-0.0640843013430269,0.0294440535469947,0.1521501247401568,57.3,22.2,22.05
-946.77734,-20.50781,-341.79687,-0.0460979852695246,-0.0238483534321757,0.0207840788644492,-5.25,24.75,23.7,-88.37891,-122.55859,972.16797,0.0655498543159266,0.0001331686219271,0.1472204422678988,69.9,5.55,87.6,-832.03125,-45.41016,516.11328,-0.0764747427687851,0.0135896571548034,0.1068515002680456,57.3,22.2,22.05
-962.40234,-24.41406,-337.89062,0.0567565364785288,-0.032375159492794,0.0751423584178126,-4.05,24.6,23.85,-91.79688,-122.07031,974.12109,0.0674150876875329,0.04849624219469,0.1276355791324949,70.8,4.2,86.7,-827.14844,-54.6875,559.08203,-0.1465544246253378,0.0487625794385443,0.1308330223221485,58.35,22.95,22.05
-954.58984,-29.78516,-336.42578,0.0083936374386911,0.0143890179522168,0.014522186574144,-3.75,27.3,22.65,-70.80078,-103.02734,987.79297,0.1085833904847996,0.0989908863829135,0.1152449631738115,71.7,5.55,87.9,-818.35937,-67.87109,540.52734,-0.1449555284975858,0.0393032439585855,0.1045865864977326,57.3,24.0,20.25
-957.03125,-20.01953,-349.60937,-0.0038636353651398,-0.0090596550812521,-0.0074609334864253,-4.05,26.4,23.1,-59.08203,-105.95703,993.65234,0.1520167815853045,0.0431668793237253,0.0891316959713228,71.7,5.55,87.9,-799.80469,-61.52344,520.01953,-0.1777305429220118,0.0315757986953806,0.1520167815853045,56.7,20.85,20.85
-978.02734,-6.83594,-340.82031,0.0343737360192527,-0.0863337586474507,0.0443659205198454,-4.05,26.4,23.1,-60.54688,-74.21875,997.07031,0.187989239199384,0.0844685252758443,0.064750318985588,69.45,5.4,87.0,-818.84766,-67.87109,575.68359,-0.1937182824690554,-0.0318423104721601,0.1112481591867445,57.15,22.35,21.6
-992.1875,8.30078,-322.75391,0.0295773967018471,0.025713586803782,0.0191853572696224,-4.95,26.55,22.65,-67.87109,-46.38672,978.51562,0.1926524098948624,0.1129800494034985,0.0763415741468579,70.2,5.4,86.25,-840.33203,-65.42969,555.17578,-0.187989239199384,0.037970859607613,0.1064518198693389,57.15,22.35,21.6
-975.58594,29.29688,-323.24219,-0.0367718184114929,-0.0913966097416358,0.0615528757959344,-4.35,26.1,23.55,-39.55078,-38.08594,999.02344,0.0760750623700784,0.1063184767144865,0.0995237354035474,70.2,3.9,87.75,-823.24219,-67.87109,569.33594,-0.1961163648612956,0.0528927265804637,0.0877993116203503,57.6,22.2,23.1
-983.88672,49.80469,-312.98828,0.0018652333716063,-0.1105819670112583,0.1305666850782942,-4.65,25.35,22.8,-46.38672,-82.03125,1012.69531,0.0162542513238231,0.0884655037958365,0.0941945470655079,72.45,4.8,86.85,-821.28906,-74.21875,569.33594,-0.1613431229762614,0.0739433172216925,0.0263797789792682,57.6,22.2,23.1
-969.72656,35.15625,-321.28906,-0.0554241521275563,-0.1536156777130565,0.0690138092823597,-4.5,25.05,24.75,-63.96484,-96.67969,963.37891,-0.0363721380127862,0.1060521394706322,0.0746095093971788,70.35,5.55,88.35,-822.75391,-64.45313,557.12891,-0.0727442760255724,0.071944915228159,0.0782068075184643,57.0,22.95,21.75
