IMU1_AccX,IMU1_AccY,IMU1_AccZ,IMU1_GyrX,IMU1_GyrY,IMU1_GyrZ,IMU1_MagX,IMU1_MagY,IMU1_MagZ,IMU2_AccX,IMU2_AccY,IMU2_AccZ,IMU2_GyrX,IMU2_GyrY,IMU2_GyrZ,IMU2_MagX,IMU2_MagY,IMU2_MagZ,IMU3_AccX,IMU3_AccY,IMU3_AccZ,IMU3_GyrX,IMU3_GyrY,IMU3_GyrZ,IMU3_MagX,IMU3_MagY,IMU3_MagZ
0.09130859500000002,0.5471191400000001,0.309570315,0.5000376378507864,0.5000544249511308,0.5000652833425392,-7.05,27.75,17.7,0.28881836,0.4921875,0.95654297,0.49998481162125036,0.4999958698528581,0.5000001332558884,85.95,0.9,78.15,0.0007324199999999905,0.5080566400000001,0.548828125,0.4999910735135407,0.49998174734668266,0.5000039303069426,56.1,19.35,-9.3
0.08349609500000002,0.5612792950000001,0.309570315,0.5000038637226316,0.5000524264618708,0.500026113354469,-5.7,28.2,17.85,0.29248047,0.48803711,0.9636230450000001,0.49997688442305427,0.5000189854298038,0.4999990673833142,85.5,0.3,78.6,-0.011474609999999984,0.505126955,0.53955078,0.500011324656118,0.49996289508550074,0.4999815475064833,56.25,19.5,-7.65
0.08154297000000002,0.548828125,0.298339845,0.5000085268060606,0.500075542126083,0.5000419012538166,-5.7,27.9,18.3,0.295166015,0.483398435,0.9763183599999999,0.49996635912773363,0.5000486294108166,0.49999054057725356,87.3,1.5,78.6,-0.013916015000000016,0.50854492,0.549316405,0.5000433001352121,0.49993764776340666,0.49997008959447686,55.8,22.2,-6.9
0.06958008000000002,0.5283203150000001,0.28466797,0.5000072610932871,0.5000845351968533,0.5000111914002296,-6.6,26.55,18.15,0.290283205,0.478759765,0.9807128900000001,0.4999719548278485,0.5000251807377831,0.4999551010559266,84.9,-0.15,76.35,-0.014160155000000032,0.50854492,0.5485839849999999,0.500075475541772,0.499871032123783,0.5000017319774832,54.9,20.1,-6.15
0.04614258000000001,0.5270996099999999,0.286621095,0.4999880758232839,0.5001208407505551,0.4999843453565407,-6.6,26.55,18.15,0.29638672,0.48388672000000005,0.97705078,0.49999160644982776,0.5000061286364019,0.499957898905984,84.9,0.9,78.15,-0.012207030000000032,0.49682617,0.5305175799999999,0.5000784732320288,0.49985337899106375,0.5000058622118916,56.1,21.15,-6.75
0.04516601500000002,0.5100097650000001,0.28881836,0.49999753524603036,0.5000813376663972,0.4999992672235135,-6.6,26.55,18.15,0.29345703,0.48681640499999995,0.96972656,0.500006728157,0.499977284103453,0.49996156278841625,86.85,1.05,78.0,-0.007080080000000009,0.506835935,0.5263671900000001,0.5000957266843493,0.49992845485243703,0.5000286446927495,56.1,21.15,-6.75
0.037109375,0.5114746099999999,0.283203125,0.5000324418310702,0.5000639509581881,0.4999668920640208,-5.7,27.15,18.6,0.29638672,0.48022461,0.9665527349999999,0.500009326166858,0.5000176531327193,0.4999339172966634,86.85,1.05,78.0,-0.008300779999999975,0.510253905,0.5339355450000001,0.5001181760691196,0.49988662018293134,0.5000162542513238,55.8,19.95,-8.4
0.04565429499999999,0.515625,0.28540039,0.5000177197170302,0.5001015222246635,0.49994837289892663,-6.15,27.15,17.85,0.283935545,0.47900390499999995,0.96972656,0.5000075941893748,0.5000415015734179,0.4999347833290383,87.45,0.9,78.9,-0.015380859999999984,0.5153808599999999,0.5300292950000001,0.5001139127533557,0.49992665620337634,0.5000170536121212,55.8,19.95,-8.4
0.030761720000000024,0.51611328,0.28100586,0.5000529593981579,0.5000717449877623,0.4999997335754897,-5.55,27.3,17.1,0.287597655,0.477783205,0.979003905,0.500016054323858,0.5000289112045264,0.4999440429115854,86.25,0.75,77.25,-0.01660156500000005,0.513183595,0.541015625,0.5001328315115822,0.4999407787095518,0.5000327082555805,55.8,20.7,-6.6
0.015136720000000025,0.5126953150000001,0.259277345,0.5000662825435359,0.5000758085505933,0.5000238483534322,-6.0,27.75,16.35,0.291748045,0.484375,0.9787597650000001,0.50001945178178,0.5000211837592632,0.49991486528254864,84.6,-0.15,78.45,-0.01464844000000005,0.5185546900000001,0.5354003900000001,0.500127035971268,0.49994437592040664,0.500008660061949,56.25,20.25,-6.3
-0.008056640000000016,0.49584961,0.2578125,0.5000571562168772,0.5000764747427687,0.4999636278619872,-6.0,27.75,16.35,0.29736328,0.493164065,0.9709472650000001,0.5000329747673573,0.499997335405831,0.4999152649629474,84.6,-0.15,78.45,-0.007080080000000009,0.5148925799999999,0.5380859400000001,0.5001227059839267,0.4999340505525518,0.500051493845185,56.7,19.8,-8.25
-0.01464844000000005,0.501953125,0.270507815,0.5001072511806668,0.5000150551228613,0.5000102587835439,-7.5,26.4,17.55,0.294189455,0.49511719,0.9660644549999999,0.5000436998156108,0.49999447088419613,0.4999012090410829,84.6,-0.15,78.45,0.0017089849999999843,0.5178222650000001,0.5354003900000001,0.50011571131515,0.4999676248405072,0.5000155880591484,56.1,20.1,-7.2
-0.005859375,0.4921875,0.28149414,0.5001097825189473,0.49999693563816583,0.5000151217071722,-7.2,27.45,16.5,0.29638672,0.50317383,0.966308595,0.5000443660077863,0.4999814808349059,0.49989827793513714,85.05,1.05,78.0,0.0031738300000000094,0.5178222650000001,0.5341796900000001,0.5001214402711531,0.4999916730341387,0.5000150551228613,56.1,20.1,-7.2
0.01879883000000001,0.5119628900000001,0.27319336,0.5000862672616029,0.4999842121006523,0.5000233820887224,-7.05,28.05,18.15,0.30371094,0.50463867,0.9567871099999999,0.5000583552580733,0.49997908266524715,0.49991160108051513,85.35,-0.15,79.5,0.005126955000000009,0.508789065,0.5244140650000001,0.500132165406673,0.5000206508229761,0.500022049791638,56.1,19.35,-6.45
0.03759765499999997,0.52685547,0.283203125,0.5000756087103939,0.4999656929355582,0.4999910069292297,-7.05,28.05,18.15,0.296875,0.48779297000000005,0.950683595,0.5000438330714992,0.49998694336639876,0.4999118675050254,85.35,-0.15,79.5,-0.004150390000000016,0.52392578,0.5397949200000001,0.5001526829737608,0.5000440329116985,0.5000023315853478,56.1,19.35,-6.45
0.05346679499999999,0.528808595,0.278564455,0.5001097825189473,0.4999593644589569,0.5000120574326045,-7.05,27.3,18.75,0.294677735,0.49682617,0.9611816400000001,0.5000270459711548,0.5000055291158039,0.499897678414539,86.55,0.3,78.0,-0.005615234999999984,0.5241699200000001,0.5480957049999999,0.5001493521874163,0.5000237151848103,0.5000219831200605,55.5,19.2,-6.3
0.03613281499999999,0.52392578,0.26977539,0.5000582886737623,0.4999640942139633,0.49998687669482134,-7.05,27.75,17.1,0.290527345,0.501953125,0.9665527349999999,0.5000464976656682,0.5000102587835439,0.49988215693970167,84.6,0.15,79.5,-0.009277345000000025,0.5383300799999999,0.5520019549999999,0.5001704693623684,0.4999584318422711,0.4999804816339091,56.25,19.2,-7.95
0.03417968999999999,0.505859375,0.28051758,0.5000349731693509,0.4999581654177608,0.5000065949883781,-6.45,27.15,17.55,0.295166015,0.51123047,0.97705078,0.5000397029243573,0.4999993338078245,0.499895080404681,84.6,0.45,78.15,-0.0031738300000000094,0.54638672,0.5432128900000001,0.500173866733024,0.49993917990069053,0.5000198514621786,56.4,19.35,-6.45
0.029052734999999986,0.49267577999999995,0.28466797,0.5000608866836205,0.49991699694043057,0.5000177197170302,-6.15,28.65,16.8,0.296875,0.517578125,0.982421875,0.5000141225061755,0.49998927486448,0.499886353758421,84.6,0.45,78.15,-0.007324220000000025,0.54345703,0.5485839849999999,0.5001751324457975,0.49996915697779104,0.4999937381077097,56.7,20.55,-6.75
0.028808595000000024,0.493408205,0.301757815,0.5000259135142696,0.4999499717077879,0.5000007993607974,-6.15,28.65,16.8,0.306396485,0.5383300799999999,0.9846191400000001,0.5000148552826619,0.5000031309461451,0.4998921492987352,85.65,0.15,77.4,-0.004394529999999975,0.548339845,0.5400390650000001,0.5001361622979267,0.49996396095807494,0.49998341273985486,56.7,20.55,-6.75
0.04516601500000002,0.49291992,0.31689453,0.5000497618677018,0.49990433998722805,0.4999764180710781,-6.45,24.9,16.2,0.30883789,0.5417480450000001,0.975097655,0.5000164540915232,0.49999054057725356,0.499886420342732,85.5,0.3,78.6,0.005371095000000025,0.5524902349999999,0.537109375,0.5001342304802441,0.49996589277575754,0.4999982680225168,56.7,19.35,-7.5
0.05517577999999997,0.501464845,0.311035155,0.5000452320401612,0.4999094027510558,0.49998887518408136,-6.6,27.75,17.1,0.30761719,0.537597655,0.9636230450000001,0.49998341273985486,0.4999914731939394,0.4999265896190654,86.25,-0.3,78.3,0.01489258000000001,0.55859375,0.533691405,0.5001297672370144,0.4999914731939394,0.49998934153605745,55.35,18.6,-6.15
0.06469726500000002,0.5056152349999999,0.32006836,0.5000311761182967,0.4999350497535486,0.49998168067510523,-5.7,27.15,18.9,0.310058595,0.537109375,0.9445800799999999,0.5000075276050638,0.4999774839436523,0.49995197010978143,85.5,-1.5,77.25,0.011474609999999984,0.5544433599999999,0.53515625,0.5001178430602984,0.500024048280898,0.4999788828250478,55.35,18.6,-6.15
0.05810547000000003,0.501464845,0.31542969,0.5000310428624083,0.49996622587184525,0.4999548346314163,-5.7,27.15,18.9,0.31982422,0.529296875,0.95263672,0.5000108583041419,0.5000378376909856,0.4999564333530111,85.05,-1.5,79.05,0.005371095000000025,0.545410155,0.537109375,0.5001148453700416,0.500015388218949,0.4999916730341387,56.25,19.5,-6.6
0.04565429499999999,0.501464845,0.299072265,0.5000245811299187,0.4999470406018421,0.5000129900492903,-6.0,26.25,17.4,0.31225586,0.5158691400000001,0.9665527349999999,0.5000295107251244,0.5000275122358644,0.4999464410812441,85.95,0.15,78.9,0.013916015000000016,0.5515136700000001,0.5397949200000001,0.5001340972243556,0.5000591547061373,0.5000014655529729,56.7,17.85,-6.15
0.028808595000000024,0.49633789,0.29638672,0.5000009992009967,0.49995017154798727,0.49998794256739554,-7.2,25.35,16.5,0.3515625,0.561035155,0.966308595,0.49998261329179106,0.5000216501112393,0.500005196019716,85.95,0.15,78.9,0.005859375,0.5456542950000001,0.54736328,0.5000891316959714,0.5000685474573062,0.49999007431254394,56.55,18.45,-5.55
0.023193359999999986,0.5036621099999999,0.2890625,0.5000103254551213,0.4999692902336795,0.4999824801231691,-6.6,26.55,17.1,0.317871095,0.48583984500000005,0.9528808599999999,0.5000121240169154,0.49995070448427437,0.49996456047867305,85.5,0.0,77.25,-0.0034179700000000254,0.5322265650000001,0.5466308599999999,0.5000666156396236,0.500086933366512,0.49998141425059495,55.8,17.7,-6.6
0.020996095000000024,0.49462890499999995,0.29711914,0.5000141225061755,0.499922459384657,0.5000061286364019,-5.7,26.4,17.85,0.267822265,0.49926758,0.9499511700000001,0.4999467740900653,0.49996416079827427,0.5000064617324896,85.05,-2.25,78.3,-0.0034179700000000254,0.5417480450000001,0.54638672,0.5000446991038741,0.5000548913031069,0.49999140660962843,56.1,19.35,-8.55
0.03417968999999999,0.48974609500000005,0.30126953,0.4999972021499426,0.4999297204779441,0.49999487056459485,-5.7,26.4,17.85,0.28442383,0.509033205,0.967285155,0.5000096592629458,0.5000454984646715,0.4999802817937098,85.8,-1.5,77.25,-0.0017089849999999843,0.5324707049999999,0.5461425799999999,0.5000527595579586,0.5000580221619856,0.49998707653502067,57.45,18.6,-6.75
0.03564452999999997,0.497070315,0.30419922,0.5000011990411961,0.4999385803800924,0.5000192519415806,-6.3,26.25,18.15,0.29296875,0.48071289,0.986328125,0.49996322818158856,0.4999976018303413,0.49998274654767944,85.65,-0.15,78.45,-0.017333984999999986,0.5383300799999999,0.5595703150000001,0.5000579555776746,0.5000315092143844,0.49998174734668266,57.45,18.6,-6.75
0.04736327999999997,0.497070315,0.31689453,0.5000249808975838,0.49991666384434286,0.5000284448525503,-6.0,25.8,18.15,0.30151367,0.5078125,0.9733886700000001,0.4999813476662839,0.4999970023097432,0.5000045298275406,85.5,-0.3,79.8,-0.008056640000000016,0.5427246099999999,0.5539550799999999,0.5000618193003062,0.4999828798035678,0.49998347932416587,56.7,17.85,-6.75
0.05981445500000001,0.5036621099999999,0.326660155,0.49999187287433805,0.49994544179298084,0.500015321634638,-5.1,27.45,16.8,0.314208985,0.475585935,0.983398435,0.49996955665818976,0.49999267232240197,0.49999820135093936,85.95,-1.2,78.15,-0.005859375,0.5441894549999999,0.5544433599999999,0.5000686141288837,0.49996715848853107,0.4999798154417336,56.7,17.85,-6.75
0.05786133000000001,0.5126953150000001,0.318603515,0.499997401990142,0.4999673583287304,0.49999247239493616,-5.1,27.45,16.8,0.303466795,0.487060545,0.9929199200000001,0.4999654930953588,0.4999964027891452,0.49996849078561556,85.95,-1.2,78.15,-0.01171875,0.5498046900000001,0.55908203,0.5000638177895662,0.4999576324814737,0.49999553675677033,57.0,18.0,-8.4
0.04565429499999999,0.5100097650000001,0.31152344,0.5000123905286922,0.4999589647785582,0.5000416347420399,-6.3,26.55,16.65,0.32006836,0.48193359500000005,0.98046875,0.4999649601590717,0.4999963361175678,0.5000162542513238,85.95,-1.2,77.7,-0.01953125,0.5324707049999999,0.5622558599999999,0.5000458981450702,0.49997242109255813,0.4999769510073652,56.55,18.45,-5.85
0.028320314999999995,0.505126955,0.314453125,0.5000084602217496,0.49997441958181815,0.5000201845582664,-5.7,26.4,15.75,0.31933594,0.48120117,0.9777832049999999,0.4999780168799394,0.4999890750242807,0.4999649601590717,85.05,-0.3,78.0,0.0024414049999999746,0.525878905,0.5546875,0.5000308430222089,0.4999775505279633,0.4999812144103955,55.8,18.45,-7.65
0.03271484500000003,0.49536133,0.317382815,0.49997708426325366,0.4999783498887607,0.5000105252953206,-6.9,26.7,18.3,0.31933594,0.487304685,0.9816894549999999,0.5000017319774832,0.49998687669482134,0.4999912067694291,86.25,-1.05,77.25,-0.0007324199999999905,0.5251464849999999,0.55810547,0.5000431002950128,0.49998534455753746,0.49999713556563163,57.0,18.75,-6.9
0.028320314999999995,0.50390625,0.31933594,0.5000225827279251,0.4999429770390112,0.5000156546434593,-5.1,26.1,17.25,0.317871095,0.48828125,0.9802246099999999,0.5000188522611819,0.4999928721626013,0.49997368680533166,86.25,-1.05,77.25,-0.004394529999999975,0.52294922,0.56201172,0.5000345734889522,0.4999938713635981,0.4999780834642504,55.8,17.4,-5.85
0.02416991999999999,0.50048828,0.31689453,0.500006728157,0.4999608300119298,0.5000279119162632,-5.1,26.1,17.25,0.31201172,0.47973633,0.98095703,0.500016054323858,0.49998427868496326,0.4999409119654402,85.5,-1.05,78.0,0.0012207050000000094,0.5148925799999999,0.5529785150000001,0.5000696133298804,0.4999696899140782,0.5000059953805135,55.65,19.05,-7.2
0.02465820500000001,0.49853515499999995,0.31591797,0.5000275789074419,0.4999467740900653,0.5000210505033748,-6.15,26.1,17.55,0.317382815,0.47607422000000005,0.9763183599999999,0.5000044632432297,0.4999832128996555,0.4999668920640208,85.05,0.0,78.6,0.009277345000000025,0.513671875,0.5537109400000001,0.500068281032796,0.49995689970498725,0.49998587749382456,55.65,19.05,-7.2
0.03540039000000002,0.50048828,0.322753905,0.5000364387223237,0.4999323851593796,0.5000432335509012,-5.7,24.6,17.55,0.325927735,0.49291992,0.96875,0.5000288445329489,0.49999247239493616,0.49997415315730787,85.05,0.0,78.6,0.0009765649999999937,0.51953125,0.5690917950000001,0.5000632181817017,0.4999813476662839,0.49999540350088195,56.1,17.55,-7.2
0.03613281499999999,0.502441405,0.326171875,0.5000148552826619,0.49994044561346407,0.5000327749271579,-5.1,25.65,16.2,0.303222655,0.50048828,0.948242185,0.5000127236247799,0.4999821470270813,0.49996196246881497,84.0,-1.8,79.05,0.00024414000000001578,0.5217285150000001,0.56640625,0.5000922626421165,0.49995743264127435,0.5000250474818948,57.15,17.1,-8.25
0.04663085999999998,0.506347655,0.325195315,0.5000237151848103,0.4999449088566937,0.500028711364327,-6.6,26.55,16.2,0.30419922,0.48974609500000005,0.95263672,0.4999897412164561,0.499997934926429,0.4999466409214434,84.6,0.15,78.45,0.01098633000000001,0.5185546900000001,0.5544433599999999,0.5000998568314913,0.4999466409214434,0.5000105252953206,57.15,17.55,-6.75
0.03637695500000001,0.51074219,0.32421875,0.5000598874826238,0.499944509176295,0.5000585550982727,-6.6,26.55,18.45,0.317382815,0.48022461,0.9704589849999999,0.4999807480584194,0.500002664594169,0.49996276182961236,85.05,-1.8,79.05,0.010009765000000016,0.517578125,0.5554199200000001,0.500080205209512,0.49994870599501434,0.5000205176543542,56.4,18.6,-7.2
0.04321289000000002,0.51098633,0.325195315,0.5000212503435741,0.49995636676870014,0.5000245811299187,-6.6,26.55,18.45,0.322021485,0.483154295,0.9694824200000001,0.49999573659696966,0.5000114579120064,0.4999609632678182,85.05,-1.8,79.05,0.0034179700000000254,0.5158691400000001,0.5598144549999999,0.5000989242148055,0.49993431697706214,0.500008660061949,56.4,18.6,-7.2
0.03955077999999997,0.510498045,0.31982422,0.5000338407124657,0.4999457083047576,0.5000125236973141,-4.35,24.6,17.25,0.30883789,0.47973633,0.96923828,0.499997934926429,0.5000077940295742,0.49995603367261243,85.35,-0.9,78.45,0.00024414000000001578,0.5078125,0.5617675799999999,0.5000905972489442,0.4998912166820494,0.500011324656118,55.8,18.0,-6.3
0.03613281499999999,0.50463867,0.3125,0.5000504280598773,0.49992665620337634,0.5000363721380128,-5.4,26.4,17.25,0.31567383,0.478515625,0.9870605450000001,0.500022116375949,0.49998201377119295,0.49994177791054856,87.3,-1.5,78.0,0.0026855449999999906,0.5280761700000001,0.5510253900000001,0.5001199081338693,0.49988022512201913,0.5000323085751819,58.35,17.7,-7.65
0.03588866999999999,0.49609375,0.302490235,0.500024780970118,0.4999422442625247,0.5000258468426921,-6.0,25.5,16.65,0.299316405,0.482421875,0.97216797,0.500015987739547,0.4999788828250478,0.49994737369792985,85.65,-2.7,78.15,-0.006347654999999975,0.5339355450000001,0.552246095,0.5000937281950893,0.4998962794458771,0.5000129900492903,58.35,17.7,-7.65
0.03784179499999999,0.48779297000000005,0.310546875,0.5000328415114689,0.4999616293727272,0.49999800151074,-6.0,25.5,16.65,0.301757815,0.49169922000000005,0.9748535150000001,0.5000338407124657,0.4999780168799394,0.499935849114346,85.65,-2.7,78.15,-0.004150390000000016,0.5329589849999999,0.5451660150000001,0.5001094494228596,0.4998966125419648,0.5000369050742999,55.35,17.1,-6.15
0.03344726500000002,0.483398435,0.30883789,0.5000529593981579,0.49993018682992024,0.5000173867082089,-4.05,25.35,18.6,0.29296875,0.48071289,0.9724121099999999,0.5000273789799761,0.4999851447173381,0.4999459747292679,87.3,-1.5,78.3,-0.0031738300000000094,0.53857422,0.5422363299999999,0.5000780068800527,0.4999231255768325,0.49997182157196013,55.35,17.1,-6.15
0.037109375,0.48681640499999995,0.30834961,0.5000541585266205,0.4999199280463764,0.5000324418310702,-5.4,25.35,18.3,0.299560545,0.48754883,0.9826660150000001,0.5000201845582664,0.49999094025765234,0.49996109643644016,85.5,0.3,78.3,-0.003662109999999984,0.5329589849999999,0.5458984400000001,0.5000656163513604,0.4999604303315311,0.4999976018303413,56.1,16.8,-8.25
0.03857422000000003,0.49462890499999995,0.306884765,0.500030776437898,0.4999462411537783,0.5000065283168006,-5.4,26.1,17.55,0.298583985,0.498779295,0.9777832049999999,0.5000386370517831,0.49996635912773363,0.49995969755504466,86.85,-0.3,77.55,0.0,0.53857422,0.5344238299999999,0.5000678146808197,0.5000075941893748,0.4999840788447639,57.45,17.85,-6.15
0.02221679499999999,0.506835935,0.30834961,0.5000646171503637,0.4999172633649409,0.5000393698282696,-6.0,26.25,17.4,0.30004883,0.491210935,0.974121095,0.5000218499514386,0.4999716884033381,0.4999660260316459,86.85,-0.3,77.55,-0.00903320500000001,0.5451660150000001,0.560058595,0.5000656830229379,0.4999504379724976,0.4999925390665136,57.3,18.0,-6.3
0.025878904999999976,0.50488281,0.303222655,0.5000686141288837,0.4999040734754513,0.5000616860444178,-6.0,26.25,17.4,0.30102539,0.49926758,0.9587402349999999,0.5000231822485232,0.49996749158461884,0.4999529693980447,85.35,-0.9,78.9,0.0048828149999999935,0.5400390650000001,0.5441894549999999,0.5000831363154578,0.4999754188700814,0.5000299104055231,57.15,16.8,-7.8
0.030761720000000024,0.509033205,0.307373045,0.5000279785878405,0.4999340505525518,0.5000312427026077,-5.7,25.65,18.6,0.29638672,0.49633789,0.9611816400000001,0.5000231822485232,0.499984678365362,0.49995370217453117,85.65,-2.4,78.15,0.0034179700000000254,0.5378417950000001,0.541503905,0.5000750757741068,0.49998081472999684,0.5000036638824322,57.15,16.8,-7.8
0.04345702999999997,0.506591795,0.30810547,0.5000478300500192,0.49990207507345774,0.5000548246315295,-5.55,27.0,17.4,0.303222655,0.491210935,0.963867185,0.5000056622844258,0.5000055291158039,0.49995363550295374,85.8,-2.25,78.6,0.002197265000000016,0.5446777349999999,0.541503905,0.5000591547061373,0.4999783498887607,0.5000154548032599,56.55,17.7,-6.3
0.04736327999999997,0.505126955,0.31323242,0.5000308430222089,0.49992272589643383,0.5000418345822393,-5.55,26.25,17.4,0.302246095,0.49755859500000005,0.9724121099999999,0.5000151883787497,0.49998740963110844,0.4999597641393556,86.7,-1.95,78.15,0.009765625,0.5397949200000001,0.5361328150000001,0.5000149885385503,0.49998347932416587,0.5000162542513238,56.55,17.7,-6.3
0.04125976500000002,0.49682617,0.310546875,0.5000115244963174,0.49994943877150083,0.500013323145378,-5.55,26.25,17.4,0.3046875,0.493896485,0.9660644549999999,0.5000113912404289,0.499975285614193,0.49998101457019617,84.9,-1.95,78.9,0.01171875,0.5437011700000001,0.5451660150000001,0.5000002664245103,0.5000079938697736,0.49999820135093936,57.15,17.1,-6.75
0.04150390499999997,0.49755859500000005,0.30810547,0.5000547580472186,0.49992772207595054,0.5000403690292663,-3.15,27.0,17.7,0.30029297,0.494384765,0.963867185,0.500026646290756,0.4999877427271962,0.4999508376528963,86.25,-0.75,78.3,0.009765625,0.54345703,0.5314941400000001,0.4999791493368246,0.5000187190052935,0.4999997335754897,57.45,16.35,-6.45
0.03979491999999999,0.49609375,0.314941405,0.5000669487357113,0.49991639741983257,0.5000301102457225,-5.1,25.35,17.25,0.30419922,0.490966795,0.955566405,0.5000059953805135,0.5000053292756045,0.49997648465538913,86.25,-0.75,78.3,0.01684570500000001,0.5446777349999999,0.5280761700000001,0.4999631615972775,0.5000771408476778,0.4999988009588039,56.1,16.35,-7.2
0.04150390499999997,0.50073242,0.31201172,0.5000391699880702,0.4999628285011898,0.5000155214748374,-5.7,24.6,17.25,0.29614258,0.49365234500000005,0.95800781,0.4999970688940542,0.5000129234649794,0.4999590980344466,84.45,-1.5,79.8,-0.0014648450000000254,0.5354003900000001,0.5390625,0.4999359823702344,0.5000791393369378,0.4999842121006523,57.9,17.1,-6.45
0.03588866999999999,0.501464845,0.30810547,0.500086866782201,0.4999354494339473,0.5000046630834291,-4.2,25.05,18.15,0.294189455,0.5036621099999999,0.9650878900000001,0.5000008660323748,0.5000067948285775,0.49999420445968584,85.65,-0.9,78.9,0.0029296899999999935,0.5354003900000001,0.5378417950000001,0.49994284378312276,0.5000419012538166,0.49996882388170333,58.05,18.45,-5.25
0.033203125,0.50439453,0.31298828,0.5000866669420017,0.49996216230901436,0.5000118575924052,-4.2,25.05,18.15,0.294677735,0.509033205,0.9645996099999999,0.4999940712037974,0.5000108583041419,0.49999840119113875,85.5,-1.5,79.35,0.0007324199999999905,0.5354003900000001,0.53125,0.4999195283659777,0.5000491623471037,0.499971288635673,57.15,17.85,-7.5
0.029541015000000014,0.5036621099999999,0.30151367,0.5000647504062521,0.49997288744453433,0.4999861439183349,-4.2,25.05,17.1,0.298583985,0.506591795,0.967773435,0.49999473739597294,0.5000111248159187,0.500002131657882,85.5,-1.5,79.35,-0.004638669999999991,0.5397949200000001,0.5437011700000001,0.49992798850046083,0.5000416347420399,0.4999652266708485,57.15,17.85,-7.5
0.04589843999999999,0.50732422,0.31274414,0.5000640176297656,0.49995963097073365,0.4999852779732265,-4.2,24.75,17.4,0.30126953,0.50097656,0.96191406,0.49999367152339874,0.49997455283770653,0.5000018652333716,86.25,-0.75,78.0,-0.005615234999999984,0.53515625,0.5505371099999999,0.499948506154815,0.5000396362527799,0.49996102985212915,58.05,18.45,-7.95
0.031005859999999986,0.506347655,0.322509765,0.5000471638578438,0.49995496780003823,0.4999770175916762,-4.05,24.9,17.85,0.31201172,0.49975586,0.9685058599999999,0.49998867534388197,0.49998900843996974,0.5000192519415806,85.35,0.15,78.45,0.0029296899999999935,0.5378417950000001,0.54736328,0.49996109643644016,0.5000281784280399,0.49998427868496326,56.55,16.95,-5.85
0.03198241999999999,0.506591795,0.326660155,0.5000268461309554,0.49998760947130777,0.4999855443977368,-4.05,24.9,17.85,0.306396485,0.48486327999999995,0.9743652349999999,0.49998014853782136,0.49998534455753746,0.5000184524935167,85.35,0.15,78.45,0.008056640000000016,0.5266113299999999,0.5407714849999999,0.4999319854789809,0.5000592878747592,0.4999828798035678,56.55,16.95,-7.95
0.0234375,0.49755859500000005,0.32446289,0.5000449655283844,0.4999746860935949,0.5000299769898341,-5.25,25.8,17.1,0.306640625,0.48535156,0.971679685,0.4999992672235135,0.49999487056459485,0.5000196516219793,84.75,-3.0,78.0,0.0009765649999999937,0.5178222650000001,0.557128905,0.4999426439429234,0.5000965926294577,0.49997368680533166,57.6,16.2,-6.3
0.028808595000000024,0.49853515499999995,0.318115235,0.5000303100859218,0.4999835459084768,0.5000015988088613,-4.65,25.65,17.25,0.30419922,0.47412109500000005,0.9609375,0.500005262604027,0.49998947470467936,0.5000150551228613,85.8,-1.8,76.95,0.0007324199999999905,0.52685547,0.5520019549999999,0.49994004593306535,0.5000917297058294,0.49998014853782136,57.6,16.2,-6.3
0.021240234999999986,0.48486327999999995,0.32836914,0.5000319088947831,0.5000126569532025,0.49997775036816267,-4.5,25.5,18.15,0.307128905,0.47802734500000005,0.96191406,0.5000043966589187,0.49998547781342584,0.5000181860690064,84.0,-2.25,78.3,0.002197265000000016,0.5275878900000001,0.5515136700000001,0.49995010487640984,0.500107584189488,0.49997288744453433,56.7,17.55,-6.75
0.022949220000000024,0.49267577999999995,0.338623045,0.5000533590785566,0.49998334606827743,0.5000345069046412,-4.05,23.85,17.85,0.310058595,0.47509765499999995,0.970214845,0.5000144556022632,0.5000069279971994,0.49998827566348325,84.0,-2.25,78.3,-0.0026855449999999906,0.53955078,0.5671386700000001,0.4999065383166874,0.500129633981126,0.4999838790045646,56.55,16.65,-5.55
0.020507814999999995,0.497802735,0.329833985,0.5000264463632902,0.49998454519674007,0.5000139226659761,-4.05,23.85,17.85,0.31958008,0.48388672000000005,0.979003905,0.5000075276050638,0.4999956700126587,0.49999333842731103,86.7,-0.9,77.7,-0.004150390000000016,0.5334472650000001,0.568359375,0.4999093361667448,0.500088931855772,0.49997382006122004,56.55,16.65,-5.55
0.02807616999999999,0.497314455,0.334472655,0.5000099256874561,0.499997335405831,0.49999660262934453,-5.1,25.35,17.55,0.325683595,0.49169922000000005,0.9797363299999999,0.5000145888581515,0.49999693563816583,0.49998008195351035,85.05,-2.55,79.35,0.005371095000000025,0.5324707049999999,0.561035155,0.4999153981315693,0.5000686141288837,0.49996356127767627,57.15,17.55,-8.25
0.03149414000000002,0.50317383,0.34375,0.4999804816339091,0.5000080604540845,0.5000171868680097,-5.1,26.1,18.9,0.31591797,0.49609375,0.9763183599999999,0.5000117243365167,0.499993405011622,0.5000009992009967,84.9,-2.7,77.7,-0.002197265000000016,0.5393066400000001,0.5593261700000001,0.4999156646433461,0.5000815375065966,0.49996869062581495,57.15,17.55,-8.25
0.02416991999999999,0.508789065,0.325927735,0.5000143889306857,0.500005196019716,0.500006062052091,-4.05,26.1,17.55,0.32006836,0.498046875,0.978515625,0.5000315092143844,0.5000015321372838,0.4999862771742233,85.5,-2.25,78.3,-0.0029296850000000065,0.5310058599999999,0.564941405,0.4999120673452248,0.5000911967695423,0.4999901408968549,56.55,16.95,-7.35
0.013916015000000016,0.5126953150000001,0.329345705,0.4999843453565407,0.5000140559218645,0.4999948039802839,-4.05,26.1,17.55,0.315185545,0.502929685,0.96972656,0.500039569668469,0.49999553675677033,0.5000126569532025,85.65,-2.7,78.9,-0.006103515000000016,0.5341796900000001,0.5617675799999999,0.49992632310728863,0.5000477633784418,0.4999900076409665,56.4,18.6,-6.15
0.023193359999999986,0.49975586,0.34033203,0.49998934153605745,0.5000252473220941,0.5000085268060606,-4.95,26.55,18.15,0.32373047,0.498046875,0.974121095,0.500020051302378,0.49999127335374005,0.49999307200280063,85.8,-1.05,78.3,-0.005371095000000025,0.5283203150000001,0.56591797,0.49993351761626476,0.5000533590785566,0.4999808813143078,57.0,18.0,-8.7
0.030273439999999995,0.50708008,0.33569336,0.49998887518408136,0.500025313906405,0.5000029311059457,-4.5,25.8,19.2,0.322021485,0.498779295,0.97998047,0.5000141225061755,0.49998274654767944,0.5000068614128884,85.8,-1.05,78.3,-0.011230470000000025,0.5310058599999999,0.564453125,0.4999147986109712,0.5000285115241276,0.49998927486448,56.25,19.2,-7.65
0.03491210999999998,0.49853515499999995,0.34692383,0.49996662555224397,0.5000525597177592,0.49997441958181815,-4.35,27.15,18.6,0.305908205,0.498291015,0.98144531,0.5000405022851547,0.49996675880813235,0.5000177197170302,86.7,-1.2,78.15,-0.00854491999999999,0.53076172,0.569335935,0.49990620522059964,0.49999833460682774,0.49997188824353755,54.6,16.8,-7.8
0.04711914000000002,0.50097656,0.341796875,0.49997288744453433,0.5000708123710765,0.49996915697779104,-4.65,27.15,18.6,0.322021485,0.50439453,0.98876953,0.5000212503435741,0.4999503713881866,0.5000027312657465,85.05,-1.05,78.3,-0.007324220000000025,0.5302734400000001,0.5676269549999999,0.49989921055182296,0.49994737369792985,0.5000009326166858,56.55,18.45,-7.65
0.05175781499999999,0.50073242,0.34008789,0.4999958031812807,0.5000783399761404,0.4999832128996555,-4.65,26.4,16.8,0.3125,0.49682617,0.98095703,0.4999986677029155,0.4999483063146157,0.50002617993878,85.35,-0.45,79.5,-0.005371095000000025,0.528808595,0.56201172,0.49990447324311643,0.4999349164976602,0.49998174734668266,56.55,18.45,-7.65
0.04541015499999997,0.494384765,0.33520508,0.49997928250544654,0.5001061187237816,0.49997142189156135,-4.65,26.4,16.8,0.30908203,0.5017089849999999,0.99169922,0.5000031975304562,0.4999542351108182,0.500026779459378,85.35,-0.45,79.5,-0.013427734999999984,0.53173828,0.5634765650000001,0.4999149984511706,0.49992066082286285,0.49998501146144975,56.55,19.2,-6.9
0.025390625,0.501953125,0.3203125,0.49998947470467936,0.5001190421014945,0.4999495053558118,-5.55,25.5,17.7,0.322509765,0.49194336,1.001953125,0.4999843453565407,0.49996695864833174,0.5000161875797464,84.15,-2.7,79.2,-0.011962890000000016,0.5302734400000001,0.5607910150000001,0.49992812175634926,0.4998855543976236,0.4999982680225168,55.5,19.5,-6.6
0.017333984999999986,0.493896485,0.314697265,0.5000161209954355,0.5000724111799378,0.4999770175916762,-4.2,26.55,18.15,0.333007815,0.49194336,0.9875488299999999,0.4999790160809362,0.4999778170397401,0.5000255137466044,85.5,-1.5,78.0,0.00048827999999997475,0.525878905,0.548339845,0.4999299204054099,0.4998621723089011,0.5000128567934019,56.4,17.1,-6.75
0.01440429499999999,0.508789065,0.325683595,0.49998481162125036,0.500052826229536,0.49995443495101755,-4.95,25.05,18.15,0.337890625,0.49926758,0.9782714849999999,0.49996715848853107,0.49996542651104786,0.5000249808975838,85.5,-1.5,78.0,0.009521484999999984,0.52734375,0.5500488299999999,0.4999106017922519,0.4998827565475662,0.499991339938051,56.55,16.65,-7.35
0.03149414000000002,0.50341797,0.334716795,0.4999670919042201,0.500057555897276,0.4999791493368246,-4.95,25.05,18.15,0.333740235,0.48974609500000005,0.97314453,0.4999855443977368,0.49996456047867305,0.5000371049144993,85.5,-1.5,78.0,0.008300779999999975,0.5314941400000001,0.5539550799999999,0.49990374046663,0.49994963861170016,0.49999400461948645,56.25,19.2,-4.8
0.04345702999999997,0.49633789,0.33618164,0.4999830130594562,0.49999786834211807,0.49998987438507814,-4.5,25.8,17.7,0.34008789,0.50097656,0.96972656,0.49996382770218656,0.5000069946687767,0.5000336408722663,84.15,-0.9,78.45,0.020019529999999976,0.5263671900000001,0.552246095,0.49990207507345774,0.4999282550122377,0.4999855443977368,56.1,16.8,-5.7
0.03930664000000002,0.494873045,0.32861328,0.49998008195351035,0.5000442994234754,0.4999569662892982,-3.75,25.05,17.7,0.33544922,0.482177735,0.9738769549999999,0.5000036638824322,0.49998934153605745,0.5000277120760638,85.65,-1.2,78.9,0.02734375,0.5329589849999999,0.5498046900000001,0.4999016753057926,0.4999673583287304,0.5000110582316077,56.1,16.8,-5.7
0.03662109500000003,0.47680664,0.328125,0.49998008195351035,0.5000491623471037,0.4999382472840047,-4.05,25.35,18.6,0.333496095,0.48071289,0.9636230450000001,0.5000095926786348,0.5000085933903716,0.500039569668469,84.75,-1.5,79.35,0.02270508000000001,0.53173828,0.5441894549999999,0.49990533918822483,0.49999333842731103,0.49998427868496326,57.3,17.4,-5.55
0.04199218999999999,0.478515625,0.322753905,0.5000109915600303,0.5000142557620638,0.4999812144103955,-6.0,25.8,17.7,0.33618164,0.4921875,0.9709472650000001,0.49999680246954387,0.499997934926429,0.5000258468426921,84.75,-1.5,79.35,0.01635741999999999,0.5166015650000001,0.5515136700000001,0.4998996102322216,0.5000196516219793,0.49999453755577355,57.3,17.4,-5.55
0.03735351500000002,0.47363281,0.31665039,0.4999910069292297,0.5000385704674721,0.4999611631080176,-6.0,25.8,17.7,0.32739258,0.494873045,0.9626464849999999,0.49999213938611486,0.5000205176543542,0.500028711364327,84.9,-2.4,78.9,0.011230470000000025,0.5139160150000001,0.549316405,0.4999251906504035,0.5000271791397767,0.4999798154417336,57.0,19.2,-6.6
0.03466797000000003,0.48071289,0.32421875,0.4999804816339091,0.5000303767574993,0.4999676914248182,-4.95,27.0,18.15,0.30810547,0.493164065,0.9709472650000001,0.5000057289560033,0.5000157213150367,0.5000438330714992,85.65,-0.15,78.45,0.017333984999999986,0.5126953150000001,0.552734375,0.49990966926283253,0.500020117886689,0.4999737534769091,57.9,17.55,-5.7
0.03881835999999998,0.489990235,0.31958008,0.50000872664626,0.500013323145378,0.4999946707243955,-7.35,25.8,16.35,0.30761719,0.49291992,0.9699707049999999,0.4999890750242807,0.5000192519415806,0.5000407687969315,84.9,-1.65,79.95,0.0009765649999999937,0.50854492,0.5490722650000001,0.4999168636845422,0.5000440329116985,0.49997242109255813,57.3,19.2,-6.6
0.04516601500000002,0.48901367,0.31640625,0.4999813476662839,0.5000629517571914,0.4999994004794019,-4.95,25.05,16.65,0.302001955,0.498046875,0.9694824200000001,0.5000023315853478,0.5000290443731483,0.500042767198925,85.35,-1.65,79.5,-0.007568359999999984,0.510253905,0.5505371099999999,0.49994837289892663,0.500036105626236,0.49998334606827743,57.45,17.85,-6.6
0.03442383000000001,0.48754883,0.307373045,0.4999870099507097,0.500058155417874,0.49999500382048323,-4.95,25.5,17.7,0.295410155,0.48901367,0.9636230450000001,0.5000015988088613,0.5000356393615264,0.500051493845185,85.5,-2.55,79.05,-0.0068359350000000065,0.5166015650000001,0.5490722650000001,0.49994364314392015,0.5000323751594928,0.4999824801231691,57.45,17.85,-7.2
0.029052734999999986,0.486083985,0.29614258,0.5000065283168006,0.5000593545463365,0.5000333744477561,-4.95,25.5,17.7,0.259765625,0.494873045,0.9587402349999999,0.5000163208356349,0.5000780734643636,0.5000461646568469,85.65,-1.65,78.45,-0.026611329999999954,0.51611328,0.5539550799999999,0.49996356127767627,0.4999988009588039,0.49999207271453744,57.45,17.85,-7.2
0.02075195500000001,0.48901367,0.28857422,0.4999851447173381,0.5000816040909075,0.5000265796191786,-5.7,26.7,17.55,0.291748045,0.48779297000000005,0.9685058599999999,0.5000102587835439,0.5000551577276172,0.5000303100859218,85.65,-1.65,78.45,-0.020019530000000032,0.5126953150000001,0.55029297,0.4999646937345614,0.49997322054062204,0.5000110582316077,56.55,18.45,-5.55
0.0026855449999999906,0.502441405,0.28051758,0.4999892082801691,0.5000810712418868,0.5000207840788644,-6.3,26.25,17.7,0.291259765,0.489501955,0.982421875,0.49999753524603036,0.5000369716586108,0.5000301102457225,84.45,-1.8,79.8,-0.026123045000000046,0.5227050799999999,0.5419921900000001,0.49996609261595687,0.4999576324814737,0.5000117243365167,56.55,18.45,-5.55
0.006103515000000016,0.49584961,0.28466797,0.4999892082801691,0.5000654165111611,0.5000594211306475,-6.45,25.35,18.3,0.28564453,0.489501955,0.9821777349999999,0.500019984718067,0.5000738101485998,0.5000472971137321,85.8,-1.8,79.05,-0.022705079999999954,0.5231933599999999,0.5451660150000001,0.4999600306511324,0.49999726873425354,0.5000213170151515,57.9,18.3,-4.65
0.013427734999999984,0.506591795,0.287841795,0.49995603367261243,0.5000680811925965,0.50001072513552,-6.45,25.35,18.3,0.283447265,0.4921875,0.9743652349999999,0.5000036638824322,0.5000323751594928,0.5000277120760638,85.5,-1.5,79.35,-0.014404295000000048,0.517089845,0.553222655,0.4999699563385885,0.49999673579796644,0.5000076607736857,56.1,18.6,-6.15
0.01831054499999999,0.506835935,0.29663086,0.49996216230901436,0.5000624854924818,0.5000204509827767,-5.55,26.25,17.7,0.29199219,0.490966795,0.9765625,0.5000063284766012,0.5000245145456076,0.5000388368919825,85.65,-1.65,78.45,-0.024902344999999968,0.5217285150000001,0.5549316400000001,0.4999401125173763,0.49998294638787877,0.49999540350088195,56.7,18.6,-5.7
0.029785154999999976,0.51513672,0.296875,0.49995157042938276,0.500033441032067,0.5000592878747592,-6.3,25.5,18.45,0.29370117,0.49194336,0.9802246099999999,0.4999941377881084,0.5000193185258915,0.5000472304421547,84.45,-0.75,79.35,-0.020263670000000046,0.5280761700000001,0.5498046900000001,0.49993225190349116,0.4999684242013046,0.500009259582547,56.25,19.2,-6.3
0.03173827999999997,0.5158691400000001,0.302734375,0.49992399160920736,0.5000598208110463,0.5000174532925199,-6.0,25.05,16.65,0.298339845,0.494384765,0.982421875,0.5000003996803987,0.500022116375949,0.5000372381703876,86.25,-0.3,78.3,-0.01049804499999999,0.533691405,0.5500488299999999,0.4999423775184131,0.49997934917702397,0.5000030643618342,56.25,18.0,-5.55
0.04980468999999999,0.510253905,0.302001955,0.4999174632051403,0.5000614196199076,0.5000317090545837,-5.4,26.1,17.85,0.295654295,0.48852539,0.98144531,0.5000074609334864,0.5000007327764865,0.5000331079359792,86.25,-0.3,78.3,-0.016113280000000032,0.5349121099999999,0.5549316400000001,0.49994424275178473,0.49994530853709246,0.500010791719831,57.3,18.75,-6.6
0.03979491999999999,0.5056152349999999,0.29614258,0.4999257235866905,0.5000335742879554,0.5000167205160335,-5.4,26.1,17.85,0.303222655,0.48901367,0.9753417950000001,0.5000263797789792,0.5000091929982361,0.5000484295706172,86.25,-2.25,79.35,-0.017089844999999968,0.5270996099999999,0.5583496099999999,0.4999366485624099,0.49997215466804784,0.5000225827279251,57.3,18.75,-6.6
0.03881835999999998,0.506347655,0.29345703,0.4999479065469505,0.5000577557374754,0.500010791719831,-6.3,26.55,16.65,0.29345703,0.4765625,0.9841308599999999,0.5000061286364019,0.4999762182308788,0.5000174532925199,85.8,-1.05,80.4,-0.005371095000000025,0.53466797,0.560058595,0.49995663319321043,0.4999145321864609,0.5000061286364019,57.0,19.95,-5.55
0.028320314999999995,0.5095214849999999,0.290283205,0.4999124004413125,0.5000702128504785,0.5000008660323748,-4.5,25.05,16.65,0.30102539,0.490234375,0.979003905,0.5000081271256619,0.49999353826751036,0.500035506105638,84.6,-0.45,78.9,-0.007568359999999984,0.529296875,0.5690917950000001,0.49993778101929504,0.4999172633649409,0.5000149218669728,57.15,20.1,-5.7
0.028808595000000024,0.506591795,0.282958985,0.49994617456946727,0.5000422342626379,0.5000254471622935,-5.4,25.65,17.55,0.306152345,0.497070315,0.9826660150000001,0.5000211837592632,0.49998840891937163,0.500033441032067,84.6,-0.45,78.9,-0.010742185000000007,0.5361328150000001,0.5725097650000001,0.4999168636845422,0.49991319988937644,0.5000270459711548,56.55,18.75,-5.85
0.01831054499999999,0.50097656,0.290527345,0.4999459747292679,0.5000347067448405,0.5000265130348677,-5.4,25.65,17.55,0.30444336,0.5036621099999999,0.9797363299999999,0.4999997335754897,0.4999934716831994,0.5000495620275024,85.95,-0.9,79.5,-0.00854491999999999,0.5427246099999999,0.5754394549999999,0.4999340505525518,0.49989028406536357,0.4999992672235135,57.6,18.75,-6.6
0.026855470000000024,0.50341797,0.293945315,0.49992912095734604,0.5000143223463748,0.4999922725547368,-6.15,26.4,16.5,0.307128905,0.497802735,0.9765625,0.5000115910806283,0.49998334606827743,0.5000337741281548,85.65,-0.45,78.15,-0.004638669999999991,0.5490722650000001,0.5744628900000001,0.4999040068911403,0.4998943476281945,0.500034040552665,58.35,18.75,-4.8
0.03198241999999999,0.501220705,0.29711914,0.49994697393026466,0.50000872664626,0.5000056622844258,-6.3,26.55,17.1,0.310546875,0.5041503900000001,0.984375,0.4999880758232839,0.4999958698528581,0.5000635512777895,85.65,-0.45,78.15,-0.002197265000000016,0.5495605450000001,0.5734863299999999,0.49987982544162035,0.4998598407235534,0.5000169869405438,57.15,19.8,-4.35
0.03466797000000003,0.5078125,0.30053711,0.49996682539244336,0.499975285614193,0.5000121240169154,-5.4,26.7,17.85,0.313476565,0.50732422,0.9855957049999999,0.5000203843984657,0.4999822136113923,0.5000553575678166,85.8,-2.25,80.1,-0.014160155000000032,0.5432128900000001,0.5739746099999999,0.4998722978365565,0.4998730972846204,0.5000219831200605,57.15,19.8,-4.35
0.04956054499999999,0.50708008,0.30908203,0.4999443093360957,0.4999906071615645,0.5000087932305709,-6.3,25.05,15.6,0.31274414,0.510498045,0.9924316400000001,0.49999153977825034,0.4999837457486762,0.5000542916952424,85.65,-1.2,79.5,-0.006347654999999975,0.5358886700000001,0.5788574200000001,0.49988522130153584,0.49986037365984043,0.5000188522611819,58.05,19.95,-4.8
0.05029297000000003,0.509765625,0.314941405,0.49995323582255496,0.500002664594169,0.5000218499514386,-6.3,25.05,15.6,0.32006836,0.505371095,0.990722655,0.5000077940295742,0.49998307964376715,0.500046764177445,85.95,-1.95,79.2,-0.009521484999999984,0.5322265650000001,0.58154297,0.4998635046059856,0.499897678414539,0.5000022649137703,58.05,19.95,-4.8
0.04370116999999999,0.5144042950000001,0.31640625,0.49998720979090905,0.4999767511671659,0.5000147886983509,-4.65,26.4,17.55,0.32104492,0.5146484400000001,0.9919433599999999,0.4999928721626013,0.4999698230827001,0.5000566232805902,85.95,-1.95,79.2,-0.009521484999999984,0.52392578,0.5812988299999999,0.4998535122469521,0.49988715311921844,0.4999904739929426,58.05,19.95,-4.2
0.05053710999999998,0.51611328,0.310546875,0.4999422442625247,0.49998760947130777,0.4999746194220175,-7.2,24.9,18.9,0.32495117,0.51904297,0.985839845,0.4999898078007671,0.49999153977825034,0.5000775406153429,84.6,-1.2,79.5,-0.001953125,0.5222167950000001,0.579589845,0.499848915747834,0.4998906837457623,0.500005196019716,59.25,18.3,-3.9
0.04663085999999998,0.5146484400000001,0.31542969,0.4999637611178756,0.4999503713881866,0.5000502282196779,-5.7,25.35,17.85,0.329589845,0.49536133,0.9851074200000001,0.49999367152339874,0.4999802817937098,0.5000258468426921,85.8,-1.05,78.3,0.00854491999999999,0.5339355450000001,0.5881347650000001,0.49986477031875914,0.49990314085876547,0.49998780931150716,57.6,19.95,-2.7
0.03930664000000002,0.510498045,0.31323242,0.4999624288207911,0.4999585650981595,0.5000209839190638,-5.7,25.35,17.85,0.32055664,0.54638672,0.96435547,0.49991426567468417,0.49999160644982776,0.5001065849884913,84.9,-0.45,80.55,-0.00048827999999997475,0.5310058599999999,0.5822753900000001,0.4998473836105502,0.49992692262788674,0.49999820135093936,56.7,19.05,-3.3
0.03173827999999997,0.5061035150000001,0.310791015,0.4999622289805918,0.49994977178032207,0.49997062253076396,-5.7,25.35,17.85,0.345214845,0.5100097650000001,0.958984375,0.5000383039556954,0.4998240681061386,0.5000425673587257,85.95,0.15,78.15,0.0031738300000000094,0.53466797,0.5754394549999999,0.4998687006257017,0.49990680474119775,0.49999187287433805,56.7,19.05,-3.3
0.04858398499999998,0.5207519549999999,0.322998045,0.4999942710439968,0.4999467740900653,0.500002664594169,-4.95,26.55,16.65,0.333740235,0.48803711,1.00073242,0.49995796557756145,0.4998611730206379,0.5000903307371675,86.25,-0.75,78.3,0.014160154999999975,0.5390625,0.5837402349999999,0.49989374810759646,0.4999050727637145,0.5000037304667432,58.35,20.7,-3.75
0.05078125,0.521484375,0.32836914,0.49997841656033815,0.49994550846455826,0.5000149218669728,-5.7,26.4,16.8,0.31713867,0.51098633,0.967285155,0.49999840119113875,0.4999243246180286,0.5000600206512457,85.05,0.3,78.3,0.01245116999999999,0.5373535150000001,0.5861816400000001,0.49986896705021205,0.499957232801075,0.4999963361175678,56.55,18.45,-4.2
0.048828125,0.5270996099999999,0.328125,0.49997841656033815,0.4999568331206763,0.499980015281933,-6.3,27.3,18.15,0.322509765,0.509033205,0.9572753900000001,0.49996502683064914,0.4998886853437688,0.5000793391771372,85.05,0.3,78.3,0.01440429499999999,0.541015625,0.584472655,0.49986623587173207,0.49994550846455826,0.49998934153605745,56.55,18.45,-4.2
0.04663085999999998,0.52392578,0.3359375,0.4999681577767943,0.4999513040048724,0.49998934153605745,-5.4,26.4,18.6,0.337890625,0.506347655,0.971679685,0.4999504379724976,0.49992359192880864,0.5000897312165694,85.05,0.3,78.3,0.019042970000000024,0.5390625,0.59033203,0.4998591079470669,0.4999490390911021,0.4999843453565407,57.6,20.25,-2.1
0.03881835999999998,0.5178222650000001,0.33666992,0.49997248776413555,0.49995996397955494,0.4999888085997704,-5.4,26.4,18.6,0.334716795,0.505371095,0.9685058599999999,0.4999631615972775,0.49989528024488034,0.5000937281950893,84.45,-0.75,79.35,0.020019529999999976,0.54296875,0.580566405,0.4998633047657863,0.4999382472840047,0.4999573659696969,57.6,19.95,-3.45
0.03393554499999999,0.52392578,0.334716795,0.499941911166437,0.49995823200207173,0.49996935681799043,-5.1,25.65,16.8,0.34350586,0.510253905,0.9660644549999999,0.49996915697779104,0.49993385071235247,0.5000799387850017,85.95,-0.15,79.95,0.03198241999999999,0.5390625,0.58154297,0.4998668353923301,0.4999316523828931,0.49996955665818976,57.3,20.7,-3.75
0.029296875,0.5275878900000001,0.33886719,0.4999766179112775,0.49992858802105894,0.5000001332558884,-4.5,25.8,18.45,0.348876955,0.50439453,0.96191406,0.4999808813143078,0.49990740426179575,0.5000812044105087,84.75,0.0,80.4,0.03417968999999999,0.5471191400000001,0.5832519549999999,0.4998649701589585,0.49999153977825034,0.49996016381975433,57.15,20.1,-3.6
0.03662109500000003,0.5231933599999999,0.334228515,0.49995916461875756,0.49994097854975117,0.5000302435016108,-4.35,26.1,17.55,0.34448242,0.5163574200000001,0.9582519549999999,0.49996216230901436,0.49989654595765387,0.5000909969293429,84.75,0.0,80.4,0.04174804499999999,0.5358886700000001,0.5754394549999999,0.4998669019766411,0.5000207840788644,0.4999889417683923,59.1,19.95,-2.7
0.04248047000000003,0.517089845,0.342041015,0.49992738897986283,0.4999666922238214,0.4999950704047942,-4.35,26.1,17.55,0.36376953,0.5166015650000001,0.9548339849999999,0.4999764180710781,0.49995456811963945,0.5000738767329107,84.15,-0.45,80.55,0.021484375,0.5368652349999999,0.58544922,0.49984951535569855,0.5000238483534322,0.49999453755577355,58.95,21.15,-2.85
0.04760741999999999,0.509277345,0.345703125,0.49995563399221365,0.4999399793487544,0.500013323145378,-5.55,26.25,17.4,0.33178711,0.50048828,0.947265625,0.49997548545439235,0.4999924058106252,0.5000863338459139,84.6,-0.45,79.5,0.025878904999999976,0.5302734400000001,0.5715332049999999,0.49984898241941145,0.5000263797789792,0.49999500382048323,58.95,21.15,-2.85
0.04858398499999998,0.5100097650000001,0.334716795,0.4999754188700814,0.49996849078561556,0.5000057289560033,-6.3,25.8,18.15,0.341308595,0.502685545,0.95263672,0.4999937381077097,0.500000599520598,0.5000794724330255,84.6,-0.45,79.5,0.03173827999999997,0.5185546900000001,0.5666503900000001,0.4998586416823572,0.5000660827033365,0.49997508577399363,57.45,20.55,-3.9
0.04467773499999998,0.5185546900000001,0.33129883,0.4999539020147305,0.4999794823456459,0.4999954701724594,-6.0,27.3,17.1,0.35058594,0.501220705,0.9631347650000001,0.4999962695332568,0.49998827566348325,0.5000763414868804,84.6,-0.15,79.2,0.021240234999999986,0.5207519549999999,0.5739746099999999,0.49984884916352307,0.5000277120760638,0.49998294638787877,57.45,20.55,-3.9
0.04052734500000003,0.51953125,0.32421875,0.49998507813302717,0.49994757353812924,0.5000053292756045,-4.35,27.9,18.3,0.333251955,0.48193359500000005,0.9694824200000001,0.5000064617324896,0.5000521600373604,0.5000760750623701,85.35,0.45,80.25,0.016113279999999976,0.51074219,0.5705566400000001,0.4998621056373237,0.5000073943491754,0.49998987438507814,56.55,20.7,-2.7
0.037109375,0.5146484400000001,0.31933594,0.49998094789861874,0.4999652266708485,0.50002145027104,-4.35,27.9,18.3,0.321289065,0.51074219,0.97216797,0.49999840119113875,0.5000079938697736,0.5000737434770224,83.85,-0.9,80.25,0.024414064999999995,0.51611328,0.5490722650000001,0.4998878193113939,0.5000295107251244,0.4999780168799394,58.05,21.75,-4.2
0.03442383000000001,0.5163574200000001,0.321777345,0.49997382006122004,0.499988608759571,0.4999883422477942,-4.95,27.0,18.15,0.330810545,0.501953125,0.9885253900000001,0.4999805482182201,0.4999902741527433,0.5000731439564243,83.85,-0.9,80.25,0.020019529999999976,0.52734375,0.5583496099999999,0.499883689164252,0.5000499617079011,0.4999729540288453,57.45,19.8,-2.85
0.028808595000000024,0.5134277349999999,0.31298828,0.4999739533171085,0.499997401990142,0.499984611781051,-5.4,27.15,18.3,0.318359375,0.50830078,0.97216797,0.4999832128996555,0.4999855443977368,0.5000604203316443,84.9,0.45,78.9,0.012207029999999975,0.5236816400000001,0.5490722650000001,0.49987949234553264,0.5000475635382424,0.4999784831446491,57.9,19.8,-2.85
0.031005859999999986,0.517089845,0.30834961,0.49999553675677033,0.4999692902336795,0.5000118575924052,-6.45,25.65,17.55,0.32348633,0.48901367,0.970703125,0.500013323145378,0.49999420445968584,0.500071411978941,85.5,-1.05,79.35,0.008056640000000016,0.5319824200000001,0.545410155,0.499875695207212,0.5000729441162249,0.4999776171122743,57.9,19.8,-2.85
0.025634765000000014,0.5095214849999999,0.30517578,0.49997322054062204,0.4999859440781355,0.5000035972108549,-6.45,25.65,17.55,0.31958008,0.54638672,0.95410156,0.49992932079754543,0.5000873330469107,0.5000790727526269,85.5,-1.05,79.35,0.008300779999999975,0.5270996099999999,0.5402832049999999,0.499852313205756,0.5001461546569602,0.49997894949662525,58.5,20.1,-3.6
0.029785154999999976,0.5056152349999999,0.310546875,0.499970689115075,0.49997841656033815,0.5000144556022632,-5.25,26.25,19.2,0.32861328,0.50341797,0.9587402349999999,0.5000054624442265,0.5000335742879554,0.5000666822239346,84.0,-1.05,81.45,0.00854491999999999,0.5261230450000001,0.54736328,0.49987216458066813,0.5001776638713445,0.49999500382048323,58.5,20.1,-3.6
0.031005859999999986,0.509277345,0.302001955,0.4999859440781355,0.49994204442232537,0.5000176531327193,-6.3,26.55,18.75,0.30517578,0.482421875,0.967285155,0.49996349460609885,0.5000099256874561,0.5000773407751437,83.55,-0.15,81.0,0.007080080000000009,0.509033205,0.53955078,0.49987283077284367,0.5001745329251994,0.5000120574326045,56.7,21.15,-3.6
0.029052734999999986,0.5146484400000001,0.30395508,0.4999816140907943,0.49997062253076396,0.5000210505033748,-4.5,27.75,17.7,0.313964845,0.463134765,0.9558105450000001,0.5000116577522058,0.5000474969539315,0.500048762666705,83.85,-0.15,81.0,0.01440429499999999,0.50390625,0.5314941400000001,0.4998932151713094,0.5002147687858438,0.5000050627638277,58.35,19.95,-4.2
0.03344726500000002,0.515625,0.294921875,0.4999775505279633,0.4999855443977368,0.499979882113311,-4.65,26.7,18.6,0.298583985,0.44921875,0.9641113299999999,0.5000168537719218,0.4999993338078245,0.5000331746075567,83.85,-0.15,81.0,0.004638669999999991,0.49902344,0.54296875,0.4999364487222105,0.5002210972624451,0.5000271125554657,58.05,21.0,-4.8
0.025390625,0.5153808599999999,0.30029297,0.49999593643716905,0.4999726876043349,0.5000381707870735,-4.65,26.7,18.6,0.294677735,0.48852539,0.950683595,0.5000035306265439,0.5000363721380128,0.5000305765976986,84.45,0.75,80.1,0.011962890000000016,0.47998047000000005,0.5339355450000001,0.4999547013755279,0.5002575359847689,0.5000145221865742,57.3,21.45,-2.7
0.016601564999999995,0.5139160150000001,0.296875,0.49995236979018015,0.4999984678627162,0.4999894081203684,-5.55,26.55,18.15,0.28173828,0.46557617,0.956054685,0.5000111914002296,0.5000768744231675,0.5000407021253541,85.05,0.3,80.4,0.009521484999999984,0.48193359500000005,0.53515625,0.49995796557756145,0.5002793859362075,0.49998927486448,57.3,21.45,-2.7
0.008789064999999993,0.5134277349999999,0.298828125,0.49995669986478786,0.4999728208602233,0.5000074609334864,-4.35,27.45,17.55,0.29223633,0.47509765499999995,0.9436035150000001,0.49998094789861874,0.5000756087103939,0.5000652833425392,85.05,0.0,80.1,0.0048828149999999935,0.487060545,0.5361328150000001,0.5000089264864593,0.5002893116236636,0.49997415315730787,57.6,21.75,-3.15
0.02075195500000001,0.5114746099999999,0.298339845,0.49997142189156135,0.4999743529975072,0.5000407687969315,-4.65,26.4,18.6,0.30444336,0.49536133,0.94091797,0.5000015321372838,0.5001229058241261,0.5000292443006141,84.0,1.5,79.35,0.0048828149999999935,0.490478515,0.5322265650000001,0.5000141890904864,0.5002854479010319,0.499986610270311,57.3,20.25,-3.75
0.02734375,0.5080566400000001,0.30395508,0.4999342503927512,0.49999160644982776,0.50001072513552,-4.5,27.3,16.65,0.298583985,0.47363281,0.959960935,0.5000324418310702,0.5001432902225919,0.5000135229855773,83.25,0.3,80.1,0.0012207050000000094,0.5002441400000001,0.5349121099999999,0.5000271125554657,0.5002990374709203,0.4999616293727272,57.3,20.25,-3.75
0.030761720000000024,0.50732422,0.30908203,0.4999493720999234,0.5000136562414658,0.5000217832798612,-4.5,27.3,16.65,0.28442383,0.49536133,0.96582031,0.5000187855896044,0.5001415581578421,0.50002145027104,85.65,0.45,79.5,0.0014648450000000254,0.513671875,0.5322265650000001,0.5000373713390096,0.5003046998426125,0.4999608300119298,58.2,21.15,-4.95
0.03222656499999999,0.5075683599999999,0.31176758,0.49999473739597294,0.4999897412164561,0.500048229730418,-3.6,26.7,18.3,0.299072265,0.490478515,0.9636230450000001,0.5000190521013812,0.50011770980441,0.5000067948285775,85.65,0.45,79.5,-0.00854491999999999,0.518066405,0.5319824200000001,0.5000617527159953,0.5003177564762138,0.49996562635124725,58.2,21.15,-4.95
0.03466797000000003,0.509277345,0.310302735,0.49997082237096335,0.5000315757986954,0.5000397695086682,-3.75,26.25,17.7,0.30078125,0.5,0.959960935,0.4999890750242807,0.5000818040183733,0.5000163208356349,85.65,-0.9,78.9,-0.0034179700000000254,0.520996095,0.5361328150000001,0.5000590214502488,0.500279252680319,0.49995290272646725,56.7,20.85,-6.45
0.03369140499999997,0.5163574200000001,0.310546875,0.49999593643716905,0.5000379709468741,0.500024780970118,-6.15,27.15,17.85,0.29345703,0.5078125,0.9641113299999999,0.4999982680225168,0.5001012557128868,0.5000217832798612,85.35,0.45,79.5,-0.013916015000000016,0.529296875,0.53564453,0.5000705459465662,0.5002896447197513,0.49997508577399363,55.65,20.85,-5.7
0.03759765499999997,0.51171875,0.309814455,0.5000129900492903,0.5000105252953206,0.5000656830229379,-6.15,27.15,17.85,0.299316405,0.51098633,0.9758300799999999,0.5000166539317226,0.5000829364752585,0.5000069946687767,84.9,0.9,79.5,-0.016357420000000046,0.5314941400000001,0.5441894549999999,0.5000519601971611,0.5002750558615997,0.49997115546705106,56.1,19.35,-6.75
