IMU1_AccX,IMU1_AccY,IMU1_AccZ,IMU1_GyrX,IMU1_GyrY,IMU1_GyrZ,IMU1_MagX,IMU1_MagY,IMU1_MagZ,IMU2_AccX,IMU2_AccY,IMU2_AccZ,IMU2_GyrX,IMU2_GyrY,IMU2_GyrZ,IMU2_MagX,IMU2_MagY,IMU2_MagZ,IMU3_AccX,IMU3_AccY,IMU3_AccZ,IMU3_GyrX,IMU3_GyrY,IMU3_GyrZ,IMU3_MagX,IMU3_MagY,IMU3_MagZ
0.05102539000000002,0.5261230450000001,0.29199219,0.4999007426891068,0.49997934917702397,0.5000305765976986,-9.15,25.8,15.3,0.290039065,0.47607422000000005,0.94921875,0.5000680811925965,0.5000267128750671,0.5000706125308773,86.7,-0.9,75.3,0.004394529999999975,0.5217285150000001,0.525878905,0.4999389800604912,0.499942510687035,0.49998814240759487,55.5,18.45,-7.65
0.05395508000000001,0.521972655,0.30395508,0.49991286679328867,0.4999661592875343,0.5000696799141914,-7.2,26.7,17.85,0.29248047,0.5207519549999999,0.951171875,0.4999807480584194,0.5000758752221708,0.5000937281950893,86.7,-0.9,75.3,0.009521484999999984,0.51074219,0.5305175799999999,0.49990034300870806,0.4999467740900653,0.49999573659696966,55.5,18.45,-7.65
0.04565429499999999,0.52392578,0.30493164,0.49993591578592345,0.4999606301717304,0.5000435666469889,-7.2,26.7,17.85,0.294921875,0.48901367,0.9641113299999999,0.5000300436614116,0.5000359724576141,0.5000832028997688,87.3,-1.05,77.55,-0.0009765600000000063,0.5236816400000001,0.5419921900000001,0.49990447324311643,0.4999720880837369,0.5000147886983509,55.5,18.45,-7.65
0.04516601500000002,0.5163574200000001,0.302978515,0.49990800386966033,0.49998381242025364,0.4999934716831994,-6.9,26.7,16.2,0.287597655,0.49755859500000005,0.95263672,0.5000090597423477,0.5000438330714992,0.5000894647920591,86.4,-0.15,75.6,0.0068359399999999935,0.51953125,0.54296875,0.49988901835259003,0.4999739533171085,0.4999992672235135,55.65,18.6,-7.5
0.04711914000000002,0.5329589849999999,0.30493164,0.4999293874691228,0.4999707556993859,0.5000250474818948,-6.3,28.05,15.6,0.291259765,0.5061035150000001,0.9602050799999999,0.5000199180464896,0.5000323751594928,0.5001055857874944,87.3,-0.75,76.2,0.010742189999999993,0.509277345,0.5368652349999999,0.49987682775136366,0.4999489724195247,0.5000129234649794,57.3,18.45,-6.9
0.04711914000000002,0.5354003900000001,0.30517578,0.49995396859904145,0.4999744862533956,0.5000332411918677,-7.2,26.1,16.5,0.29248047,0.47900390499999995,0.9709472650000001,0.5000532259099346,0.500024780970118,0.5000776071996539,87.75,-0.9,76.35,0.015136720000000025,0.498779295,0.53857422,0.4998808246426171,0.49998381242025364,0.49998987438507814,56.55,18.75,-6.9
0.04833984500000003,0.5451660150000001,0.307128905,0.499913066633488,0.49999553675677033,0.5000109249757193,-8.25,27.9,15.75,0.294433595,0.491210935,0.96484375,0.5000193185258915,0.5000141890904864,0.5000840022605662,86.4,-0.45,77.1,0.007568359999999984,0.502685545,0.532714845,0.4998649701589585,0.5000041968187193,0.5000018652333716,55.5,18.75,-6.9
0.04565429499999999,0.5432128900000001,0.30053711,0.4999547679598389,0.49995050455680856,0.5000399027645567,-8.25,27.9,15.75,0.294677735,0.498046875,0.9479980450000001,0.49999267232240197,0.4999836791643652,0.5001074510208661,87.45,-1.65,77.7,0.009765625,0.49145508,0.5280761700000001,0.4998619724687018,0.5000087932305709,0.4999904739929426,55.65,18.6,-7.5
0.04809570500000001,0.548828125,0.303222655,0.4999222595444577,0.4999815475064833,0.5000417679979283,-8.4,27.75,17.1,0.28417969,0.48364258,0.9479980450000001,0.4999996669039123,0.49999873428722647,0.5000799387850017,87.45,-1.65,77.7,0.008789064999999993,0.49072265499999995,0.5393066400000001,0.49986490348738105,0.5000369050742999,0.5000043299873413,57.0,18.0,-6.3
0.04516601500000002,0.5419921900000001,0.30078125,0.4998894180329887,0.49999960031960133,0.500013389729689,-7.35,27.3,17.1,0.291748045,0.5056152349999999,0.93359375,0.4999748192622168,0.5000516936853844,0.500084268772343,87.45,-0.15,75.3,0.005126955000000009,0.49853515499999995,0.5310058599999999,0.49991559797176865,0.5000342403928644,0.49999367152339874,57.0,18.0,-6.3
0.04931640499999997,0.5554199200000001,0.30078125,0.49991699694043057,0.4999843453565407,0.5000209173347528,-8.1,27.75,15.3,0.283447265,0.483154295,0.9548339849999999,0.4999847450369394,0.5000516936853844,0.500084335356654,85.65,-0.9,76.35,0.01293945500000001,0.49511719,0.5329589849999999,0.49988695327901905,0.500015321634638,0.5000108583041419,57.45,17.85,-6.45
0.03735351500000002,0.5388183599999999,0.30102539,0.49992585684257895,0.5000057955403142,0.5000045964991181,-8.1,27.75,15.3,0.29199219,0.49853515499999995,0.951171875,0.4999678912650175,0.5000413683175295,0.5000820704428836,88.05,-0.75,76.2,0.0078125,0.49755859500000005,0.5339355450000001,0.49992099383168415,0.5000457648891817,0.5000269127152663,56.55,18.0,-6.3
0.04760741999999999,0.5344238299999999,0.299560545,0.4998905505771403,0.5000237151848103,0.49999353826751036,-6.0,27.75,16.65,0.291748045,0.478759765,0.971191405,0.4999807480584194,0.500013856081665,0.500071545147563,88.05,-0.75,76.2,0.002197265000000016,0.5,0.5329589849999999,0.49992798850046083,0.5000684808729953,0.5000279785878405,54.75,18.75,-9.0
0.04028320500000001,0.5361328150000001,0.303466795,0.4999341838084402,0.49999473739597294,0.5000048629236283,-6.3,28.05,16.05,0.28833008,0.49511719,0.971679685,0.4999742197416188,0.5000373047546985,0.5000730773721133,86.85,-1.05,77.25,0.0007324199999999905,0.508789065,0.5390625,0.4999243246180286,0.500062285565016,0.5000053958599154,56.25,19.2,-7.95
0.03637695500000001,0.5383300799999999,0.30053711,0.49990787061377195,0.4999910735135407,0.4999876761428852,-6.3,27.75,17.1,0.295654295,0.493164065,0.9680175799999999,0.5000016653931723,0.5000345069046412,0.5000964594608358,87.3,0.3,76.95,0.0026855449999999906,0.5100097650000001,0.5432128900000001,0.49991106814422803,0.5001220397917512,0.500006062052091,55.2,18.45,-7.95
0.03955077999999997,0.5361328150000001,0.306152345,0.4999298537338325,0.5000109249757193,0.5000122572728039,-8.25,27.45,16.5,0.283935545,0.493896485,0.9609375,0.5000103254551213,0.5000319088947831,0.5000693468181037,87.3,0.3,76.95,-0.007080080000000009,0.5148925799999999,0.5393066400000001,0.49991233385700157,0.5001253039937847,0.5000113912404289,57.0,19.95,-7.35
0.03369140499999997,0.541503905,0.302490235,0.4999467740900653,0.49997721743187556,0.5000349731693509,-8.25,27.45,16.5,0.282226565,0.498046875,0.9670410150000001,0.49999833460682774,0.5000243812897193,0.5000576891531644,88.5,-0.15,77.4,-0.0078125,0.5100097650000001,0.5373535150000001,0.4999367818182983,0.5000923292264274,0.5000156546434593,57.0,19.95,-7.35
0.04272460999999998,0.544921875,0.299560545,0.49993245174369055,0.5000199180464896,0.5000166539317226,-7.2,26.7,16.8,0.28125,0.50097656,0.954589845,0.49999913396762513,0.5000273789799761,0.5000768744231675,88.35,0.0,77.55,-0.004150390000000016,0.51953125,0.537109375,0.49993191880740345,0.5001080505414641,0.5000177197170302,56.7,20.1,-6.45
0.04736327999999997,0.54345703,0.299560545,0.49992998698972085,0.5000323751594928,0.49999453755577355,-7.05,28.5,17.7,0.279296875,0.501220705,0.9533691400000001,0.49999820135093936,0.500017519876831,0.5000694800739921,87.45,-0.15,76.65,-0.00854491999999999,0.509033205,0.54296875,0.4999502381322982,0.5001152450504402,0.4999993338078245,56.7,20.1,-6.45
0.048828125,0.5505371099999999,0.29663086,0.4999449755282711,0.5000063950609122,0.5000300436614116,-7.65,27.0,16.35,0.275146485,0.49682617,0.962890625,0.4999722879239362,0.5000233155044115,0.5000804050497114,87.45,-0.15,76.65,-0.010253904999999975,0.5095214849999999,0.54296875,0.49994137823014984,0.5000909969293429,0.5000070612530877,57.45,20.1,-6.45
0.04223633000000001,0.552734375,0.296875,0.49996675880813235,0.5000300436614116,0.500022715896547,-7.65,27.0,16.35,0.282958985,0.5021972650000001,0.9641113299999999,0.500015321634638,0.5000147220267734,0.5000605535875327,88.65,0.0,76.95,-0.007568359999999984,0.51611328,0.53466797,0.49993558268983573,0.5001071179247784,0.5000109915600303,56.1,17.85,-7.8
0.04980468999999999,0.553222655,0.30102539,0.4999249242258932,0.5000507610686985,0.5000094594227464,-6.45,28.95,16.2,0.27783203,0.49951172000000005,0.962402345,0.50002617993878,0.5000184524935167,0.5000550244717289,86.85,0.0,75.45,-0.010253904999999975,0.5075683599999999,0.5361328150000001,0.49996662555224397,0.5000895980479474,0.5000055291158039,55.65,20.85,-8.25
0.04858398499999998,0.55419922,0.29370117,0.4999201944708867,0.5000436332312999,0.5000234486730334,-6.3,27.3,15.6,0.267822265,0.49755859500000005,0.96435547,0.5000039969785199,0.5000181860690064,0.5000759418064817,87.75,-0.15,77.1,-0.023193359999999986,0.510498045,0.55078125,0.49996869062581495,0.5000509609088979,0.500026646290756,56.55,19.5,-8.7
0.04296875,0.5529785150000001,0.29296875,0.499949172259724,0.500017519876831,0.5000413683175295,-8.1,28.8,17.1,0.275146485,0.49902344,0.9670410150000001,0.5000184524935167,0.5000084602217496,0.5000552243119282,87.75,-0.15,77.1,-0.01269531500000005,0.51098633,0.548828125,0.4999946707243955,0.5000219831200605,0.5000406355410432,56.55,19.5,-8.7
0.04809570500000001,0.55126953,0.290771485,0.4999040068911403,0.5000782733918294,0.5000149218669728,-7.2,30.9,18.3,0.290283205,0.506835935,0.9609375,0.5000043966589187,0.5000288445329489,0.5000503613882998,87.15,0.15,76.05,-0.007324220000000025,0.51513672,0.5461425799999999,0.5000208506631754,0.500017986228807,0.5000416347420399,56.55,18.0,-8.7
0.05175781499999999,0.5441894549999999,0.28881836,0.4999086699745693,0.5000523598775598,0.5000349065850399,-7.2,30.9,18.3,0.27294922,0.49951172000000005,0.9675292950000001,0.5000237151848103,0.5000084602217496,0.5000405022851547,87.6,-1.05,76.5,-0.005126955000000009,0.51171875,0.545410155,0.5000053958599154,0.4999728208602233,0.500011324656118,56.55,18.0,-8.7
0.04443359500000003,0.55810547,0.291503905,0.4999524364617576,0.5000448989440734,0.5000452986244721,-7.5,29.4,16.8,0.274902345,0.5036621099999999,0.9675292950000001,0.5000506944843875,0.5000165206758341,0.5000301102457225,85.8,1.05,76.95,-0.0031738300000000094,0.5234375,0.5432128900000001,0.49999680246954387,0.4999936049390878,0.5000333077761786,56.55,18.0,-8.7
0.05200195500000001,0.5615234400000001,0.296875,0.4999162641639442,0.5000347067448405,0.5000325749996921,-8.55,29.7,16.8,0.282714845,0.5168457049999999,0.954589845,0.500013389729689,0.49999447088419613,0.5000367052341005,85.8,1.05,76.95,0.00048827999999997475,0.5256347650000001,0.5412597650000001,0.4999976018303413,0.4999824801231691,0.500005196019716,55.65,19.8,-8.55
0.05322265499999997,0.5622558599999999,0.290771485,0.4999179295571164,0.5000414349018405,0.49999080700176385,-6.9,29.4,16.8,0.27709961,0.5217285150000001,0.9587402349999999,0.500025313906405,0.5000255137466044,0.5000405688694657,87.3,-0.75,76.2,-0.00048827999999997475,0.5334472650000001,0.5456542950000001,0.4999854111418484,0.49998094789861874,0.5000175865484083,55.65,21.9,-7.5
0.05883789000000002,0.5573730450000001,0.30053711,0.49995503447161566,0.5000281117564624,0.5000271791397767,-6.9,29.4,16.8,0.28515625,0.52685547,0.9609375,0.5000078606138851,0.5000146554424625,0.5000346401605296,88.35,0.3,76.95,0.00024414000000001578,0.5329589849999999,0.5358886700000001,0.5000087932305709,0.4999725543484465,0.5000341738085534,55.5,18.45,-8.4
0.06201172000000003,0.567871095,0.30126953,0.49993065318189633,0.5000533590785566,0.5000155214748374,-6.9,29.4,16.8,0.294921875,0.5354003900000001,0.9606933599999999,0.5000196516219793,0.49997242109255813,0.5000403024449553,88.35,-1.05,75.15,0.007568359999999984,0.541015625,0.529785155,0.49997475267790586,0.4999710222111627,0.5000012657127736,55.65,19.35,-8.85
0.06103515499999997,0.5690917950000001,0.30078125,0.499908403550059,0.5000672817445327,0.5000268461309554,-7.35,28.8,17.1,0.279785155,0.528808595,0.9587402349999999,0.5000190521013812,0.5000050627638277,0.5000500282922121,88.65,0.3,77.25,0.011474609999999984,0.533691405,0.5256347650000001,0.49997868298484843,0.4999692902336795,0.500017519876831,56.4,18.6,-7.2
0.05639648499999998,0.5671386700000001,0.291748045,0.49991799614142735,0.5000511608363637,0.5000120574326045,-7.65,28.05,16.05,0.28833008,0.536621095,0.95654297,0.5000046630834291,0.49998201377119295,0.5000351064252392,86.7,0.15,76.35,0.007324220000000025,0.5280761700000001,0.5241699200000001,0.4999684242013046,0.499964627062984,0.500010791719831,56.1,19.35,-7.5
0.05346679499999999,0.5627441400000001,0.295410155,0.4999209272473732,0.5000630183415024,0.49999447088419613,-6.9,28.65,16.2,0.286376955,0.5280761700000001,0.9426269549999999,0.4999837457486762,0.49996649238362206,0.5000609532679314,87.15,0.45,75.6,0.00903320500000001,0.525878905,0.5300292950000001,0.4999652266708485,0.4999835459084768,0.4999988009588039,56.1,19.35,-7.5
0.056640625,0.556640625,0.286132815,0.49990847013436995,0.500084268772343,0.499991339938051,-8.1,28.8,17.4,0.27661133,0.5251464849999999,0.9416503900000001,0.49996442722278467,0.4999774172720749,0.500068281032796,87.15,0.45,75.6,0.00903320500000001,0.5207519549999999,0.52001953,0.4999820803555039,0.49998507813302717,0.5000047963393174,56.7,20.55,-7.8
0.06103515499999997,0.5634765650000001,0.28125,0.499931119446606,0.5000436332312999,0.5000207174945535,-8.1,28.8,17.4,0.27783203,0.5187988299999999,0.9479980450000001,0.4999535023343317,0.4999934716831994,0.5000392365723811,86.4,0.15,77.7,-0.0012207050000000094,0.520996095,0.5295410150000001,0.4999554341520143,0.49999946706371295,0.49999160644982776,56.4,19.8,-8.25
0.056640625,0.5576171900000001,0.28173828,0.4999162641639442,0.5000766745829681,0.49999713556563163,-9.15,28.5,18.45,0.27783203,0.51904297,0.958496095,0.49998947470467936,0.4999784831446491,0.5000562236001914,87.3,0.3,77.25,-0.0078125,0.53466797,0.53466797,0.500002598009858,0.49997035601898715,0.4999986677029155,57.15,19.05,-7.2
0.052734375,0.565429685,0.282958985,0.499917796301228,0.5000613529483301,0.5000059287962025,-8.25,30.9,17.25,0.270996095,0.5144042950000001,0.958984375,0.499970689115075,0.49997668449558846,0.5000566232805902,86.7,0.45,76.35,0.0068359399999999935,0.5263671900000001,0.5205078150000001,0.500008660061949,0.49994923893130144,0.5000203843984657,57.0,19.5,-7.95
0.0625,0.5578613299999999,0.27319336,0.49995516772750404,0.5000583552580733,0.500020117886689,-9.0,28.2,15.45,0.26074219,0.5158691400000001,0.9577636700000001,0.4999780168799394,0.499964627062984,0.5000604870032217,86.7,0.45,76.35,-0.011474609999999984,0.520996095,0.525878905,0.500013323145378,0.4999624288207911,0.5000001998401994,56.25,21.0,-7.35
0.06079101500000002,0.56591797,0.279785155,0.49993871363598086,0.5000774739437656,0.49999886754311484,-9.0,28.2,15.45,0.25683594,0.5144042950000001,0.95361328,0.4999614962041053,0.49994857273912596,0.500031375958496,88.05,1.05,76.2,-0.006347654999999975,0.51953125,0.52734375,0.5000285781084386,0.4999222595444577,0.4999962695332568,55.8,21.0,-5.55
0.05786133000000001,0.5671386700000001,0.28442383,0.49994530853709246,0.50011098164741,0.4999830130594562,-6.9,29.4,16.2,0.26123047,0.5134277349999999,0.9509277349999999,0.49994863932343697,0.4999634280217879,0.5000747427652856,87.45,0.9,77.1,-0.006103515000000016,0.5126953150000001,0.5205078150000001,0.5000037970510541,0.49994923893130144,0.49999307200280063,55.8,21.0,-5.55
0.05786133000000001,0.5656738299999999,0.27709961,0.4999431102948996,0.5000693468181037,0.5000137894100877,-7.35,29.25,17.4,0.266845705,0.5168457049999999,0.966796875,0.4999519035254705,0.49996855745719304,0.5000635512777895,87.45,0.9,77.1,-0.01098633000000001,0.5256347650000001,0.5368652349999999,0.5000120574326045,0.49997382006122004,0.499997934926429,55.35,20.55,-7.8
0.06665039000000002,0.58251953,0.282226565,0.499933184520177,0.5000850681331404,0.49999913396762513,-8.1,28.8,16.35,0.27661133,0.49902344,0.96191406,0.499971288635673,0.49998867534388197,0.5000209839190638,87.15,0.45,77.1,-0.001953125,0.5295410150000001,0.5341796900000001,0.5000077274452632,0.5000016653931723,0.4999877427271962,54.9,18.3,-7.8
0.04980468999999999,0.578125,0.28198242,0.49991286679328867,0.5000711454671642,0.5000015321372838,-8.55,29.4,17.25,0.282470705,0.5002441400000001,0.966796875,0.49998168067510523,0.4999611631080176,0.5000370382429218,88.05,0.3,77.55,-0.0014648450000000254,0.5412597650000001,0.5302734400000001,0.5000167871003445,0.5000430337107018,0.49998694336639876,55.2,18.75,-6.9
0.052734375,0.5827636700000001,0.283203125,0.4999227924807448,0.5000370382429218,0.500000066584311,-8.55,29.4,17.25,0.293945315,0.49511719,0.96533203,0.49997908266524715,0.4999682243611053,0.5000317090545837,87.15,-0.15,76.65,0.00048827999999997475,0.5234375,0.5349121099999999,0.5000207840788644,0.5000756753819714,0.49997688442305427,57.9,19.05,-7.5
0.04541015499999997,0.57128906,0.27636719,0.4999167305159203,0.5000365053939012,0.49999853444702713,-9.45,30.3,17.1,0.2890625,0.505371095,0.950683595,0.4999825467074801,0.49996935681799043,0.4999855443977368,87.15,-0.15,76.65,0.01171875,0.524902345,0.5187988299999999,0.5000033307863445,0.5001031876178358,0.499957898905984,56.7,19.8,-7.8
0.048828125,0.5646972650000001,0.28173828,0.4998868200231307,0.5000357726174147,0.49997601839067946,-9.3,29.4,16.5,0.28955078,0.5153808599999999,0.9465332049999999,0.49999780167054064,0.4999584318422711,0.5000161875797464,87.15,1.95,77.7,0.009277345000000025,0.525390625,0.520996095,0.5000109915600303,0.5001774640311453,0.49997495251810525,55.5,20.25,-6.6
0.03930664000000002,0.5671386700000001,0.28491211,0.4999467075057544,0.49997182157196013,0.4999938713635981,-8.7,29.85,16.65,0.287353515,0.5080566400000001,0.94873047,0.4999744862533956,0.4999717549876492,0.49998401226045297,88.05,0.3,76.2,0.004394529999999975,0.518066405,0.5427246099999999,0.5000109915600303,0.5001912534412329,0.4999907404174529,55.5,20.25,-6.6
0.04858398499999998,0.5690917950000001,0.28198242,0.49993191880740345,0.500002598009858,0.499977284103453,-9.15,29.85,17.7,0.291748045,0.498779295,0.962402345,0.49998427868496326,0.49998794256739554,0.50002145027104,86.25,0.0,76.95,-0.003662109999999984,0.509033205,0.5295410150000001,0.500033507616378,0.5001516837727641,0.49997908266524715,55.35,19.05,-8.25
0.04418945500000001,0.56689453,0.282226565,0.4999342503927512,0.499993271843,0.4999810811545071,-7.65,28.8,17.4,0.283691405,0.50732422,0.9609375,0.49997408648573044,0.49999726873425354,0.4999824801231691,86.85,1.05,76.2,-0.00390625,0.5158691400000001,0.53564453,0.5000397695086682,0.5001175765485215,0.49999080700176385,55.35,19.05,-8.25
0.04980468999999999,0.5710449200000001,0.280029295,0.4999457083047576,0.49997615164656783,0.4999835459084768,-7.65,29.85,17.1,0.283203125,0.5017089849999999,0.966308595,0.4999956700126587,0.5000053958599154,0.5000108583041419,86.55,0.0,78.0,-0.00048827999999997475,0.5166015650000001,0.533203125,0.5000378376909856,0.5000814709222855,0.4999943377155742,56.1,19.05,-8.25
0.04638672000000003,0.5681152349999999,0.279541015,0.4999431768792105,0.49999753524603036,0.499957898905984,-8.55,29.7,16.2,0.274902345,0.49462890499999995,0.959960935,0.4999941377881084,0.49997475267790586,0.5000097925188342,86.4,-0.15,77.1,-0.006347654999999975,0.501220705,0.5349121099999999,0.5000646171503637,0.5000520267814721,0.49999367152339874,56.4,19.05,-9.3
0.046875,0.565429685,0.283935545,0.4999507710685853,0.5000245811299187,0.49998381242025364,-8.4,28.8,17.1,0.282226565,0.50390625,0.9616699200000001,0.49999786834211807,0.4999878759830846,0.4999832128996555,86.4,-0.15,77.1,-0.0024414049999999746,0.5017089849999999,0.5322265650000001,0.5000738767329107,0.4999989341274258,0.5000004663519761,56.4,20.1,-8.55
0.03613281499999999,0.5615234400000001,0.283935545,0.4999963361175678,0.4999898078007671,0.4999762182308788,-8.4,28.8,17.1,0.28588867,0.49365234500000005,0.9636230450000001,0.4999928054910239,0.5000117243365167,0.4999922059704259,88.05,0.75,75.75,-0.004394529999999975,0.50463867,0.533203125,0.5000758752221708,0.5000154548032599,0.5000095260070574,57.15,19.05,-8.55
0.03857422000000003,0.5612792950000001,0.286865235,0.4999696899140782,0.500015321634638,0.4999164640041435,-8.1,28.8,16.05,0.287353515,0.481689455,0.9694824200000001,0.5000029311059457,0.5000149885385503,0.4999796822731117,87.45,0.9,76.35,0.0012207050000000094,0.5080566400000001,0.52734375,0.5000928621627145,0.4999958698528581,0.4999928721626013,55.5,19.5,-7.95
0.04736327999999997,0.5583496099999999,0.29223633,0.49997008959447686,0.5000012657127736,0.4999510374930956,-7.5,31.2,16.5,0.28466797,0.49462890499999995,0.962402345,0.499986676854622,0.5000145888581515,0.4999570329608756,86.7,1.2,76.05,0.0024414049999999746,0.5163574200000001,0.5378417950000001,0.5000690138092824,0.5000155214748374,0.5000105252953206,55.5,19.5,-7.95
0.05175781499999999,0.5422363299999999,0.29321289,0.5000197848778677,0.4999930053312232,0.4999652932551594,-9.3,30.15,16.8,0.279785155,0.48754883,0.9641113299999999,0.5000085933903716,0.4999871432065981,0.49996555976693624,85.8,1.8,75.45,-0.0012207050000000094,0.50439453,0.5373535150000001,0.5000701462661675,0.5000141225061755,0.5000124571130031,55.5,20.25,-8.4
0.05615234500000003,0.5537109400000001,0.294921875,0.500005262604027,0.5000137894100877,0.49995669986478786,-7.65,30.6,16.05,0.28588867,0.49584961,0.963867185,0.4999984678627162,0.5000123905286922,0.4999529693980447,88.05,1.5,77.25,0.0034179700000000254,0.501464845,0.5358886700000001,0.500082869803681,0.5000163874199458,0.49999606969305743,55.5,20.25,-8.4
0.04589843999999999,0.560546875,0.29345703,0.5000017986490606,0.5000442327518979,0.4999694900738788,-7.65,30.6,16.05,0.286132815,0.49609375,0.96142578,0.4999891416958581,0.5000038637226316,0.49995276955784534,87.15,0.15,76.35,0.0024414049999999746,0.509765625,0.528808595,0.5000961263647481,0.5000317090545837,0.5000057289560033,56.25,20.25,-8.4
0.048828125,0.561035155,0.290527345,0.5000457648891817,0.5000193185258915,0.49997994869762197,-7.5,29.4,16.8,0.29199219,0.50097656,0.971191405,0.4999964027891452,0.5,0.4999419778380144,87.15,0.15,76.35,0.0024414049999999746,0.509277345,0.53564453,0.5000927955784036,0.5000294441408134,0.5000043966589187,55.5,19.2,-9.75
0.048828125,0.563964845,0.290039065,0.49998967454487875,0.500033973968354,0.49995969755504466,-9.3,29.7,16.5,0.28198242,0.497802735,0.958496095,0.4999816140907943,0.5000039303069426,0.49992532390629185,87.15,0.15,76.35,0.002197265000000016,0.506591795,0.5305175799999999,0.5000913300254307,0.5000226493122361,0.5000035306265439,54.45,19.2,-9.0
0.05786133000000001,0.5666503900000001,0.29614258,0.49999786834211807,0.5000582886737623,0.49997062253076396,-10.95,28.05,17.4,0.28857422,0.50048828,0.95751953,0.5000079938697736,0.5000056622844258,0.49994863932343697,87.15,0.45,76.05,0.003662109999999984,0.5197753900000001,0.5349121099999999,0.5001087167336397,0.5000173867082089,0.499993405011622,56.25,18.45,-9.45
0.05346679499999999,0.5627441400000001,0.291748045,0.5000377710194083,0.5000198514621786,0.500013456314,-10.95,28.05,17.4,0.29760742,0.5002441400000001,0.96435547,0.5000007327764865,0.5000038637226316,0.499941844582126,87.15,-0.9,75.3,-0.004638669999999991,0.5234375,0.5285644549999999,0.500098191438319,0.5000323085751819,0.4999820803555039,56.25,18.75,-9.75
0.05590820500000001,0.5556640650000001,0.282958985,0.5000139892502871,0.5000350398409282,0.4999782167201388,-7.65,29.85,16.65,0.293945315,0.49462890499999995,0.970703125,0.49999447088419613,0.5000129900492903,0.49994144490172726,87.6,0.3,77.25,-0.0029296850000000065,0.5295410150000001,0.5324707049999999,0.5000943942999984,0.500033441032067,0.49998900843996974,54.0,17.7,-9.45
0.05078125,0.552734375,0.283203125,0.50000872664626,0.5000543583668198,0.4999692902336795,-8.55,28.65,15.75,0.295166015,0.502929685,0.96826172,0.5000106584639425,0.5000061286364019,0.4999519035254705,87.6,0.3,77.25,-0.0048828100000000065,0.53515625,0.529296875,0.5000957932686603,0.5000237817691212,0.4999754188700814,54.0,17.7,-9.45
0.04052734500000003,0.5432128900000001,0.28149414,0.5000260466828915,0.5000363721380128,0.5000147886983509,-7.65,30.3,16.35,0.28979492,0.50463867,0.9699707049999999,0.4999802151221323,0.4999919395459155,0.4999313192868054,86.25,0.3,76.5,0.00024414000000001578,0.5368652349999999,0.5368652349999999,0.5000655497670494,0.5000218499514386,0.4999754188700814,54.9,19.8,-8.85
0.0390625,0.544921875,0.276123045,0.5000547580472186,0.5000342403928644,0.49999820135093936,-8.55,30.45,16.5,0.28466797,0.509765625,0.9606933599999999,0.4999907404174529,0.4999856110693143,0.4999314525426938,88.05,0.3,75.45,-0.00390625,0.5456542950000001,0.5368652349999999,0.500064217469965,0.5000129900492903,0.4999698230827001,54.3,19.8,-8.25
0.04467773499999998,0.55078125,0.27709961,0.5000360390419251,0.5000409019655534,0.499986676854622,-8.55,30.45,16.5,0.286132815,0.518066405,0.9631347650000001,0.5000002664245103,0.500009259582547,0.49993917990069053,88.05,0.3,75.45,-0.005615234999999984,0.5390625,0.5388183599999999,0.5000493621873031,0.5000120574326045,0.4999875428869968,55.5,18.45,-9.45
0.03857422000000003,0.55517578,0.28076172,0.5000588216100496,0.5000102587835439,0.49999233922631425,-8.55,30.45,16.5,0.283447265,0.5231933599999999,0.9675292950000001,0.4999962029489458,0.5000031309461451,0.49995916461875756,86.85,0.0,76.95,-0.0078125,0.5471191400000001,0.5373535150000001,0.5000384372115838,0.5000116577522058,0.49996229556490274,55.2,18.45,-9.45
0.04956054499999999,0.5520019549999999,0.28076172,0.5000448989440734,0.5000103254551213,0.4999837457486762,-8.1,29.85,16.65,0.282714845,0.5183105450000001,0.9670410150000001,0.4999948039802839,0.5000037304667432,0.49995876493835884,87.45,0.15,75.6,-0.005371095000000025,0.5515136700000001,0.52392578,0.5000143889306857,0.49999420445968584,0.4999864770144226,55.2,17.7,-8.7
0.05712890499999997,0.552246095,0.28173828,0.5000413016459521,0.5000285115241276,0.49997908266524715,-8.4,28.5,15.6,0.27758789,0.5251464849999999,0.9670410150000001,0.5000078606138851,0.49997928250544654,0.49997681775147684,87.45,-0.9,75.6,-0.010253904999999975,0.5529785150000001,0.5441894549999999,0.5000091263266587,0.4999877427271962,0.4999769510073652,55.2,19.2,-8.4
0.06225585999999998,0.5515136700000001,0.279785155,0.500048229730418,0.49999913396762513,0.4999624288207911,-10.5,30.3,16.05,0.278320315,0.5217285150000001,0.95800781,0.49999786834211807,0.49997628481518974,0.49995689970498725,87.45,-0.9,75.6,-0.003662109999999984,0.5466308599999999,0.540527345,0.4999527028862679,0.4999924058106252,0.49995370217453117,55.2,19.2,-8.4
0.06079101500000002,0.5517578150000001,0.28125,0.5000609532679314,0.5000117243365167,0.4999780168799394,-10.5,30.3,16.05,0.28417969,0.5205078150000001,0.96582031,0.49998414551634135,0.4999925390665136,0.4999746194220175,86.85,-0.3,76.2,-0.006591794999999991,0.545410155,0.537597655,0.4999774839436523,0.4999517702695821,0.4999548346314163,56.25,20.25,-7.65
0.06640625,0.5498046900000001,0.279541015,0.5000183859092058,0.5000241814495199,0.49998068147410846,-8.25,29.4,15.45,0.282226565,0.52734375,0.967773435,0.49999833460682774,0.4999852779732265,0.4999925390665136,87.6,-0.3,76.5,-0.011474609999999984,0.5539550799999999,0.5456542950000001,0.49996229556490274,0.4999429770390112,0.4999481064744163,55.5,19.95,-9.0
0.06079101500000002,0.54736328,0.28149414,0.500042634030303,0.5000195183660909,0.4999851447173381,-9.0,29.7,16.8,0.287353515,0.5300292950000001,0.9689941400000001,0.4999857442379362,0.49997974885742263,0.4999788162407368,86.4,0.9,76.05,-0.00854491999999999,0.5537109400000001,0.53466797,0.4999495053558118,0.49992965389363314,0.4999584984265821,56.1,17.85,-8.85
0.05224609500000003,0.5456542950000001,0.27246094,0.5000552243119282,0.5000173200366316,0.49997095562685173,-8.7,28.8,17.7,0.28442383,0.52294922,0.97753906,0.4999941377881084,0.4999470406018421,0.5000233155044115,86.55,0.75,77.55,-0.01098633000000001,0.5539550799999999,0.52685547,0.49993125270249444,0.4999120007609138,0.4999347833290383,54.45,18.0,-9.0
0.05004883000000001,0.54296875,0.26855469,0.5000329747673573,0.500015987739547,0.4999647603188724,-9.9,29.25,16.05,0.27709961,0.5270996099999999,0.9748535150000001,0.49996749158461884,0.4999527028862679,0.5000171868680097,87.15,0.45,75.6,-0.0048828100000000065,0.5510253900000001,0.540527345,0.49993411713686275,0.49990520593233645,0.4999207274071738,54.45,18.0,-9.0
0.04467773499999998,0.548339845,0.275878905,0.5000550244717289,0.5000073943491754,0.49999646937345615,-9.9,29.25,16.05,0.279541015,0.5283203150000001,0.96875,0.49995197010978143,0.4999221929601467,0.5000355727772153,84.9,-0.15,76.65,-0.009765625,0.5344238299999999,0.53125,0.499917796301228,0.49991713019631895,0.4999279219161499,56.25,18.0,-8.7
0.04956054499999999,0.5563964849999999,0.27685547,0.5000221829602599,0.4999938047792871,0.5000068614128884,-9.6,30.45,16.2,0.295654295,0.5295410150000001,0.96533203,0.49995010487640984,0.49992265922485635,0.5000420344224386,84.9,-0.15,76.65,0.0024414049999999746,0.5283203150000001,0.5246582049999999,0.4998934815958197,0.49991806281300477,0.4999046064117384,55.8,18.75,-7.35
0.05566406499999999,0.565429685,0.279541015,0.5000056622844258,0.4999986677029155,0.4999876761428852,-8.7,29.55,16.65,0.29272461,0.52001953,0.963378905,0.4999365818908325,0.4999268560435757,0.5000364387223237,87.15,-0.45,76.65,0.005371095000000025,0.5139160150000001,0.5427246099999999,0.49990394030682933,0.49995110416467303,0.4999295873093222,55.8,18.75,-7.35
0.06298827999999998,0.5627441400000001,0.28417969,0.5000119908482935,0.4999698230827001,0.5000123238571148,-9.15,30.3,15.6,0.174072265,0.5126953150000001,0.9670410150000001,0.4999038736352519,0.4998501814606076,0.5000538920148437,87.15,-0.9,76.65,-0.007324220000000025,0.49975586,0.5368652349999999,0.4999170635247415,0.49993651530652145,0.4999300535740318,57.0,19.2,-7.95
0.05761718999999999,0.5617675799999999,0.28442383,0.5000169203562328,0.4999951370763716,0.4999862771742233,-9.15,30.3,15.6,0.369628905,0.49536133,0.9797363299999999,0.499941911166437,0.49984918225961084,0.5000007327764865,87.15,-0.45,76.05,0.0,0.49243164,0.5319824200000001,0.4999164640041435,0.4999347833290383,0.49992499081020414,57.0,19.2,-7.95
0.05834960999999998,0.5568847650000001,0.28979492,0.49998034837802074,0.5000067948285775,0.49995530089612594,-9.15,28.05,16.65,0.28442383,0.48364258,0.9450683599999999,0.49989474730859323,0.4999446424321834,0.5000257135868038,85.95,-0.45,77.7,0.01635741999999999,0.481689455,0.536621095,0.4999421110066363,0.49993904673206857,0.4999369149869202,56.1,18.3,-6.75
0.05883789000000002,0.553222655,0.287841795,0.4999910735135407,0.4999795490172233,0.49997182157196013,-8.1,29.25,15.3,0.283935545,0.47705077999999995,0.92675781,0.4999441760802073,0.4999517702695821,0.5000142557620638,86.25,-1.5,77.25,0.006103515000000016,0.48193359500000005,0.548339845,0.49994857273912596,0.4999592312030685,0.4999399793487544,56.25,17.4,-8.7
0.06225585999999998,0.5524902349999999,0.28955078,0.4999997335754897,0.4999551010559266,0.49999693563816583,-7.95,29.4,16.8,0.307128905,0.47412109500000005,0.9489746099999999,0.4999307863505183,0.499977284103453,0.5000415015734179,86.25,-1.5,76.95,0.01684570500000001,0.46533203,0.5441894549999999,0.4999742197416188,0.499921793279748,0.4999704226905646,57.3,17.7,-8.4
0.06274414000000002,0.5498046900000001,0.290283205,0.4999900076409665,0.49999913396762513,0.49996442722278467,-8.55,29.7,16.8,0.29638672,0.455322265,0.954589845,0.4999389800604912,0.4999806148897975,0.4999830130594562,86.25,-1.5,76.95,0.013427734999999984,0.45654297,0.5437011700000001,0.5000017986490606,0.49993471665746086,0.4999696899140782,55.35,19.8,-6.75
0.05810547000000003,0.546875,0.29589844,0.5000143223463748,0.4999786164005375,0.49995117074898404,-8.55,29.7,16.8,0.294921875,0.46166992,0.963378905,0.49996289508550074,0.49999353826751036,0.4999565666088995,86.55,-1.5,77.25,0.005859375,0.45678711,0.540527345,0.500031309374185,0.4999134663138867,0.4999781500485614,55.35,19.8,-6.75
0.05566406499999999,0.5520019549999999,0.28515625,0.5000012657127736,0.4999832128996555,0.49995216994998076,-9.6,29.4,16.2,0.302978515,0.46411133,0.9733886700000001,0.4999447756880718,0.5000035972108549,0.4999547013755279,86.85,-0.75,76.5,0.002197265000000016,0.46801758,0.5349121099999999,0.5000696799141914,0.4999139325785964,0.499991339938051,57.3,17.7,-7.35
0.05590820500000001,0.55126953,0.287109375,0.4999821470270813,0.5000081937099728,0.49996589277575754,-10.5,28.8,16.35,0.302246095,0.450439455,0.9865722650000001,0.49998454519674007,0.49997062253076396,0.49995110416467303,86.4,-0.9,78.45,0.02026366999999999,0.463378905,0.533691405,0.5001029877776364,0.4999499717077879,0.49995823200207173,57.3,17.7,-7.35
0.05883789000000002,0.5517578150000001,0.291503905,0.5000021983294594,0.4999949372361723,0.4999862105899123,-8.55,29.4,16.2,0.305908205,0.455566405,0.9738769549999999,0.49997735068776394,0.4999687572973924,0.49993924657226796,86.4,-0.9,78.45,0.005126955000000009,0.47119140499999995,0.54248047,0.500133031439048,0.49994943877150083,0.499995336916571,56.1,19.05,-6.75
0.05151366999999999,0.5461425799999999,0.283935545,0.5000163874199458,0.49998747630268586,0.4999616960443046,-8.55,29.4,16.2,0.311279295,0.46948242,0.9812011700000001,0.49997961560153426,0.49997581855048007,0.4999326515838899,87.15,-1.65,77.4,-0.001953125,0.48364258,0.541015625,0.5001430903823925,0.5000139226659761,0.4999832794839665,57.0,18.45,-6.6
0.04394531499999999,0.5334472650000001,0.291503905,0.500013323145378,0.499997401990142,0.4999493720999234,-8.1,27.75,15.6,0.29223633,0.455810545,0.96875,0.49999207271453744,0.4999649601590717,0.4999175298767177,86.85,-1.05,75.75,-0.0014648450000000254,0.48535156,0.5397949200000001,0.5001319655664738,0.5000344402330638,0.4999816140907943,56.7,18.6,-7.5
0.04370116999999999,0.5290527349999999,0.283691405,0.5000369050742999,0.4999573659696969,0.4999630283413891,-8.7,28.8,16.35,0.286132815,0.470703125,0.951660155,0.5000045964991181,0.499957898905984,0.49987462942190425,86.85,-1.05,75.75,-0.0007324199999999905,0.48901367,0.548339845,0.5001448223598757,0.5000484295706172,0.49999153977825034,57.6,17.4,-7.95
0.04370116999999999,0.5246582049999999,0.282958985,0.5000445658479856,0.49995963097073365,0.49993977950855506,-9.45,29.25,15.3,0.30053711,0.46850586,0.962890625,0.49998274654767944,0.4999770175916762,0.4999016753057926,86.85,-1.05,75.75,-0.01953125,0.502441405,0.5485839849999999,0.5001586117699633,0.5000546247913301,0.4999904739929426,54.75,18.75,-6.9
0.03588866999999999,0.5266113299999999,0.28076172,0.5000367718184114,0.4999751523583046,0.4999589647785582,-6.6,27.75,17.4,0.294189455,0.459960935,0.9650878900000001,0.4999944042998852,0.49999260565082454,0.49989374810759646,86.4,-0.15,76.05,-0.005371095000000025,0.49755859500000005,0.5441894549999999,0.5001483529864196,0.5000638843738772,0.49999114009785167,56.1,17.85,-8.25
0.03588866999999999,0.52783203,0.274658205,0.5000520267814721,0.4999900076409665,0.49994564163318017,-6.6,27.75,17.4,0.302490235,0.458984375,0.990722655,0.5000128567934019,0.49997628481518974,0.49989148319382615,86.85,-0.3,76.5,-0.014160155000000032,0.5126953150000001,0.5439453150000001,0.5001612097798215,0.500044166167587,0.5000124571130031,56.1,17.85,-8.25
0.04516601500000002,0.5244140650000001,0.282714845,0.5000704793622552,0.49994650766555504,0.49996595944733496,-8.55,29.4,16.5,0.301757815,0.455566405,0.9772949200000001,0.5000544915354418,0.4999825467074801,0.4998934815958197,86.85,-1.05,76.2,-0.019775390000000014,0.506347655,0.546875,0.5001749991899092,0.5000072610932871,0.5000171868680097,55.65,15.6,-8.25
0.04443359500000003,0.5322265650000001,0.279541015,0.5000531592383572,0.4999537687588421,0.49996988975427753,-7.65,28.8,16.35,0.294677735,0.462402345,0.98486328,0.5000566232805902,0.4999885420879936,0.4998731638689314,86.85,-1.05,76.2,-0.0014648450000000254,0.5075683599999999,0.5393066400000001,0.5001754655418852,0.5000178529729187,0.500024714385807,57.45,16.8,-8.85
0.05566406499999999,0.5329589849999999,0.279541015,0.5000580221619856,0.49997355363670976,0.4999555007363253,-8.7,28.05,16.35,0.283935545,0.467529295,0.9831542950000001,0.5000646171503637,0.49994577488906855,0.49987522894250236,84.75,-0.75,77.55,-0.010009765000000016,0.50097656,0.5476074200000001,0.5001698698417705,0.499980015281933,0.5000307097663205,56.7,17.55,-8.25
0.05078125,0.5290527349999999,0.28051758,0.5001037871384338,0.4999784831446491,0.49997615164656783,-8.7,28.05,16.35,0.30419922,0.459472655,0.9631347650000001,0.5001096493503254,0.4999330512642886,0.4998667687207527,86.25,-1.05,77.55,-0.002197265000000016,0.50708008,0.5319824200000001,0.5001680711927098,0.49996922356210205,0.5000443660077863,55.65,17.1,-7.2
0.05346679499999999,0.5224609400000001,0.287109375,0.5000850681331404,0.49998994105665556,0.49996662555224397,-7.35,28.8,15.6,0.30395508,0.487060545,0.98095703,0.5000063950609122,0.49999034073705423,0.49988022512201913,86.7,-1.2,77.7,-0.0012207050000000094,0.5217285150000001,0.5305175799999999,0.5001611431955104,0.49997788362405104,0.5000113912404289,55.65,17.1,-7.2
0.05737304499999999,0.520996095,0.26928711,0.5000742098289984,0.4999970023097432,0.49998168067510523,-7.35,28.5,15.3,0.282470705,0.484375,0.9670410150000001,0.5000365053939012,0.5000087932305709,0.4998467840899521,86.85,0.3,78.6,-0.0068359350000000065,0.51904297,0.5378417950000001,0.5001378276910989,0.49994590814495693,0.50000199848926,56.4,16.35,-7.8
0.05590820500000001,0.521972655,0.27246094,0.5000955267568835,0.4999608300119298,0.4999814808349059,-9.0,28.95,15.45,0.290771485,0.498291015,0.9846191400000001,0.5000506279000766,0.49999573659696966,0.4998633047657863,86.7,-1.2,76.35,-0.011230470000000025,0.529296875,0.5388183599999999,0.5001374280107002,0.49991546480314675,0.49999853444702713,56.4,15.3,-6.75
0.03613281499999999,0.5310058599999999,0.271728515,0.5000758752221708,0.4999680245209059,0.49994590814495693,-6.9,28.65,15.15,0.295654295,0.5,0.971679685,0.5000206508229761,0.499963894373764,0.4999117343364035,85.8,-2.25,78.0,0.0031738300000000094,0.53515625,0.536621095,0.500137694522477,0.49990513934802544,0.4999982680225168,56.4,15.3,-6.75
0.04443359500000003,0.52685547,0.26904297,0.5000797388575359,0.4999885420879936,0.49996036374722014,-6.9,28.65,15.15,0.29663086,0.50097656,0.9528808599999999,0.5000416347420399,0.49995410185492983,0.49988388900445135,85.8,-2.25,78.0,0.0048828149999999935,0.5388183599999999,0.5302734400000001,0.5001288346203286,0.4998894180329887,0.499986676854622,57.45,16.8,-8.25
0.04663085999999998,0.5241699200000001,0.278320315,0.5001113146562313,0.4999569662892982,0.500008660061949,-6.9,28.65,15.15,0.283691405,0.49658202999999995,0.9470214849999999,0.5000238483534322,0.4999637611178756,0.49989148319382615,86.7,-1.95,78.45,-0.003662109999999984,0.5393066400000001,0.5266113299999999,0.5001189088456061,0.49988042496221846,0.4999805482182201,57.45,16.8,-8.25
0.04711914000000002,0.5300292950000001,0.278320315,0.5001087167336397,0.49997162173176074,0.49996975649838915,-9.3,28.2,14.7,0.283691405,0.48876952999999995,0.94628906,0.5000103920394322,0.499966558967933,0.4999061386362887,84.9,-2.4,78.45,0.015136720000000025,0.54736328,0.5148925799999999,0.5000630183415024,0.49996988975427753,0.5000089264864593,56.7,18.3,-8.25
0.05590820500000001,0.5224609400000001,0.28466797,0.5001061853080926,0.49999886754311484,0.4999708889552743,-7.05,27.3,17.1,0.29589844,0.48974609500000005,0.9582519549999999,0.4999894081203684,0.4999875428869968,0.4999143323462616,86.55,-1.05,76.95,0.011474609999999984,0.5495605450000001,0.5263671900000001,0.500034040552665,0.4999857442379362,0.5000079938697736,55.5,17.4,-7.65
0.05957031499999999,0.5124511700000001,0.27270508,0.5001232389202138,0.4999614962041053,0.4999956700126587,-8.1,26.25,15.0,0.293945315,0.48046875,0.96826172,0.5000008660323748,0.49996922356210205,0.49992618985140025,86.55,-1.05,76.95,0.01440429499999999,0.537597655,0.5134277349999999,0.4999980681823174,0.49999833460682774,0.49999726873425354,57.0,15.9,-6.9
0.048828125,0.5158691400000001,0.27783203,0.5001013223844641,0.4999808813143078,0.499975352198504,-8.1,26.25,15.0,0.294189455,0.479248045,0.9453125,0.5000370382429218,0.49997928250544654,0.49993778101929504,85.65,-1.95,77.1,0.025634765000000014,0.5439453150000001,0.505371095,0.4999569662892982,0.5000365053939012,0.5000123238571148,54.9,15.6,-8.25
0.04907226500000002,0.5129394549999999,0.267578125,0.5001131799768693,0.49998827566348325,0.4999648269904498,-7.5,26.4,16.2,0.290771485,0.486328125,0.9387207049999999,0.5000399693488676,0.49999487056459485,0.4999205275669744,85.95,-1.95,77.4,0.013671875,0.5427246099999999,0.5217285150000001,0.49991233385700157,0.5000658828631372,0.5000010658725742,54.9,15.6,-8.25
0.05151366999999999,0.50830078,0.26977539,0.5001452887118518,0.49997188824353755,0.4999417113262376,-7.35,26.55,15.0,0.28564453,0.494140625,0.932128905,0.5000181860690064,0.5000125236973141,0.49995170368527114,85.95,-1.95,77.4,0.01635741999999999,0.5393066400000001,0.51074219,0.49988755279961716,0.5000464310813573,0.5000206508229761,57.45,16.35,-8.25
0.04370116999999999,0.50732422,0.28027344,0.5001309662782105,0.4999922059704259,0.49996129636390596,-7.65,27.3,15.6,0.290527345,0.50341797,0.9333496099999999,0.500022049791638,0.5000117910080942,0.49995603367261243,85.5,-2.25,79.05,0.020507814999999995,0.5437011700000001,0.5158691400000001,0.49986656888055336,0.5000901308969681,0.49998094789861874,57.45,16.35,-8.25
0.05346679499999999,0.50048828,0.27758789,0.5001235720163015,0.49997142189156135,0.49994817305872724,-7.35,27.3,16.35,0.291259765,0.490234375,0.9514160150000001,0.5000135895698883,0.5000155880591484,0.4999908736733413,84.45,-1.8,77.55,0.00390625,0.53466797,0.52294922,0.4998601738196411,0.5000922626421165,0.49998780931150716,56.1,17.1,-6.75
0.0546875,0.50317383,0.271972655,0.5001635413651692,0.49996635912773363,0.49997708426325366,-7.35,27.3,16.35,0.29296875,0.49658202999999995,0.95800781,0.5000042634030304,0.5000067948285775,0.49998014853782136,87.15,-2.7,78.15,0.007568359999999984,0.5280761700000001,0.52001953,0.49986650229624235,0.5000989242148055,0.4999875428869968,57.15,17.55,-7.2
0.04589843999999999,0.506347655,0.26855469,0.5001223063035279,0.5000151883787497,0.49990980243145444,-7.65,25.8,15.3,0.28979492,0.493408205,0.96044922,0.49999207271453744,0.500033441032067,0.5000132564738006,87.15,-2.7,78.15,0.0068359399999999935,0.5251464849999999,0.5153808599999999,0.4998505145566953,0.5001155114749506,0.4999677580091291,55.8,16.65,-8.4
0.048828125,0.510253905,0.271484375,0.5001175099642106,0.500006728157,0.4999477733783286,-8.55,26.4,15.45,0.28833008,0.49072265499999995,0.971191405,0.4999941377881084,0.5000137228257767,0.5000080604540845,85.8,-2.25,78.0,0.0009765649999999937,0.520996095,0.5173339849999999,0.4998506478125837,0.5001230390800144,0.499968624041504,57.15,19.05,-7.5
0.05297851500000002,0.508789065,0.271972655,0.5001334311194466,0.49998601074971294,0.4999576324814737,-8.25,26.7,15.45,0.28588867,0.49194336,0.966796875,0.49996142953252787,0.5000145888581515,0.5000549578874179,85.95,-1.95,78.15,-0.012207030000000032,0.51513672,0.5261230450000001,0.4998400558456857,0.5001095160944371,0.4999642273825852,57.45,16.8,-7.5
0.04028320500000001,0.509765625,0.274414065,0.5000892649518597,0.5000017319774832,0.4999403790291531,-8.25,26.7,15.45,0.29760742,0.501464845,0.9609375,0.4999432434635215,0.5000079938697736,0.5000286446927495,85.65,-2.7,78.15,-0.013183594999999968,0.5100097650000001,0.5185546900000001,0.49985191343809077,0.5001188422612951,0.499947173770464,56.7,17.1,-7.5
0.04833984500000003,0.50317383,0.27783203,0.5000835359958565,0.5000054624442265,0.49992652294748796,-7.65,25.8,15.6,0.290771485,0.48095702999999995,0.959472655,0.49994684076164275,0.5000043299873413,0.5000304433418102,85.65,-2.7,77.1,-0.00854491999999999,0.52001953,0.5263671900000001,0.499848249642925,0.500147020689335,0.49995583383241304,56.7,17.1,-7.5
0.05346679499999999,0.5139160150000001,0.278320315,0.5000900643126571,0.500020051302378,0.49996542651104786,-6.45,26.1,15.15,0.291748045,0.478515625,0.967285155,0.49993977950855506,0.500016054323858,0.5000531592383572,86.85,-2.25,78.0,-0.013671875,0.509765625,0.5266113299999999,0.4998480498027257,0.500133630959646,0.49993917990069053,56.4,17.1,-7.2
0.05322265499999997,0.5168457049999999,0.286621095,0.500046764177445,0.5000342403928644,0.49992372509743055,-8.55,25.35,16.8,0.290771485,0.467285155,0.96142578,0.499953169238244,0.5000027312657465,0.5000349731693509,88.05,-3.3,78.3,-0.0031738300000000094,0.508789065,0.525878905,0.4998712320512488,0.5001542151110446,0.4999399793487544,56.25,16.95,-8.7
0.05029297000000003,0.5129394549999999,0.28588867,0.5000255804181818,0.5000478966343301,0.4999143323462616,-7.5,26.4,15.75,0.282714845,0.48022461,0.9694824200000001,0.49994757353812924,0.5000321087349825,0.5000506279000766,88.05,-3.3,78.3,-0.004638669999999991,0.50390625,0.53076172,0.4998579089058708,0.5001755321261961,0.49996189588450396,55.8,16.95,-9.45
0.04833984500000003,0.506591795,0.282470705,0.500018585749405,0.500020051302378,0.49997635148676717,-7.5,26.4,15.75,0.299316405,0.470703125,0.97363281,0.49997182157196013,0.5000222496318373,0.5000422342626379,85.65,-3.15,75.6,-0.010742185000000007,0.50048828,0.5344238299999999,0.4998513805890702,0.5001283016840415,0.49994857273912596,55.8,16.65,-8.7
0.04760741999999999,0.493408205,0.283447265,0.49999753524603036,0.5000211171749521,0.4999458414733795,-8.25,26.4,15.75,0.302001955,0.466064455,0.9724121099999999,0.4999482396430382,0.5000317756388947,0.5000606201718436,86.25,-1.8,78.0,-0.006103515000000016,0.49926758,0.5329589849999999,0.49986810110510366,0.5001287679487512,0.499991339938051,55.8,16.65,-8.7
0.037109375,0.483154295,0.287109375,0.49998174734668266,0.5000326416712696,0.4999228591523222,-7.5,25.35,15.15,0.301757815,0.471435545,0.9689941400000001,0.4999729540288453,0.5000291776290366,0.5000456317205598,85.8,-2.55,78.0,-0.0029296850000000065,0.48681640499999995,0.5368652349999999,0.4998878193113939,0.5000742098289984,0.49996962324250077,57.15,16.8,-8.55
0.03662109500000003,0.48046875,0.28808594,0.5000041968187193,0.4999972021499426,0.49995263630195697,-8.25,26.4,14.4,0.299072265,0.47729492,0.96044922,0.4999609632678182,0.5000185191650941,0.5000377710194083,86.25,-1.5,77.55,-0.0014648450000000254,0.482177735,0.541015625,0.49990860339025833,0.5000446991038741,0.49995769906578463,57.3,16.65,-9.75
0.031005859999999986,0.47900390499999995,0.28149414,0.49996622587184525,0.5000219165357496,0.4999607634276188,-7.2,25.65,16.5,0.317626955,0.474365235,0.9426269549999999,0.5000677480965088,0.500019984718067,0.5000024647539697,85.5,-2.25,78.0,0.0024414049999999746,0.48583984500000005,0.52294922,0.49990873655888024,0.50002145027104,0.5000021983294594,57.3,16.65,-9.75
0.03125,0.48413086,0.28515625,0.4999734203808214,0.5000049295952058,0.4999349831692376,-7.2,25.65,16.5,0.28125,0.44189453,0.9807128900000001,0.4999413116458389,0.5000486294108166,0.5000378376909856,86.7,-1.65,78.9,0.003662109999999984,0.48364258,0.5334472650000001,0.49992605668277834,0.5000383039556954,0.49997655132696656,57.3,16.95,-8.4
0.04174804499999999,0.48413086,0.29199219,0.5000063950609122,0.4999970688940542,0.49998381242025364,-6.9,26.1,14.7,0.30102539,0.47802734500000005,0.9577636700000001,0.499984611781051,0.5000191852700031,0.500036105626236,86.7,-1.65,78.9,0.0009765649999999937,0.49365234500000005,0.5397949200000001,0.4999186623336029,0.5000127236247799,0.49999233922631425,56.25,16.95,-7.95
0.04028320500000001,0.48486327999999995,0.294189455,0.49999913396762513,0.4999851447173381,0.5000050627638277,-8.55,26.4,15.45,0.307128905,0.47900390499999995,0.978027345,0.499986676854622,0.5000433001352121,0.5000440329116985,86.7,-1.65,78.9,0.004638669999999991,0.48046875,0.53466797,0.499917796301228,0.5000144556022632,0.4999870099507097,55.2,18.75,-8.7
0.04589843999999999,0.494140625,0.293945315,0.4999782167201388,0.4999924058106252,0.4999660260316459,-9.0,25.65,15.75,0.31542969,0.467041015,0.9763183599999999,0.4999864770144226,0.5000081271256619,0.5000545582070192,85.95,-2.7,78.45,-0.006347654999999975,0.48461914,0.5341796900000001,0.49995876493835884,0.5000116577522058,0.5000082602942838,56.25,17.4,-7.35
0.05053710999999998,0.5056152349999999,0.29663086,0.499984678365362,0.4999783498887607,0.50000872664626,-9.0,25.65,15.75,0.30883789,0.48754883,0.9753417950000001,0.49999946706371295,0.5000045298275406,0.5000239816093206,85.8,-2.55,77.55,-0.00024414000000001578,0.48095702999999995,0.5344238299999999,0.4999647603188724,0.500044765688185,0.5000075276050638,56.25,16.65,-9.75
0.04858398499999998,0.501220705,0.29614258,0.4999843453565407,0.49998760947130777,0.5000173867082089,-7.65,25.05,15.6,0.30834961,0.466308595,0.9665527349999999,0.5000304433418102,0.5000165206758341,0.5000335742879554,87.3,-1.05,77.55,0.005859375,0.478271485,0.5339355450000001,0.4999636278619872,0.5000454984646715,0.49999447088419613,56.1,17.55,-8.25
0.05151366999999999,0.502685545,0.294921875,0.4999537687588421,0.5000110582316077,0.5000063284766012,-6.9,23.85,15.75,0.307128905,0.46826172000000005,0.9548339849999999,0.49998987438507814,0.500009326166858,0.5000171868680097,87.3,-1.05,77.55,-0.003662109999999984,0.493164065,0.5256347650000001,0.499957832321673,0.5000518935255837,0.49998967454487875,56.1,17.55,-8.25
0.04345702999999997,0.49975586,0.298095705,0.4999595642991563,0.49999213938611486,0.5000351730095501,-8.1,25.8,16.05,0.30004883,0.46850586,0.956054685,0.49999646937345615,0.5000392365723811,0.5000497618677018,85.8,-1.8,76.95,-0.004394529999999975,0.493408205,0.5388183599999999,0.499962561989413,0.5000513606765631,0.5000100589433445,55.65,17.55,-8.85
0.04174804499999999,0.498291015,0.29248047,0.49995157042938276,0.49998294638787877,0.5000415015734179,-9.15,26.25,15.6,0.30419922,0.47705077999999995,0.967773435,0.4999956033410813,0.5000491623471037,0.5000503613882998,85.65,-2.4,77.4,-0.0078125,0.49755859500000005,0.5412597650000001,0.4999597641393556,0.5000506944843875,0.5000243147054083,55.65,17.55,-8.85
0.04980468999999999,0.49633789,0.29614258,0.4999403790291531,0.49999813476662835,0.5000288445329489,-9.15,26.25,15.6,0.29760742,0.47192383,0.96582031,0.49999753524603036,0.5000520267814721,0.5000450987842727,85.65,-2.4,77.4,-0.0024414049999999746,0.49975586,0.5393066400000001,0.49999114009785167,0.5000231822485232,0.500000599520598,54.6,16.35,-7.8
0.05712890499999997,0.49975586,0.28588867,0.4999680245209059,0.5,0.500036105626236,-7.65,27.0,17.1,0.303222655,0.46459961,0.9782714849999999,0.5000003996803987,0.5000598874826238,0.5000316423830063,86.7,-2.4,77.7,-0.004638669999999991,0.49951172000000005,0.5344238299999999,0.500006661572689,0.5000007327764865,0.5000227825681245,56.7,17.85,-8.85
0.05517577999999997,0.5036621099999999,0.278564455,0.4999764180710781,0.5000044632432297,0.5000494287716141,-7.65,26.55,15.6,0.287597655,0.46801758,0.971679685,0.500034040552665,0.5000283782682392,0.5000468974333334,86.25,-1.8,78.0,-0.010009765000000016,0.5078125,0.53125,0.5000057289560033,0.5000005329362871,0.5000129900492903,54.0,18.0,-9.75
0.04418945500000001,0.49951172000000005,0.28051758,0.4999551010559266,0.5000117243365167,0.499984611781051,-9.0,26.4,15.75,0.29589844,0.46411133,0.971679685,0.500034840000729,0.5000137228257767,0.5000081271256619,85.65,-2.7,76.65,-0.010742185000000007,0.506347655,0.5329589849999999,0.5000190521013812,0.4999932051714226,0.500033441032067,54.6,17.85,-8.55
0.04028320500000001,0.505859375,0.28442383,0.4999730207004227,0.5000014655529729,0.500017986228807,-9.0,26.4,15.75,0.30761719,0.48120117,0.97705078,0.500028777948638,0.5000097925188342,0.5000451653685837,85.65,-2.7,76.65,-0.013427734999999984,0.493896485,0.524902345,0.49999713556563163,0.5000100589433445,0.5000223828877257,54.6,17.85,-8.55
0.04321289000000002,0.5144042950000001,0.278320315,0.49999420445968584,0.5000096592629458,0.5000329080957798,-9.0,26.4,15.75,0.299316405,0.475585935,0.971191405,0.5000239150250096,0.500011258071807,0.5000329080957798,85.8,-2.55,78.0,-0.008789060000000007,0.50439453,0.5224609400000001,0.5000049295952058,0.5000053292756045,0.50000472966774,55.2,18.0,-9.75
0.0390625,0.510498045,0.283691405,0.49996595944733496,0.5000157213150367,0.5000168537719218,-7.2,26.1,15.75,0.291748045,0.47998047000000005,0.96582031,0.5000315092143844,0.5000242481210974,0.5000226493122361,86.4,-3.15,77.4,-0.0026855449999999906,0.50341797,0.5158691400000001,0.49998814240759487,0.5000152549630607,0.5000472971137321,55.2,18.0,-9.75
0.03955077999999997,0.508789065,0.27758789,0.49996835761699365,0.49998734304679743,0.5000457648891817,-9.3,24.9,15.45,0.28833008,0.473876955,0.96191406,0.500036105626236,0.5000324418310702,0.5000231822485232,86.4,-3.15,77.4,-0.004394529999999975,0.5056152349999999,0.5207519549999999,0.49998401226045297,0.4999961362773684,0.5000139892502871,56.1,17.85,-8.85
0.04467773499999998,0.517578125,0.26904297,0.49997082237096335,0.499986676854622,0.5000428338705024,-8.1,26.25,17.4,0.29199219,0.48803711,0.9543457049999999,0.5000077274452632,0.5000213170151515,0.5000242481210974,88.2,-1.65,76.35,-0.011474609999999984,0.5126953150000001,0.5368652349999999,0.4999862105899123,0.5000054624442265,0.500052826229536,57.0,18.75,-10.05
0.03735351500000002,0.5095214849999999,0.27783203,0.4999632947658995,0.5000114579120064,0.5000004663519761,-8.25,25.35,16.5,0.29370117,0.49365234500000005,0.9680175799999999,0.500033441032067,0.5000204509827767,0.5000289777888374,87.6,-1.8,76.5,-0.010009765000000016,0.5124511700000001,0.53515625,0.4999944042998852,0.4999775505279633,0.5000510941647862,56.7,19.05,-9.6
0.04541015499999997,0.51513672,0.28491211,0.49998008195351035,0.4999938047792871,0.5000139892502871,-8.25,25.35,16.5,0.290039065,0.48852539,0.974609375,0.500009259582547,0.5000231822485232,0.500056090344303,85.95,-0.45,77.1,-0.0031738300000000094,0.518066405,0.5246582049999999,0.49996935681799043,0.49997495251810525,0.5000440329116985,55.8,18.45,-9.45
0.05224609500000003,0.5236816400000001,0.280029295,0.49996935681799043,0.49999946706371295,0.5000295773094354,-8.7,27.3,15.6,0.29345703,0.485595705,0.9738769549999999,0.5000498951235901,0.5000161875797464,0.5000416347420399,85.95,-0.45,77.1,-0.01098633000000001,0.5185546900000001,0.5354003900000001,0.499973287124933,0.49997322054062204,0.5000419012538166,55.8,18.45,-9.45
0.05371093999999999,0.51904297,0.28564453,0.4999455750488692,0.5000284448525503,0.49999140660962843,-7.95,26.4,16.5,0.29248047,0.482177735,0.971679685,0.5000460314009586,0.5000236485132329,0.5000371049144993,85.8,-2.25,77.55,-0.01171875,0.5163574200000001,0.5310058599999999,0.4999652932551594,0.49996729174441945,0.5000480964745295,56.25,19.2,-8.4
