IMU1_AccX,IMU1_AccY,IMU1_AccZ,IMU1_GyrX,IMU1_GyrY,IMU1_GyrZ,IMU1_MagX,IMU1_MagY,IMU1_MagZ,IMU2_AccX,IMU2_AccY,IMU2_AccZ,IMU2_GyrX,IMU2_GyrY,IMU2_GyrZ,IMU2_MagX,IMU2_MagY,IMU2_MagZ,IMU3_AccX,IMU3_AccY,IMU3_AccZ,IMU3_GyrX,IMU3_GyrY,IMU3_GyrZ,IMU3_MagX,IMU3_MagY,IMU3_MagZ
0.03515625,0.50854492,0.30419922,0.5000323751594928,0.49998634375853424,0.5000008660323748,-6.45,27.15,17.25,0.298095705,0.50073242,0.9528808599999999,0.49999307200280063,0.5000178529729187,0.5000215834396619,86.4,-0.45,77.7,0.0048828149999999935,0.5388183599999999,0.5178222650000001,0.49996322818158856,0.5000256470024929,0.4999513705891834,55.8,16.95,-8.7
0.03784179499999999,0.50708008,0.30151367,0.5000019318176826,0.49998294638787877,0.49996289508550074,-7.2,25.35,16.2,0.29345703,0.506835935,0.9533691400000001,0.4999936049390878,0.4999970688940542,0.49998234686728066,85.95,-2.4,77.7,0.0026855449999999906,0.5476074200000001,0.51513672,0.49998081472999684,0.5000546914629076,0.49998534455753746,55.8,16.95,-8.7
0.03833008000000001,0.5078125,0.30102539,0.5000001332558884,0.5000135895698883,0.4999904073213652,-7.2,25.35,16.2,0.287841795,0.497802735,0.96435547,0.4999836791643652,0.5000095260070574,0.5000150551228613,86.4,-1.2,77.4,0.00048827999999997475,0.5397949200000001,0.515625,0.4999737534769091,0.5000672151602218,0.4999543682794401,55.5,16.2,-9.0
0.04321289000000002,0.506591795,0.297851565,0.5000048629236283,0.49999067383314194,0.500002664594169,-6.3,25.8,17.7,0.296875,0.497070315,0.9641113299999999,0.4999722212523588,0.5000223162161483,0.5000211171749521,86.4,-2.7,77.4,0.004150390000000016,0.5363769549999999,0.5168457049999999,0.49998141425059495,0.5000639509581881,0.4999719548278485,56.25,18.75,-8.7
0.041015625,0.5134277349999999,0.298583985,0.49996742500030783,0.5000197182062902,0.4999878759830846,-7.05,25.5,17.7,0.2890625,0.490478515,0.96923828,0.49997082237096335,0.5000237817691212,0.5000110582316077,85.8,-3.0,77.55,-0.0034179700000000254,0.5361328150000001,0.51953125,0.4999774839436523,0.5000603537473334,0.4999802151221323,56.55,16.65,-9.0
0.03442383000000001,0.5158691400000001,0.29589844,0.49997934917702397,0.5000379709468741,0.4999910069292297,-6.9,25.65,16.8,0.29296875,0.489990235,0.9694824200000001,0.49997961560153426,0.5000037304667432,0.500000599520598,86.55,-2.25,77.25,-0.002197265000000016,0.5363769549999999,0.5231933599999999,0.4999570329608756,0.5000367052341005,0.4999748192622168,54.6,15.6,-9.6
0.02661133000000001,0.5166015650000001,0.290039065,0.49996922356210205,0.4999961362773684,0.5000104586237432,-5.7,24.9,15.75,0.28930664,0.48779297000000005,0.9699707049999999,0.49997768378385166,0.500020117886689,0.5000321087349825,86.55,-2.25,77.25,-0.011474609999999984,0.5280761700000001,0.524902345,0.499944509176295,0.5000503613882998,0.49998034837802074,54.6,15.6,-9.6
0.03125,0.51098633,0.287109375,0.4999716884033381,0.5000039969785199,0.4999822802829697,-5.7,24.9,15.75,0.294433595,0.48803711,0.963378905,0.4999826799633685,0.5000250474818948,0.500020117886689,86.25,-1.5,77.55,-0.006103515000000016,0.532714845,0.52001953,0.4999472404420415,0.5000398361802457,0.49997062253076396,56.4,16.05,-9.9
0.029785154999999976,0.5056152349999999,0.294189455,0.49994923893130144,0.5000020650735709,0.49997648465538913,-6.0,25.5,16.65,0.286376955,0.490234375,0.96826172,0.4999989341274258,0.5000241148652089,0.49999247239493616,84.9,-2.4,77.7,-0.00854491999999999,0.5319824200000001,0.5158691400000001,0.49994963861170016,0.5000576224815869,0.4999631615972775,56.4,16.05,-9.9
0.04223633000000001,0.5021972650000001,0.294677735,0.4999790160809362,0.4999868101105104,0.499997401990142,-8.25,26.4,17.55,0.295410155,0.490234375,0.97363281,0.49999313858711164,0.500013389729689,0.5000023315853478,84.0,0.0,77.25,-0.007568359999999984,0.5373535150000001,0.52685547,0.49993578253003507,0.5000711454671642,0.49997202141215946,56.1,17.1,-9.6
0.03955077999999997,0.51074219,0.306396485,0.49996309492570007,0.5000135229855773,0.4999894081203684,-7.2,25.65,15.45,0.29980469,0.49975586,0.9782714849999999,0.500022049791638,0.5000079272854626,0.4999982680225168,84.0,0.0,77.25,-0.008789060000000007,0.5322265650000001,0.524902345,0.49993851379578147,0.5000563568560799,0.49997688442305427,54.45,18.45,-10.8
0.03344726500000002,0.494140625,0.30126953,0.4999658261914466,0.5000241814495199,0.4999782167201388,-7.2,25.65,15.45,0.301757815,0.490234375,0.9709472650000001,0.5000008660323748,0.5000306431820095,0.5000191186856922,84.0,0.0,77.25,-0.010253904999999975,0.5302734400000001,0.5270996099999999,0.49994630782535565,0.500068281032796,0.49999540350088195,55.8,18.0,-10.05
0.037109375,0.50390625,0.30859375,0.49999713556563163,0.49998840891937163,0.4999820803555039,-7.05,25.05,17.7,0.307373045,0.493408205,0.96826172,0.4999927389067129,0.5000243812897193,0.5000265796191786,86.7,-0.9,78.15,0.001953125,0.528808595,0.528808595,0.49994757353812924,0.5000751424456843,0.4999661592875343,54.45,17.7,-9.0
0.03857422000000003,0.4921875,0.3046875,0.4999922059704259,0.5000162542513238,0.4999637611178756,-5.25,25.05,19.5,0.302490235,0.490234375,0.9748535150000001,0.4999894081203684,0.5000030643618342,0.5000173200366316,86.4,-3.15,77.1,-0.00390625,0.5341796900000001,0.53076172,0.4999568331206763,0.5000634181091675,0.499984678365362,54.45,17.7,-9.0
0.04125976500000002,0.49243164,0.314208985,0.4999646937345614,0.5000122572728039,0.4999832794839665,-6.0,25.8,16.65,0.30834961,0.482177735,0.9709472650000001,0.5000012657127736,0.5000345069046412,0.5000208506631754,86.4,-3.15,77.1,-0.003662109999999984,0.52783203,0.5302734400000001,0.4999451086968931,0.5000851347174513,0.49995876493835884,54.6,17.1,-9.9
0.03881835999999998,0.49536133,0.30932617,0.49999153977825034,0.4999796822731117,0.4999984678627162,-7.35,24.75,17.7,0.30078125,0.48901367,0.966308595,0.4999832128996555,0.5000001998401994,0.5000196516219793,86.85,-2.25,76.5,-0.0007324199999999905,0.5283203150000001,0.5349121099999999,0.4999584984265821,0.5000654831827385,0.49996662555224397,56.55,18.45,-10.05
0.03979491999999999,0.49755859500000005,0.29663086,0.49998827566348325,0.5000157878993476,0.49997894949662525,-7.35,24.75,17.7,0.30493164,0.48388672000000005,0.9665527349999999,0.49999766841465226,0.5000173867082089,0.5000161875797464,86.55,-1.05,78.3,-0.0024414049999999746,0.5314941400000001,0.533691405,0.49993651530652145,0.5000486959951276,0.4999726876043349,56.55,18.45,-10.05
0.04028320500000001,0.50048828,0.30444336,0.49998008195351035,0.500009259582547,0.4999862105899123,-7.35,24.75,17.7,0.30126953,0.49194336,0.9665527349999999,0.4999970688940542,0.50000199848926,0.5000305765976986,86.55,-2.25,77.55,-0.00854491999999999,0.5246582049999999,0.5270996099999999,0.4999389134761802,0.5000329747673573,0.4999744862533956,55.35,17.85,-8.55
0.03930664000000002,0.50073242,0.30493164,0.4999977350862297,0.4999901408968549,0.5000109249757193,-6.0,25.05,16.65,0.29760742,0.49243164,0.971191405,0.5000001998401994,0.500009326166858,0.5000189854298038,86.55,-2.25,77.55,-0.007324220000000025,0.5314941400000001,0.525390625,0.4999435765596092,0.5000397029243573,0.4999725543484465,54.75,18.0,-9.75
0.04394531499999999,0.506835935,0.30078125,0.49998501146144975,0.5000228491524354,0.49998334606827743,-8.25,26.1,15.75,0.298828125,0.494873045,0.9724121099999999,0.4999891416958581,0.49999200613022643,0.5000204509827767,87.45,-1.2,77.4,-0.0012207050000000094,0.5380859400000001,0.5261230450000001,0.49993784760360604,0.5000311761182967,0.49997561871028073,55.2,16.65,-9.75
0.03784179499999999,0.501464845,0.306884765,0.49997188824353755,0.5000197182062902,0.49998307964376715,-6.9,25.65,16.5,0.30078125,0.49853515499999995,0.9680175799999999,0.4999914731939394,0.5000083935501722,0.5000307097663205,86.85,-1.5,77.55,0.0078125,0.537109375,0.525878905,0.49991959495028865,0.5000199180464896,0.4999812144103955,54.3,18.6,-9.3
0.04345702999999997,0.49902344,0.30761719,0.49997035601898715,0.4999956033410813,0.49999886754311484,-6.9,25.65,16.5,0.298095705,0.497314455,0.9733886700000001,0.49999307200280063,0.5000041301471418,0.5000568231207895,86.4,-2.4,78.9,-0.0026855449999999906,0.5383300799999999,0.5241699200000001,0.4998904839055629,0.5000423009342153,0.49998501146144975,55.35,17.1,-8.85
0.04711914000000002,0.49633789,0.307373045,0.4999503047166092,0.5000119908482935,0.5000047963393174,-7.5,26.1,17.85,0.307128905,0.49536133,0.9733886700000001,0.4999858109095136,0.49997874965642586,0.5000452986244721,85.95,-0.45,77.4,-0.0009765600000000063,0.529296875,0.5202636700000001,0.49990847013436995,0.5000417679979283,0.49996975649838915,56.1,17.1,-9.9
0.04394531499999999,0.493408205,0.30883789,0.4999429104547002,0.5000141890904864,0.4999713553072504,-6.3,26.55,17.4,0.298828125,0.48510742,0.9724121099999999,0.49997322054062204,0.499993405011622,0.5000384372115838,85.8,-1.8,77.55,-0.001953125,0.52685547,0.5212402349999999,0.49989741199002874,0.5000282450123509,0.4999654930953588,56.1,17.1,-9.9
0.04296875,0.49755859500000005,0.303466795,0.49994770670675115,0.5000029976902568,0.5000137228257767,-5.55,27.0,15.6,0.29980469,0.493164065,0.9748535150000001,0.49998008195351035,0.49999573659696966,0.5000349731693509,87.45,-0.45,77.1,-0.007080080000000009,0.521972655,0.521972655,0.49989148319382615,0.5000397029243573,0.4999813476662839,54.6,18.3,-9.3
0.04858398499999998,0.502685545,0.306152345,0.4999396462526666,0.500002598009858,0.4999964027891452,-6.6,25.8,17.4,0.30053711,0.493164065,0.9680175799999999,0.4999851447173381,0.49998427868496326,0.5000726776044482,87.45,-0.45,77.1,-0.009521484999999984,0.517578125,0.529296875,0.4999061386362887,0.5000162542513238,0.4999637611178756,54.6,18.3,-9.3
0.03833008000000001,0.50390625,0.298339845,0.4999288545328357,0.5000359724576141,0.49997601839067946,-6.6,25.8,17.4,0.30004883,0.49658202999999995,0.970703125,0.49998041504959817,0.499975352198504,0.5000423675185263,86.4,-1.2,78.15,-0.004150390000000016,0.5148925799999999,0.5158691400000001,0.49992132692777186,0.4999936049390878,0.49997854972896005,53.25,19.05,-10.35
0.03833008000000001,0.502929685,0.299316405,0.4999682909454162,0.49999726873425354,0.49999114009785167,-6.6,27.3,17.1,0.299316405,0.48510742,0.967773435,0.4999708889552743,0.4999940712037974,0.500060753427732,86.85,-1.05,76.95,-0.009765625,0.5302734400000001,0.5173339849999999,0.4999175298767177,0.5000004663519761,0.4999518369411595,54.6,18.3,-9.6
0.03686523499999998,0.5021972650000001,0.299316405,0.4999694900738788,0.4999914731939394,0.5000151217071722,-6.3,27.3,17.4,0.287841795,0.498779295,0.9719238299999999,0.4999694900738788,0.5000007993607974,0.5000620191405056,85.8,-1.5,77.25,-0.001953125,0.5241699200000001,0.517089845,0.4998912166820494,0.5000197848778677,0.49998814240759487,55.65,17.1,-9.6
0.03857422000000003,0.51123047,0.29370117,0.49993378404077504,0.5000245145456076,0.49999660262934453,-7.65,25.8,17.7,0.30102539,0.486328125,0.9611816400000001,0.499984611781051,0.5000033307863445,0.5000600206512457,87.15,-1.65,76.35,-0.0012207050000000094,0.5380859400000001,0.51098633,0.4999047396676268,0.5000143223463748,0.4999682909454162,55.65,17.55,-10.65
0.04052734500000003,0.51098633,0.296875,0.49992932079754543,0.5000071278373986,0.4999723545082472,-7.65,25.8,17.7,0.29370117,0.493896485,0.97265625,0.4999670252326427,0.4999790160809362,0.500053492334445,85.8,-0.75,78.3,-0.0012207050000000094,0.5263671900000001,0.5178222650000001,0.49988129099459333,0.5000232488328341,0.4999509043244737,53.7,18.45,-8.7
0.04150390499999997,0.50390625,0.299560545,0.4999590313628692,0.5000011324568852,0.5000051294354051,-6.9,26.7,17.55,0.27734375,0.490478515,0.9641113299999999,0.499968624041504,0.4999844785251626,0.5000866002704243,86.4,-1.65,77.1,-0.00903320500000001,0.5349121099999999,0.506591795,0.49989368143601903,0.5000011324568852,0.49996436063847366,55.35,17.1,-10.35
0.04321289000000002,0.502441405,0.299316405,0.4999097358471435,0.500026779459378,0.49995829858638274,-6.6,25.5,17.7,0.28930664,0.494384765,0.9621582049999999,0.49997275418864584,0.4999794823456459,0.5000495620275024,86.4,-1.65,77.1,-0.007324220000000025,0.5244140650000001,0.5183105450000001,0.49988415542896164,0.49998827566348325,0.49998441194085164,55.35,17.1,-10.35
0.04785156499999999,0.5078125,0.30102539,0.49995876493835884,0.5000317090545837,0.4999692902336795,-7.5,26.1,16.5,0.28881836,0.49194336,0.9782714849999999,0.49997615164656783,0.4999840788447639,0.500073543636823,85.35,-0.9,78.15,-0.007080080000000009,0.5251464849999999,0.5158691400000001,0.4998926156507113,0.5000136562414658,0.499980015281933,57.3,18.45,-10.5
0.05493164000000002,0.506347655,0.29980469,0.4999457083047576,0.5000301102457225,0.49999140660962843,-5.7,26.4,16.8,0.295166015,0.48852539,0.9704589849999999,0.49996436063847366,0.4999838790045646,0.500066882064134,85.65,-1.95,77.7,-0.009765625,0.5290527349999999,0.506591795,0.4998855543976236,0.5000001998401994,0.49997615164656783,55.8,17.7,-10.5
0.04541015499999997,0.50341797,0.299316405,0.4999129999619106,0.5000743429976204,0.499984611781051,-5.7,26.4,16.8,0.28881836,0.482421875,0.9680175799999999,0.4999832794839665,0.4999780168799394,0.5000571562168772,87.3,-1.05,78.3,-0.01098633000000001,0.5187988299999999,0.5144042950000001,0.49987216458066813,0.49997635148676717,0.49996869062581495,55.35,16.8,-9.9
0.03564452999999997,0.51123047,0.291259765,0.4999472404420415,0.5000452320401612,0.49998994105665556,-7.65,26.55,17.4,0.291748045,0.486083985,0.9616699200000001,0.4999840788447639,0.4999840788447639,0.5000688805533939,87.3,-1.05,78.3,-0.0012207050000000094,0.517578125,0.517089845,0.4998801585377082,0.49998814240759487,0.49999140660962843,56.1,17.85,-9.6
0.03662109500000003,0.5158691400000001,0.286621095,0.4999288545328357,0.5000540252707321,0.4999977350862297,-6.6,27.0,16.65,0.287353515,0.478759765,0.9641113299999999,0.49999140660962843,0.49999067383314194,0.500055490823705,86.55,-1.05,78.0,-0.012939454999999952,0.517089845,0.5178222650000001,0.49988415542896164,0.4999794157613349,0.49998441194085164,56.1,17.85,-9.6
0.03466797000000003,0.513671875,0.28881836,0.4998854877260462,0.5000748093495966,0.49999527033226004,-7.35,26.55,15.3,0.294189455,0.479248045,0.958496095,0.49999680246954387,0.5000055291158039,0.5000720780838501,86.85,-1.8,77.25,-0.007080080000000009,0.509765625,0.509277345,0.499891083426161,0.4999780168799394,0.49995010487640984,54.9,17.55,-8.85
0.0234375,0.5153808599999999,0.28198242,0.4999429770390112,0.5000438996558102,0.49999233922631425,-7.35,26.55,15.3,0.294677735,0.478515625,0.96923828,0.49998168067510523,0.49998727637522006,0.500056023759992,86.85,-1.8,77.25,-0.011230470000000025,0.5146484400000001,0.5173339849999999,0.499893081915421,0.4999682909454162,0.49997428641319624,55.5,18.75,-10.05
0.028320314999999995,0.49951172000000005,0.280029295,0.49992039431108604,0.5000318422232056,0.4999936049390878,-6.6,25.8,17.4,0.286621095,0.47802734500000005,0.9704589849999999,0.4999760849749904,0.49999600302148,0.5000519601971611,86.7,-0.15,76.65,-0.012451170000000048,0.5075683599999999,0.5129394549999999,0.49989754515865065,0.4999822136113923,0.49997934917702397,55.5,18.75,-10.05
0.030761720000000024,0.50463867,0.282470705,0.4999012090410829,0.5000356393615264,0.4999713553072504,-5.7,26.7,16.5,0.295654295,0.471679685,0.966308595,0.49997994869762197,0.5000073943491754,0.5000756753819714,86.25,-1.5,78.0,-0.007568359999999984,0.5119628900000001,0.5185546900000001,0.49990540585980225,0.4999515038450718,0.4999626952453014,54.9,19.05,-9.3
0.03955077999999997,0.502685545,0.29370117,0.49992425803371765,0.5000197182062902,0.5000047963393174,-6.6,25.8,17.1,0.294433595,0.48510742,0.9597167950000001,0.4999851447173381,0.49999780167054064,0.5000539586864211,85.8,-1.5,78.0,-0.004394529999999975,0.5197753900000001,0.5275878900000001,0.4999079371980829,0.49995010487640984,0.5000167871003445,54.9,19.05,-9.3
0.04345702999999997,0.50830078,0.30078125,0.49993531626532534,0.4999958031812807,0.4999966692136555,-6.3,27.0,16.65,0.283447265,0.48901367,0.970703125,0.4999890750242807,0.49998707653502067,0.500071411978941,85.8,-1.5,78.0,-0.0029296850000000065,0.5185546900000001,0.51611328,0.4999173300365183,0.4999495053558118,0.5000055291158039,55.35,18.6,-9.9
0.05102539000000002,0.50830078,0.30493164,0.49991246711288995,0.5000450987842727,0.49998674352619943,-6.3,27.0,16.65,0.330322265,0.49267577999999995,0.982910155,0.4999840788447639,0.49997488593379424,0.500060753427732,85.8,-1.05,77.55,-0.00048827999999997475,0.5153808599999999,0.52392578,0.4999036072107416,0.49996102985212915,0.5000002664245103,56.4,17.55,-8.85
0.05517577999999997,0.50708008,0.297851565,0.4999449755282711,0.5000362388821243,0.5000135895698883,-7.05,26.55,16.05,0.30029297,0.48046875,0.9694824200000001,0.499984678365362,0.5000008660323748,0.5000716118191404,84.45,-0.75,79.35,-0.005615234999999984,0.5078125,0.5236816400000001,0.4999140658344848,0.4999857442379362,0.5000057955403142,53.25,17.85,-8.55
0.05712890499999997,0.510253905,0.29760742,0.4999565666088995,0.5000347067448405,0.5000059953805135,-7.05,26.55,17.1,0.296875,0.471435545,0.974609375,0.499977950208362,0.5000132564738006,0.5000705459465662,86.4,-1.95,77.7,-0.005615234999999984,0.513183595,0.5227050799999999,0.49990453982742744,0.49993991267717697,0.499997335405831,55.35,18.3,-9.6
0.05151366999999999,0.508789065,0.29711914,0.49993831395558214,0.5000659494474482,0.4999882089919058,-7.5,27.15,16.5,0.28808594,0.46826172000000005,0.96826172,0.4999937381077097,0.49996209572470335,0.5000381707870735,86.4,-1.95,77.7,0.0012207050000000094,0.51098633,0.5224609400000001,0.49992066082286285,0.4999518369411595,0.5000075941893748,55.35,18.3,-9.6
0.04199218999999999,0.50073242,0.287841795,0.499963894373764,0.5000492289314147,0.5000104586237432,-6.45,25.65,16.2,0.3125,0.473876955,0.9787597650000001,0.500020117886689,0.49996196246881497,0.5000428338705024,86.25,-0.3,76.5,-0.01049804499999999,0.50830078,0.5280761700000001,0.4999270558837751,0.49996196246881497,0.499993271843,55.65,18.6,-9.3
0.03466797000000003,0.5100097650000001,0.28808594,0.4999713553072504,0.5000040635628309,0.500006062052091,-6.45,25.65,16.2,0.299316405,0.48144531,0.9765625,0.5000215168553509,0.49999353826751036,0.5000550244717289,85.65,-0.9,78.15,-0.004150390000000016,0.5126953150000001,0.5373535150000001,0.4999188621738022,0.49997908266524715,0.4999698230827001,55.65,18.6,-9.3
0.0390625,0.510253905,0.28051758,0.49994710718615304,0.5000355727772153,0.4999997335754897,-7.95,27.45,16.8,0.298339845,0.48071289,0.9704589849999999,0.4999992672235135,0.49995117074898404,0.5000490290912153,85.5,-0.75,77.55,-0.01098633000000001,0.5178222650000001,0.5324707049999999,0.4999271891396635,0.49994444259198406,0.49999993341568905,55.5,18.45,-9.75
0.046875,0.505859375,0.290039065,0.49997155514744973,0.5000041968187193,0.5000343736487528,-6.9,26.7,15.15,0.313476565,0.47802734500000005,0.98046875,0.5000140559218645,0.49992738897986283,0.5000333077761786,85.5,-0.75,77.55,-0.008789060000000007,0.51904297,0.533203125,0.49991633074825514,0.49993831395558214,0.5000124571130031,55.35,19.05,-8.85
0.05297851500000002,0.505859375,0.29199219,0.49997601839067946,0.4999880758232839,0.5000181860690064,-7.35,28.5,16.05,0.29711914,0.481689455,0.9724121099999999,0.5000268461309554,0.4999930053312232,0.500031375958496,85.8,-0.3,78.6,-0.008056640000000016,0.521972655,0.5407714849999999,0.49990693799708613,0.49995290272646725,0.50001072513552,54.6,19.05,-8.85
0.04223633000000001,0.49267577999999995,0.299316405,0.49996662555224397,0.5000055291158039,0.4999940712037974,-7.35,28.5,16.05,0.306640625,0.501220705,0.9636230450000001,0.5000237817691212,0.4999936049390878,0.500033441032067,87.15,-0.9,77.1,-0.010009765000000016,0.5295410150000001,0.545410155,0.499928521436748,0.4999270558837751,0.5000137228257767,54.9,17.85,-8.25
0.041015625,0.497314455,0.30126953,0.49998068147410846,0.4999720880837369,0.5000014655529729,-7.35,28.5,16.05,0.317626955,0.498046875,0.9738769549999999,0.5000104586237432,0.49994284378312276,0.500048229730418,87.15,-0.45,78.9,-0.001953125,0.5244140650000001,0.5341796900000001,0.49992865469263637,0.4999257901710015,0.4999859440781355,55.5,18.45,-8.4
0.04321289000000002,0.5017089849999999,0.307128905,0.49998347932416587,0.4999776171122743,0.5000338407124657,-7.95,26.4,18.3,0.32470703,0.5126953150000001,0.98046875,0.5000401691890669,0.4999713553072504,0.5000378376909856,85.95,0.15,77.7,0.0048828149999999935,0.5207519549999999,0.5383300799999999,0.49990753751768413,0.4999270558837751,0.5000227825681245,55.8,18.75,-7.95
0.04370116999999999,0.50439453,0.306152345,0.4999728208602233,0.5000055957001148,0.5000249142260064,-7.65,27.3,17.1,0.31713867,0.497802735,0.95751953,0.5000530260697353,0.49998840891937163,0.5000394364125805,86.55,0.0,78.3,-0.00024414000000001578,0.517089845,0.537109375,0.4999038736352519,0.4999120673452248,0.5000117243365167,55.8,18.75,-7.95
0.04589843999999999,0.5126953150000001,0.302246095,0.4999808813143078,0.49999034073705423,0.49999646937345615,-7.2,27.45,16.8,0.313964845,0.497802735,0.9616699200000001,0.500046764177445,0.4999852113016491,0.500042767198925,87.15,-0.45,78.9,0.001953125,0.51611328,0.5329589849999999,0.49990367379505257,0.4999288545328357,0.5000095260070574,56.4,18.3,-7.8
0.046875,0.5100097650000001,0.303222655,0.5000027978500574,0.499986610270311,0.5000508943245869,-7.2,26.7,17.25,0.333740235,0.49584961,0.9714355450000001,0.5000028644343684,0.4999472404420415,0.5000602871630224,87.15,-0.45,78.9,0.01684570500000001,0.521972655,0.52392578,0.499915065122748,0.49991786297280544,0.4999988009588039,54.6,19.35,-9.6
0.04614258000000001,0.5146484400000001,0.29980469,0.499964627062984,0.500010791719831,0.4999986677029155,-7.2,26.7,17.25,0.3125,0.494384765,0.9577636700000001,0.49999453755577355,0.5000207174945535,0.5000710788828533,85.5,-1.5,79.05,0.01489258000000001,0.5183105450000001,0.53173828,0.49989428104388356,0.4999194616944002,0.4999900076409665,56.4,19.05,-7.5
0.03222656499999999,0.513183595,0.29711914,0.4999696899140782,0.5000259135142696,0.499980015281933,-5.7,24.9,16.5,0.311035155,0.475585935,0.9606933599999999,0.5000213835994626,0.49995983081093304,0.5000793391771372,85.65,-0.45,78.15,0.007324220000000025,0.5222167950000001,0.537597655,0.49993118603091696,0.4999339838809744,0.5000162542513238,55.5,20.7,-6.6
0.03930664000000002,0.5163574200000001,0.290283205,0.4999914731939394,0.4999877427271962,0.5000305099261212,-7.65,27.75,16.05,0.31225586,0.498779295,0.9689941400000001,0.5000157878993476,0.4999948039802839,0.5000510275804753,86.7,-0.9,77.7,0.0068359399999999935,0.5197753900000001,0.5295410150000001,0.49993937982815634,0.49993851379578147,0.5000197848778677,55.5,20.7,-6.6
0.04125976500000002,0.509277345,0.295166015,0.4999524364617576,0.5000222496318373,0.4999885420879936,-6.9,27.45,17.25,0.314697265,0.48681640499999995,0.96582031,0.5000216501112393,0.49999553675677033,0.5000726110201372,86.7,-0.9,77.7,0.0048828149999999935,0.5205078150000001,0.5334472650000001,0.49991939511008926,0.49996922356210205,0.5000028644343684,54.75,19.2,-6.9
0.03613281499999999,0.51098633,0.29614258,0.49994710718615304,0.5000039303069426,0.5000002664245103,-6.9,27.45,17.25,0.31713867,0.497802735,0.9665527349999999,0.5000359057860366,0.4999756852945917,0.5000697465857689,85.65,-0.15,78.45,0.0078125,0.5295410150000001,0.53564453,0.4999181293973157,0.4999565666088995,0.5000345069046412,55.2,18.75,-9.0
0.04736327999999997,0.510253905,0.302001955,0.4999675581689298,0.4999760849749904,0.500033973968354,-7.35,27.75,17.4,0.302001955,0.502441405,0.9675292950000001,0.500015388218949,0.4999860773340239,0.5000693468181037,85.5,-0.75,77.55,0.005371095000000025,0.5246582049999999,0.524902345,0.4999004762645965,0.499980015281933,0.5000029976902568,55.2,18.75,-9.0
0.05444335999999998,0.5095214849999999,0.303466795,0.4999440429115854,0.500010791719831,0.500020051302378,-6.0,28.05,16.35,0.31616211,0.497802735,0.9606933599999999,0.5000324418310702,0.49998168067510523,0.5000739433172217,85.5,-0.75,77.55,-0.0009765600000000063,0.524902345,0.53955078,0.4999046064117384,0.5000103920394322,0.5000022649137703,54.45,19.2,-7.65
0.056640625,0.5251464849999999,0.310058595,0.4999565666088995,0.5000147886983509,0.49998720979090905,-6.45,27.45,15.15,0.29663086,0.489990235,0.95800781,0.5000109249757193,0.4999455750488692,0.5000614862042185,86.4,0.15,78.15,0.011230470000000025,0.5241699200000001,0.532714845,0.49988835224768097,0.5000038637226316,0.4999956700126587,54.45,19.2,-7.65
0.048828125,0.52294922,0.30859375,0.49998274654767944,0.49999960031960133,0.5000090597423477,-7.35,28.05,16.65,0.32006836,0.506835935,0.96875,0.5000248476416954,0.49998501146144975,0.5000520934530495,84.75,0.75,78.6,0.015380859999999984,0.5283203150000001,0.5295410150000001,0.4998868866947081,0.5000363721380128,0.500013856081665,57.9,20.1,-7.5
0.05029297000000003,0.5266113299999999,0.306396485,0.49996835761699365,0.5000217832798612,0.5000065949883781,-7.35,28.05,16.65,0.313476565,0.50073242,0.95263672,0.4999984678627162,0.49999660262934453,0.5000684808729953,86.4,2.4,78.45,0.013427734999999984,0.5224609400000001,0.53564453,0.4999235252572312,0.5000427006146141,0.49999080700176385,56.1,20.55,-8.55
0.04516601500000002,0.5185546900000001,0.30151367,0.49995876493835884,0.5000433001352121,0.500015987739547,-5.4,27.9,17.25,0.306152345,0.5390625,0.9592285150000001,0.4999365818908325,0.5000379042752966,0.5001123139444945,86.4,2.4,78.45,0.01049804499999999,0.52734375,0.5290527349999999,0.499935849114346,0.5000169869405438,0.4999992672235135,56.7,20.1,-7.5
0.0390625,0.5222167950000001,0.298095705,0.49995969755504466,0.5000189854298038,0.5000254471622935,-8.1,27.3,18.15,0.302246095,0.5036621099999999,0.958984375,0.5000461646568469,0.49995363550295374,0.5000680811925965,87.3,0.75,79.35,0.012695314999999993,0.5192871099999999,0.5241699200000001,0.49991439893057255,0.5000834694115456,0.4999951370763716,56.25,19.95,-6.9
0.03881835999999998,0.5236816400000001,0.30004883,0.49995963097073365,0.5000141225061755,0.5000149885385503,-7.65,28.8,18.15,0.31591797,0.502685545,0.9765625,0.5000083269658613,0.5000170536121212,0.500071545147563,86.25,0.3,79.05,0.0017089849999999843,0.51904297,0.5417480450000001,0.4998905505771403,0.500066215959225,0.5000316423830063,55.8,19.95,-8.4
0.0390625,0.528808595,0.294921875,0.49992858802105894,0.5000322419908709,0.5000205842386651,-7.65,28.8,18.15,0.297851565,0.5185546900000001,0.95263672,0.5000323085751819,0.500031442542807,0.5000570895452998,85.95,1.2,77.1,-0.0007324199999999905,0.501464845,0.5402832049999999,0.4999186623336029,0.5000434999754114,0.5000124571130031,55.65,21.15,-7.5
0.04638672000000003,0.5354003900000001,0.290527345,0.499979882113311,0.49996902372190266,0.5000614862042185,-8.25,27.45,17.85,0.30102539,0.494384765,0.963867185,0.4999840788447639,0.500019984718067,0.5000564900247018,86.4,1.2,77.7,0.00048827999999997475,0.501220705,0.536621095,0.4999515038450718,0.500051427260874,0.49999213938611486,55.65,21.15,-7.5
0.04370116999999999,0.53515625,0.294677735,0.4999453752086699,0.49999247239493616,0.5000264463632902,-7.2,28.65,15.75,0.311279295,0.48291015499999995,0.990234375,0.49996229556490274,0.5000420344224386,0.5000728108603365,85.5,0.0,78.3,0.003662109999999984,0.49633789,0.5458984400000001,0.49995796557756145,0.5000525597177592,0.49999400461948645,55.65,20.85,-9.3
0.046875,0.5397949200000001,0.294921875,0.49993531626532534,0.500020117886689,0.5000412350616411,-6.3,28.8,17.7,0.301757815,0.49365234500000005,0.970214845,0.5000486959951276,0.5000634846934785,0.5000532924942456,86.25,1.5,79.8,-0.015380859999999984,0.50488281,0.5319824200000001,0.4999751523583046,0.5000623522365933,0.5000377044350973,56.4,20.1,-7.5
0.05590820500000001,0.5354003900000001,0.302246095,0.49996016381975433,0.499986676854622,0.5000289777888374,-7.35,27.3,17.4,0.296875,0.47753906,0.978027345,0.5000037304667432,0.500035506105638,0.5000568231207895,86.25,1.5,79.8,-0.021484375,0.49584961,0.533691405,0.5000139226659761,0.5000419678381276,0.5000263131946683,56.55,21.0,-6.9
0.06469726500000002,0.52685547,0.298095705,0.49992046098266346,0.5000397029243573,0.5000281784280399,-7.35,27.3,17.4,0.294677735,0.493164065,0.979003905,0.5000415681577288,0.500038104115496,0.5000300436614116,85.8,1.5,77.25,-0.0029296850000000065,0.50708008,0.5266113299999999,0.5000118575924052,0.5000502282196779,0.5000444992636747,55.5,20.25,-7.95
0.05200195500000001,0.528808595,0.29736328,0.4999434433037208,0.5000308430222089,0.50000199848926,-7.65,28.5,17.1,0.298339845,0.47705077999999995,0.98779297,0.5000264463632902,0.5000111914002296,0.500028711364327,85.35,0.15,78.9,0.0017089849999999843,0.5119628900000001,0.5334472650000001,0.5000178529729187,0.5000706125308773,0.5000201845582664,56.1,20.1,-7.5
0.03979491999999999,0.525878905,0.291259765,0.4999684242013046,0.5000006661921754,0.5000584219296508,-7.95,29.4,16.5,0.296875,0.49536133,0.959960935,0.5000674150004211,0.4999965359577671,0.49999447088419613,84.75,0.75,77.55,-0.0014648450000000254,0.5183105450000001,0.5283203150000001,0.5000032642020336,0.5001015222246635,0.5000210505033748,55.5,20.7,-7.65
0.03295898499999998,0.5207519549999999,0.290283205,0.49995623351281177,0.5000157213150367,0.5000162542513238,-8.4,29.55,16.05,0.30444336,0.5017089849999999,0.9660644549999999,0.5000172534523206,0.5000184524935167,0.5000178529729187,85.65,0.9,77.55,-0.0017089849999999843,0.5285644549999999,0.5344238299999999,0.5000175865484083,0.5000818040183733,0.5000393032439586,55.5,20.7,-7.65
0.04174804499999999,0.53515625,0.294433595,0.4999498384518995,0.4999760849749904,0.500033507616378,-7.35,28.8,16.35,0.306396485,0.5168457049999999,0.9626464849999999,0.5000361722978134,0.49999260565082454,0.5000007993607974,86.55,0.75,78.9,0.005371095000000025,0.5314941400000001,0.52392578,0.5000263131946683,0.5000744096691978,0.4999500382920989,56.25,20.25,-8.4
0.03808593999999999,0.53173828,0.303222655,0.49999034073705423,0.49997115546705106,0.5000235153446109,-7.95,27.9,16.5,0.30493164,0.5080566400000001,0.9645996099999999,0.5000375045948979,0.5000190521013812,0.5000338407124657,85.35,0.75,77.55,0.013183595000000025,0.5380859400000001,0.5322265650000001,0.5000291776290366,0.5001219732074402,0.5000676148406205,56.25,20.25,-8.4
0.04711914000000002,0.5422363299999999,0.29980469,0.4999600306511324,0.5000141225061755,0.5000193851102025,-7.05,28.05,16.65,0.310791015,0.5146484400000001,0.970703125,0.5000257135868038,0.5000322419908709,0.49999980015980067,85.35,0.9,78.9,0.01245116999999999,0.5439453150000001,0.5324707049999999,0.5000317090545837,0.5000613529483301,0.5000197848778677,55.8,21.0,-9.75
0.04980468999999999,0.5480957049999999,0.298095705,0.4999600972354434,0.5000398361802457,0.5000016653931723,-7.05,28.8,17.1,0.30541992,0.5139160150000001,0.95751953,0.5000043299873413,0.5000399693488676,0.5000178529729187,85.35,0.9,78.9,0.015380859999999984,0.541503905,0.5202636700000001,0.5000227825681245,0.5000800719536236,0.5000205842386651,55.8,19.95,-9.0
0.048828125,0.54638672,0.295166015,0.4999419778380144,0.49998441194085164,0.5000365719782122,-7.35,28.5,16.65,0.310546875,0.5187988299999999,0.9609375,0.499970689115075,0.5000289112045264,0.5000585550982727,86.55,0.75,78.3,0.002197265000000016,0.5427246099999999,0.5339355450000001,0.5000290443731483,0.5001197748779809,0.5000146554424625,55.5,20.7,-7.95
0.05322265499999997,0.537109375,0.287841795,0.49994217767821375,0.5000192519415806,0.5000101921992328,-7.35,28.5,16.65,0.30151367,0.509765625,0.9626464849999999,0.4999906071615645,0.5000233820887224,0.5000143223463748,85.65,1.2,76.65,0.003662109999999984,0.54296875,0.5261230450000001,0.5000061286364019,0.5000949272362856,0.499995336916571,55.65,19.8,-8.85
0.04736327999999997,0.5285644549999999,0.295410155,0.4999568331206763,0.5000074609334864,0.49999646937345615,-7.5,29.7,16.5,0.31152344,0.506835935,0.974121095,0.500064816990563,0.5000476302098198,0.5000093928384355,85.65,2.4,78.15,-0.01098633000000001,0.537597655,0.532714845,0.4999958031812807,0.500068281032796,0.5000033307863445,55.65,19.8,-8.85
0.03784179499999999,0.521972655,0.28833008,0.5000097925188342,0.499991339938051,0.5000359724576141,-7.05,28.5,17.7,0.279541015,0.509765625,0.9714355450000001,0.4999934716831994,0.5000698797543908,0.5000525597177592,85.65,2.4,78.15,-0.00048827999999997475,0.537597655,0.5178222650000001,0.4999988009588039,0.5000567565364785,0.49998687669482134,55.65,19.8,-8.85
0.03735351500000002,0.5224609400000001,0.279296875,0.4999992672235135,0.49998274654767944,0.5000199180464896,-7.35,29.25,17.1,0.28833008,0.51171875,0.9729003900000001,0.4999952036606826,0.5000476967941307,0.5000231155769457,85.05,2.25,77.55,-0.012939454999999952,0.5341796900000001,0.5114746099999999,0.49996782468070655,0.5000392365723811,0.5000407021253541,54.0,19.95,-7.95
0.04614258000000001,0.520996095,0.28125,0.4999984678627162,0.49999540350088195,0.4999961362773684,-7.05,28.05,17.1,0.28808594,0.521484375,0.9719238299999999,0.5000217832798612,0.5000251140662058,0.5000355727772153,86.25,2.55,78.3,-0.017822265000000014,0.529296875,0.5183105450000001,0.49995396859904145,0.500013856081665,0.5000078606138851,54.0,19.95,-7.95
0.04223633000000001,0.53857422,0.28027344,0.49998654368600004,0.4999831462280781,0.5000297105653237,-7.05,28.05,17.7,0.28979492,0.50488281,0.9562988299999999,0.5000397029243573,0.5000597542267353,0.5000401691890669,86.25,2.55,78.3,-0.006591794999999991,0.5314941400000001,0.5129394549999999,0.4999810811545071,0.5000178529729187,0.4999714884758723,56.55,21.0,-8.4
0.04711914000000002,0.5349121099999999,0.275146485,0.5000008660323748,0.5000135229855773,0.500012790209091,-7.05,28.05,17.7,0.287353515,0.51611328,0.956054685,0.5000075276050638,0.500013389729689,0.5000231822485232,85.5,2.25,78.6,-0.0026855449999999906,0.5388183599999999,0.52294922,0.4999467075057544,0.500022715896547,0.5000062618922902,56.25,20.7,-9.0
0.048828125,0.5322265650000001,0.28417969,0.49996189588450396,0.4999812144103955,0.5000216501112393,-6.3,28.8,17.1,0.28540039,0.5158691400000001,0.963378905,0.5000013989686619,0.5000344402330638,0.5000550244717289,85.95,1.65,76.65,-0.011962890000000016,0.5263671900000001,0.5227050799999999,0.49994544179298084,0.5000211171749521,0.5000341738085534,55.35,21.6,-8.25
0.04052734500000003,0.5400390650000001,0.291503905,0.49997928250544654,0.49999127335374005,0.5000063284766012,-7.35,28.8,16.35,0.29248047,0.5178222650000001,0.966796875,0.5000235153446109,0.5000152549630607,0.5000101256149219,85.5,0.75,77.55,-0.0024414049999999746,0.5285644549999999,0.5163574200000001,0.4999769510073652,0.5000645505660527,0.5000143223463748,54.75,19.5,-9.45
0.044921875,0.5388183599999999,0.294433595,0.5000031975304562,0.49999020748116585,0.5000203843984657,-8.1,28.8,16.35,0.291748045,0.51220703,0.975097655,0.49997108879547364,0.5000322419908709,0.500038703636094,85.5,0.75,77.55,-0.005615234999999984,0.5217285150000001,0.5144042950000001,0.4999549012157273,0.5000468974333334,0.49997162173176074,56.25,21.0,-8.7
0.05175781499999999,0.544433595,0.29321289,0.49998427868496326,0.500003464042233,0.5000131898894896,-8.1,28.8,16.35,0.295166015,0.521972655,0.978027345,0.4999636278619872,0.5000151883787497,0.5000721447554275,85.65,1.2,79.2,-0.007324220000000025,0.5300292950000001,0.5197753900000001,0.4999687572973924,0.5000187855896044,0.5000337075438438,56.25,21.45,-9.45
0.04565429499999999,0.5419921900000001,0.294921875,0.49998641043011166,0.49999293874691225,0.5000620191405056,-7.65,28.5,16.65,0.296875,0.5041503900000001,0.9738769549999999,0.4999739533171085,0.5000173867082089,0.500048762666705,85.05,0.0,78.3,-0.007324220000000025,0.5236816400000001,0.525390625,0.49997601839067946,0.5000080604540845,0.5000271125554657,56.25,21.45,-9.45
0.04345702999999997,0.548828125,0.302734375,0.499975951719102,0.4999898078007671,0.5000550244717289,-7.05,27.3,16.65,0.30517578,0.5192871099999999,0.978027345,0.4999810811545071,0.5000288445329489,0.5000489625069043,85.95,1.2,78.45,-0.006103515000000016,0.5197753900000001,0.52294922,0.5000144556022632,0.5000216501112393,0.4999784831446491,56.25,21.0,-8.4
0.04125976500000002,0.54248047,0.297851565,0.4999516371009602,0.4999835459084768,0.5000178529729187,-6.3,28.05,17.4,0.30102539,0.505371095,0.97216797,0.5000001332558884,0.4999958698528581,0.5000548913031069,85.35,0.9,78.15,0.005615234999999984,0.5224609400000001,0.5234375,0.5000075941893748,0.5000398361802457,0.49999473739597294,55.65,19.8,-10.35
0.04370116999999999,0.5407714849999999,0.299316405,0.49994610798515626,0.4999694234023014,0.500039503084158,-6.45,28.65,16.8,0.305908205,0.5080566400000001,0.97363281,0.4999851447173381,0.49999833460682774,0.5000289777888374,85.8,0.0,78.0,-0.004638669999999991,0.5207519549999999,0.5207519549999999,0.499984678365362,0.5000324418310702,0.49999153977825034,55.65,20.55,-9.3
0.03930664000000002,0.5439453150000001,0.30541992,0.49996276182961236,0.49998008195351035,0.5000476967941307,-6.45,28.65,16.8,0.3046875,0.49975586,0.9621582049999999,0.4999861439183349,0.5000209173347528,0.5000216501112393,85.05,1.8,77.55,0.00048827999999997475,0.525878905,0.5202636700000001,0.49999693563816583,0.5000770742633669,0.5000484961549282,53.85,19.8,-9.3
0.03808593999999999,0.5380859400000001,0.295654295,0.49992185986405896,0.5000084602217496,0.5000233155044115,-7.65,30.3,17.7,0.303222655,0.49145508,0.9655761700000001,0.4999956033410813,0.5000130566336013,0.5000279119162632,85.05,1.8,77.55,0.0078125,0.5163574200000001,0.5146484400000001,0.4999891416958581,0.5000617527159953,0.499997335405831,54.6,20.1,-6.75
0.04760741999999999,0.5334472650000001,0.29736328,0.49996109643644016,0.5000085268060606,0.5000223828877257,-7.05,27.3,16.65,0.298339845,0.497314455,0.9660644549999999,0.5000111914002296,0.5000175865484083,0.5000427006146141,86.85,0.3,79.35,0.0007324199999999905,0.5126953150000001,0.5290527349999999,0.5000027978500574,0.5000548913031069,0.5000037970510541,54.6,20.55,-9.6
0.04809570500000001,0.5310058599999999,0.298583985,0.49997401990141943,0.4999690903934801,0.5000504280598773,-7.35,28.5,18.15,0.30126953,0.490478515,0.96875,0.5000078606138851,0.5000189854298038,0.5000094594227464,85.05,0.3,77.25,-0.0009765600000000063,0.5212402349999999,0.52734375,0.5000089264864593,0.5000532924942456,0.5000201845582664,54.6,20.55,-9.6
0.04956054499999999,0.528808595,0.30493164,0.4999656929355582,0.5000025314255471,0.49999393794790903,-7.35,28.5,18.15,0.30786133,0.501220705,0.9609375,0.5000173200366316,0.5000022649137703,0.5000096592629458,85.95,0.15,77.1,0.0012207050000000094,0.51074219,0.5251464849999999,0.5000226493122361,0.5000538254305328,0.5000081271256619,55.35,20.1,-9.3
0.04833984500000003,0.5388183599999999,0.301757815,0.4999852779732265,0.4999563001843892,0.5000228491524354,-7.95,28.95,16.2,0.3046875,0.509033205,0.96142578,0.5000109915600303,0.5000125236973141,0.5000245811299187,85.95,0.15,77.1,0.007568359999999984,0.52001953,0.513671875,0.5000518269412727,0.5000319088947831,0.4999894081203684,55.35,20.1,-9.3
0.06298827999999998,0.5427246099999999,0.30126953,0.499975352198504,0.5000106584639425,0.5000070612530877,-7.65,29.25,17.4,0.305664065,0.49658202999999995,0.9621582049999999,0.4999786164005375,0.5000105252953206,0.4999774839436523,84.9,2.4,77.1,0.003662109999999984,0.517578125,0.52734375,0.5000345069046412,0.5000431668793237,0.49999746857445293,55.2,20.7,-9.75
0.05566406499999999,0.5446777349999999,0.29614258,0.4999581654177608,0.5000204509827767,0.49999313858711164,-7.2,29.7,17.25,0.30029297,0.50097656,0.9650878900000001,0.5000061286364019,0.5000881990792855,0.5000091263266587,85.5,1.5,77.55,-0.007080080000000009,0.5197753900000001,0.5310058599999999,0.5000546247913301,0.5000281117564624,0.49999527033226004,56.1,20.85,-8.25
0.04614258000000001,0.5437011700000001,0.29223633,0.4999898078007671,0.5000225827279251,0.5000108583041419,-7.35,30.6,16.35,0.291015625,0.485595705,0.9543457049999999,0.4999966692136555,0.5000190521013812,0.49999400461948645,85.5,1.5,77.55,0.0017089849999999843,0.5187988299999999,0.5227050799999999,0.5000481630588405,0.49997415315730787,0.4999916730341387,54.0,19.2,-9.45
0.04443359500000003,0.5378417950000001,0.291503905,0.4999764180710781,0.5000057289560033,0.49999960031960133,-7.35,30.6,16.35,0.296875,0.49145508,0.9787597650000001,0.5000118575924052,0.5000119241767161,0.499997401990142,84.9,1.65,78.15,-0.0017089849999999843,0.51611328,0.51904297,0.5000676815121978,0.4999936049390878,0.5000186523337161,55.5,19.95,-9.75
0.04321289000000002,0.5322265650000001,0.28979492,0.4999675581689298,0.5000363055537018,0.4999948039802839,-6.3,31.05,17.1,0.29296875,0.49682617,0.984375,0.4999980681823174,0.5000229824083238,0.49997635148676717,85.95,1.65,76.65,-0.0009765600000000063,0.517089845,0.5244140650000001,0.500047430282354,0.49996575960713563,0.4999954701724594,55.5,19.95,-9.75
0.04516601500000002,0.5305175799999999,0.28833008,0.5000206508229761,0.500018052813118,0.5000050627638277,-7.05,30.3,17.1,0.28955078,0.5095214849999999,0.9641113299999999,0.5000252473220941,0.5000226493122361,0.4999904073213652,86.4,-0.15,77.1,-0.005859375,0.5187988299999999,0.5251464849999999,0.5000571562168772,0.4999990673833142,0.4999928054910239,54.75,19.95,-10.05
0.04077148499999998,0.5324707049999999,0.29272461,0.5000301769172999,0.49999886754311484,0.4999980681823174,-8.4,28.5,17.7,0.29248047,0.5041503900000001,0.9650878900000001,0.5000061286364019,0.5000113912404289,0.4999432434635215,86.4,-0.15,77.1,-0.009277345000000025,0.5224609400000001,0.5217285150000001,0.5001067182443797,0.4999475068665518,0.5000142557620638,54.45,21.0,-9.0
0.04785156499999999,0.5422363299999999,0.294433595,0.5000317090545837,0.5000288445329489,0.49999946706371295,-8.4,28.5,17.7,0.299072265,0.50097656,0.96533203,0.5000163208356349,0.5000333077761786,0.4999878759830846,85.35,1.2,77.7,-0.002197265000000016,0.524902345,0.518066405,0.5000548913031069,0.49998694336639876,0.5000067948285775,54.45,21.0,-9.0
0.04858398499999998,0.53955078,0.299560545,0.5000323085751819,0.5000007327764865,0.50001072513552,-7.65,28.8,18.15,0.28442383,0.51074219,0.962890625,0.5000181860690064,0.5000779402957417,0.49998534455753746,86.7,1.2,78.9,-0.007080080000000009,0.524902345,0.532714845,0.5000576891531644,0.49999680246954387,0.5000379709468741,54.3,20.55,-10.35
0.05078125,0.5407714849999999,0.30371094,0.5000293108849251,0.49999540350088195,0.4999912067694291,-7.65,29.85,17.4,0.298828125,0.5002441400000001,0.966308595,0.5000016653931723,0.5000149218669728,0.49997788362405104,86.7,1.2,78.9,-0.006591794999999991,0.5227050799999999,0.521484375,0.5000966593010352,0.4999878759830846,0.5000359057860366,55.35,20.85,-9.6
0.04931640499999997,0.5407714849999999,0.298828125,0.499997335405831,0.5000347733291515,0.4999946707243955,-7.5,29.7,17.25,0.298583985,0.501220705,0.9768066400000001,0.5000115910806283,0.50002617993878,0.4999670919042201,86.85,1.8,77.25,0.006347654999999975,0.52294922,0.520996095,0.5001127136248932,0.5000087932305709,0.5000139226659761,53.85,20.55,-10.65
0.04833984500000003,0.5461425799999999,0.30029297,0.5000242481210974,0.5000013989686619,0.5000124571130031,-9.15,27.3,17.4,0.30371094,0.5041503900000001,0.97705078,0.5000136562414658,0.5000077274452632,0.49997874965642586,86.4,1.2,77.1,-0.005615234999999984,0.52734375,0.5144042950000001,0.5000923292264274,0.5000171868680097,0.5000229824083238,55.35,19.8,-8.85
0.03662109500000003,0.533203125,0.294677735,0.5000028644343684,0.5000350398409282,0.4999888085997704,-9.15,27.3,17.4,0.298095705,0.49462890499999995,0.9816894549999999,0.5000309762780973,0.500022715896547,0.49997408648573044,85.5,1.8,78.0,0.00048827999999997475,0.5275878900000001,0.5202636700000001,0.5000895980479474,0.5000243812897193,0.5000046630834291,54.0,20.25,-7.95
0.04394531499999999,0.533691405,0.29345703,0.5000021983294594,0.5000079272854626,0.4999821470270813,-7.95,30.9,16.5,0.29736328,0.49755859500000005,0.966308595,0.5000330413516683,0.5000259800985806,0.4999728208602233,85.5,1.8,78.0,-0.0007324199999999905,0.5285644549999999,0.5168457049999999,0.5000990573834274,0.5000082602942838,0.5000098591031451,54.9,20.1,-9.9
0.05200195500000001,0.563964845,0.27246094,0.500069413489681,0.49993871363598086,0.49995949771484527,-9.3,30.45,15.45,0.27368164,0.51611328,0.95019531,0.4999831462280781,0.5000154548032599,0.499975352198504,87.15,-0.15,76.35,-0.00048827999999997475,0.528808595,0.525878905,0.5000707457867656,0.5000090597423477,0.4999580321618724,56.1,18.6,-8.85
0.05371093999999999,0.55908203,0.26977539,0.5000615528757959,0.49996729174441945,0.4999432434635215,-10.65,28.95,16.8,0.280029295,0.5205078150000001,0.962890625,0.4999968690538548,0.5000008660323748,0.4999573659696969,86.4,0.45,76.05,0.0012207050000000094,0.5285644549999999,0.5266113299999999,0.5000029976902568,0.49996515999927105,0.49992479097000475,55.35,18.6,-8.55
0.05297851500000002,0.5612792950000001,0.27416992,0.5000806048899107,0.49995590041672405,0.4999406454536634,-10.65,28.95,16.8,0.283447265,0.5202636700000001,0.94970703,0.49996935681799043,0.500005262604027,0.49994697393026466,86.85,0.0,75.75,0.004150390000000016,0.5192871099999999,0.5224609400000001,0.4999932051714226,0.4999632947658995,0.49997215466804784,55.35,18.6,-8.85
0.06225585999999998,0.560546875,0.27661133,0.5000897978881468,0.4999477733783286,0.5000178529729187,-10.2,28.05,16.05,0.28588867,0.53515625,0.9528808599999999,0.5000035972108549,0.5000143889306857,0.4999746860935949,86.85,0.0,75.75,-0.0078125,0.5178222650000001,0.5236816400000001,0.4999828131319904,0.499986610270311,0.499991339938051,54.45,19.95,-7.95
0.06030273499999998,0.5617675799999999,0.271972655,0.5000791393369378,0.4999775505279633,0.4999755520387033,-9.45,30.3,15.3,0.266845705,0.521972655,0.958984375,0.49994877257932535,0.5000349065850399,0.4999632947658995,88.2,-1.2,77.4,-0.02246094000000005,0.5310058599999999,0.5244140650000001,0.49995530089612594,0.49994410949589635,0.4999346500731499,54.6,19.35,-9.6
0.05566406499999999,0.5656738299999999,0.275146485,0.5000517603569617,0.4999830130594562,0.49992832159654865,-8.25,28.95,16.8,0.282714845,0.5295410150000001,0.9592285150000001,0.4999391133163796,0.49999500382048323,0.49998101457019617,86.4,-0.45,76.05,-0.022216795000000046,0.5358886700000001,0.5471191400000001,0.4999887419281929,0.4999473070263524,0.4999968690538548,54.6,18.3,-9.3
0.05102539000000002,0.58251953,0.28149414,0.5000781401359411,0.49997601839067946,0.4999760849749904,-7.95,28.95,16.5,0.27392578,0.5163574200000001,0.9641113299999999,0.49994803980283886,0.5000274456515534,0.4999457083047576,87.75,-0.45,76.35,-0.016845704999999954,0.5310058599999999,0.5334472650000001,0.5000157213150367,0.4998959464370558,0.4999880091517065,54.6,18.3,-9.3
0.05883789000000002,0.58544922,0.28930664,0.5000510941647862,0.49996196246881497,0.4999640942139633,-7.95,28.95,16.5,0.28979492,0.51098633,0.97216797,0.4999397128369776,0.500024647801496,0.49997142189156135,85.65,-0.9,76.05,-0.01855469000000005,0.5144042950000001,0.556152345,0.5000077940295742,0.4998649701589585,0.499971288635673,54.6,18.3,-9.3
0.05957031499999999,0.5666503900000001,0.28588867,0.5000135229855773,0.4999673583287304,0.49994410949589635,-9.0,28.65,15.45,0.290527345,0.506347655,0.9782714849999999,0.49996036374722014,0.500011258071807,0.4999227924807448,86.7,-0.45,76.35,-0.011962890000000016,0.5207519549999999,0.5456542950000001,0.5000157878993476,0.49986203905301274,0.49996562635124725,55.2,18.75,-8.4
0.05004883000000001,0.5612792950000001,0.28515625,0.500044832272496,0.4999437098154976,0.5000045298275406,-7.95,29.7,14.1,0.291015625,0.5126953150000001,0.9763183599999999,0.49995503447161566,0.4999986010313381,0.49994097854975117,88.2,-0.9,76.05,-0.005615234999999984,0.5244140650000001,0.5283203150000001,0.5000610865238199,0.4999143323462616,0.4999679578493285,55.2,18.75,-8.4
0.05371093999999999,0.5554199200000001,0.28466797,0.500033441032067,0.49993258499957893,0.4999453752086699,-8.25,28.95,17.25,0.278320315,0.5270996099999999,0.9758300799999999,0.4999534356627543,0.499997335405831,0.4999379808594944,88.2,-0.9,76.05,-0.010009765000000016,0.53466797,0.549316405,0.5000594211306475,0.49986856736981333,0.5000081937099728,55.8,19.2,-7.65
0.056640625,0.56298828,0.29296875,0.5000211171749521,0.4999739533171085,0.49994757353812924,-8.25,28.95,17.25,0.28588867,0.506347655,0.975585935,0.4999397128369776,0.4999716884033381,0.4999446424321834,87.3,0.75,76.95,0.004394529999999975,0.544921875,0.5412597650000001,0.5001398927646699,0.49990513934802544,0.49995769906578463,55.65,20.1,-6.45
0.05590820500000001,0.5671386700000001,0.29663086,0.5000116577522058,0.4999495053558118,0.4999470406018421,-8.1,28.5,16.35,0.28881836,0.502441405,0.96484375,0.49995963097073365,0.4999907404174529,0.49990220824207965,87.45,-0.45,75.6,-0.009521484999999984,0.5490722650000001,0.53955078,0.5001401592764466,0.49988935144867774,0.4999877427271962,56.4,20.55,-7.5
0.05834960999999998,0.5622558599999999,0.290527345,0.5000355727772153,0.49995536756770337,0.4999586983540479,-8.25,30.15,15.45,0.297851565,0.48828125,0.9719238299999999,0.49998994105665556,0.4999815475064833,0.4999220597042583,86.7,-0.45,75.3,0.011230470000000025,0.54248047,0.5310058599999999,0.5001623422367066,0.49988695327901905,0.49998334606827743,55.65,17.85,-9.3
0.05786133000000001,0.55517578,0.30102539,0.500033441032067,0.49997508577399363,0.49996023049133176,-9.6,27.45,15.75,0.282958985,0.458251955,0.9641113299999999,0.49999833460682774,0.4999795490172233,0.49988695327901905,86.7,-0.45,75.3,0.015625,0.552246095,0.5244140650000001,0.5001618759719969,0.4999321853191802,0.49997455283770653,56.7,19.8,-8.55
0.04711914000000002,0.5524902349999999,0.291503905,0.5000479632186411,0.49996122969232853,0.4999493055156124,-7.95,28.2,16.8,0.295410155,0.467529295,0.9401855450000001,0.5000780734643636,0.4999548346314163,0.4998605735000398,87.3,-1.5,74.4,0.01489258000000001,0.5344238299999999,0.533203125,0.5001105152954338,0.49997322054062204,0.4999469073459537,56.1,18.6,-6.45
0.04809570500000001,0.5539550799999999,0.28857422,0.5000718782436507,0.4999321186476028,0.49997974885742263,-7.95,28.2,16.8,0.294921875,0.50341797,0.9572753900000001,0.499975885134791,0.4999958031812807,0.4999122006011132,86.4,-0.45,75.6,0.013183595000000025,0.525390625,0.5270996099999999,0.5001107151356332,0.5000204509827767,0.4999842121006523,56.1,18.6,-6.45
0.04614258000000001,0.5490722650000001,0.291748045,0.5001138460817783,0.49992079399148476,0.49994590814495693,-9.6,30.45,15.75,0.28588867,0.50073242,0.94482422,0.5000082602942838,0.5000121906884929,0.49985850842646884,86.4,-0.45,75.6,0.01440429499999999,0.5324707049999999,0.5380859400000001,0.5001091829983493,0.5000217832798612,0.4999704226905646,57.15,20.85,-7.5
0.04833984500000003,0.545410155,0.283935545,0.5000616860444178,0.49995456811963945,0.49996296175707816,-7.95,28.65,17.25,0.28515625,0.502929685,0.9631347650000001,0.5000163208356349,0.5000129900492903,0.499866369040354,87.6,-2.55,76.5,0.004638669999999991,0.53564453,0.54638672,0.5000969257255454,0.500039503084158,0.499957898905984,55.35,19.05,-8.25
0.04907226500000002,0.54248047,0.28466797,0.5001080505414641,0.4999403790291531,0.49996742500030783,-9.15,27.75,16.05,0.28466797,0.481689455,0.9694824200000001,0.5000760750623701,0.5000089264864593,0.4998631715098979,87.3,0.0,75.45,0.0068359399999999935,0.5183105450000001,0.5439453150000001,0.5000953935882616,0.5000147886983509,0.49996322818158856,57.15,20.1,-7.8
0.04858398499999998,0.537109375,0.28808594,0.5001227059839267,0.4999323851593796,0.4999614962041053,-9.15,27.75,16.05,0.28955078,0.5187988299999999,0.966796875,0.49999693563816583,0.5000195849504019,0.49990027642439705,86.7,-1.2,76.35,0.004394529999999975,0.5339355450000001,0.5283203150000001,0.5001071179247784,0.500019984718067,0.49996902372190266,56.25,19.95,-7.35
0.05493164000000002,0.5383300799999999,0.29296875,0.5001229724084371,0.49995203678135886,0.499941844582126,-8.7,27.3,17.7,0.28540039,0.498046875,0.95800781,0.49998994105665556,0.4999958698528581,0.49989501382037005,86.7,-1.2,76.35,0.010253904999999975,0.5471191400000001,0.5383300799999999,0.5001041868188325,0.5000566232805902,0.4999549012157273,55.65,19.8,-7.2
0.0546875,0.5368652349999999,0.282226565,0.5001047197551197,0.4999698230827001,0.4999677580091291,-8.55,27.9,15.75,0.286376955,0.502685545,0.96435547,0.5000109915600303,0.49998694336639876,0.4998879525672823,87.6,-1.05,75.15,-0.0009765600000000063,0.53515625,0.54296875,0.5001286347801293,0.5000051294354051,0.4999606301717304,56.55,18.45,-6.9
0.04345702999999997,0.53125,0.291259765,0.5001441561677001,0.4999318522230925,0.49996016381975433,-8.25,27.15,15.15,0.275878905,0.48681640499999995,0.955078125,0.5000027312657465,0.499979882113311,0.49988129099459333,86.55,-1.5,75.75,0.006103515000000016,0.5329589849999999,0.5231933599999999,0.5000840022605662,0.5000176531327193,0.49996416079827427,56.55,18.45,-6.9
0.05346679499999999,0.5354003900000001,0.28491211,0.500140359116646,0.4999616293727272,0.49996122969232853,-6.9,27.15,15.45,0.28198242,0.49560547000000005,0.955566405,0.5000243147054083,0.4999887419281929,0.4998994770635997,86.85,-2.25,76.2,-0.0017089849999999843,0.5329589849999999,0.5341796900000001,0.5000764747427687,0.5000508943245869,0.4999687572973924,57.15,18.3,-8.25
0.05786133000000001,0.5241699200000001,0.279541015,0.5001358958734163,0.49993851379578147,0.4999690903934801,-6.9,27.15,15.45,0.274658205,0.487304685,0.9548339849999999,0.5000231155769457,0.5000033307863445,0.4999059387088229,86.7,-2.4,75.3,-0.009765625,0.53466797,0.5302734400000001,0.5000719449152282,0.5000358392017257,0.4999676248405072,57.15,18.3,-8.25
0.06030273499999998,0.5178222650000001,0.27636719,0.5001620092278852,0.499946574249866,0.4999509043244737,-7.2,27.45,17.25,0.27319336,0.477783205,0.9577636700000001,0.5000207174945535,0.5000087932305709,0.49991333305799834,86.85,-3.0,76.2,-0.005615234999999984,0.5295410150000001,0.5324707049999999,0.5000725444358263,0.5000143889306857,0.49997575187890264,56.25,17.4,-9.45
0.05688476500000002,0.51904297,0.278564455,0.5001390934038724,0.49997182157196013,0.4999309196064067,-7.95,26.4,16.5,0.26904297,0.482177735,0.9611816400000001,0.5000115244963174,0.4999831462280781,0.4998906837457623,86.25,-0.75,78.0,-0.015869140000000014,0.5393066400000001,0.5300292950000001,0.5000533590785566,0.4999962695332568,0.4999986010313381,56.55,16.95,-8.7
0.04980468999999999,0.52001953,0.274414065,0.5001622756523956,0.4999780168799394,0.4999379808594944,-8.1,27.75,16.35,0.27416992,0.48803711,0.9660644549999999,0.5000003330960877,0.4999871432065981,0.4999153981315693,86.25,-0.75,78.0,-0.012939454999999952,0.5390625,0.5295410150000001,0.5000035306265439,0.4999982680225168,0.4999704892748756,55.65,17.55,-9.3
