IMU1_AccX,IMU1_AccY,IMU1_AccZ,IMU1_GyrX,IMU1_GyrY,IMU1_GyrZ,IMU1_MagX,IMU1_MagY,IMU1_MagZ,IMU2_AccX,IMU2_AccY,IMU2_AccZ,IMU2_GyrX,IMU2_GyrY,IMU2_GyrZ,IMU2_MagX,IMU2_MagY,IMU2_MagZ,IMU3_AccX,IMU3_AccY,IMU3_AccZ,IMU3_GyrX,IMU3_GyrY,IMU3_GyrZ,IMU3_MagX,IMU3_MagY,IMU3_MagZ
0.06103515499999997,0.5002441400000001,0.270507815,0.5001520834531628,0.4999341838084402,0.4999925390665136,-8.55,23.1,15.45,0.29199219,0.5163574200000001,0.9609375,0.5000097925188342,0.5000141890904864,0.49993451681726153,85.65,-4.2,77.7,-0.004150390000000016,0.5458984400000001,0.5329589849999999,0.5000364387223237,0.4999965359577671,0.5000270459711548,56.25,17.7,-9.0
0.05908202999999997,0.50341797,0.271240235,0.5001235720163015,0.49994144490172726,0.4999840788447639,-7.95,24.9,14.4,0.290283205,0.5146484400000001,0.9670410150000001,0.4999970688940542,0.5000147886983509,0.4999327182554673,85.65,-4.2,77.7,-0.005371095000000025,0.5495605450000001,0.5246582049999999,0.5000239816093206,0.49999114009785167,0.5000017986490606,56.7,17.55,-9.3
0.06298827999999998,0.49975586,0.2734375,0.5000696799141914,0.4999634280217879,0.49997408648573044,-7.05,26.25,15.0,0.291015625,0.51123047,0.96923828,0.5000091929982361,0.5000232488328341,0.49995370217453117,85.5,-4.05,76.5,-0.007568359999999984,0.5520019549999999,0.528808595,0.5000515605167625,0.4999580321618724,0.5000268461309554,55.5,17.7,-9.75
0.064453125,0.501953125,0.27392578,0.5000638177895662,0.49995603367261243,0.49999233922631425,-7.05,26.25,15.0,0.283203125,0.5212402349999999,0.9680175799999999,0.5000059953805135,0.49998960796056774,0.49996016381975433,85.65,-2.4,77.1,-0.008056640000000016,0.55078125,0.5334472650000001,0.5000415681577288,0.4999313192868054,0.49997082237096335,56.55,18.45,-10.5
0.07006835999999998,0.5080566400000001,0.28125,0.5000363721380128,0.4999725543484465,0.499975885134791,-9.0,22.35,15.75,0.28100586,0.50830078,0.94970703,0.49999726873425354,0.49996682539244336,0.49998747630268586,87.45,-3.15,77.7,0.0,0.55810547,0.5217285150000001,0.5000333077761786,0.49992265922485635,0.4999836791643652,56.55,18.45,-10.5
0.071289065,0.510498045,0.287353515,0.5000101921992328,0.4999807480584194,0.4999626952453014,-7.2,22.35,15.75,0.28881836,0.5114746099999999,0.9572753900000001,0.5000277787476413,0.49996436063847366,0.49997035601898715,87.45,-3.15,77.7,0.017822265000000014,0.55517578,0.5153808599999999,0.5000229824083238,0.4999467075057544,0.49996882388170333,54.9,16.8,-8.85
0.06494140499999998,0.51171875,0.28466797,0.4999938713635981,0.4999694234023014,0.4999942710439968,-7.2,24.15,14.7,0.295410155,0.520996095,0.9572753900000001,0.49999946706371295,0.4999739533171085,0.49997335370924395,85.65,-1.95,76.35,0.009521484999999984,0.556152345,0.5256347650000001,0.5000163874199458,0.49994097854975117,0.4999538353431531,56.55,16.65,-9.75
0.06616210999999998,0.501953125,0.290039065,0.4999417113262376,0.49999307200280063,0.49997275418864584,-7.05,25.5,15.3,0.30029297,0.5100097650000001,0.9665527349999999,0.49999020748116585,0.4999887419281929,0.5000083269658613,86.25,-4.05,77.55,0.005859375,0.548828125,0.5222167950000001,0.4999864770144226,0.49995430169512917,0.4999367151467209,56.1,18.6,-7.8
0.06396484500000002,0.498291015,0.283447265,0.4999455750488692,0.49998634375853424,0.5000089930707703,-7.05,25.5,15.3,0.30004883,0.50097656,0.96826172,0.49997215466804784,0.499975285614193,0.4999992672235135,88.05,-3.3,76.95,0.010009765000000016,0.5517578150000001,0.5166015650000001,0.4999567664490988,0.4999904739929426,0.4999353828496363,55.8,16.95,-9.75
0.05883789000000002,0.49658202999999995,0.28588867,0.4999455750488692,0.4999583652579601,0.5000047963393174,-8.55,26.1,15.45,0.310302735,0.49975586,0.97216797,0.49997335370924395,0.499988608759571,0.5000173867082089,86.85,-3.75,77.55,0.011962890000000016,0.537109375,0.5236816400000001,0.49993071976620734,0.4999895413762568,0.49994384307138595,55.35,16.8,-9.9
0.04956054499999999,0.494140625,0.28198242,0.49992485755431576,0.49999420445968584,0.49996036374722014,-7.65,24.3,15.0,0.302490235,0.5036621099999999,0.9636230450000001,0.49996209572470335,0.49997668449558846,0.5000255804181818,86.55,-1.8,78.0,0.014648439999999993,0.5437011700000001,0.520996095,0.49990713783728546,0.5000207840788644,0.4999091363265455,54.75,16.95,-8.7
0.04589843999999999,0.5017089849999999,0.278564455,0.4999213935993493,0.49997775036816267,0.49998727637522006,-7.05,25.05,15.0,0.30053711,0.502685545,0.9602050799999999,0.49996249540510207,0.499964627062984,0.5000470972735328,85.8,-3.75,78.0,0.0029296899999999935,0.552246095,0.5283203150000001,0.4998851546299584,0.5000284448525503,0.49992712255535254,54.75,16.95,-8.7
0.04199218999999999,0.501953125,0.275634765,0.49993684840260927,0.49994364314392015,0.49997581855048007,-8.25,24.9,15.45,0.290283205,0.49291992,0.96435547,0.4999632947658995,0.4999944042998852,0.5000539586864211,85.8,-3.75,78.0,-0.00024414000000001578,0.55078125,0.529296875,0.4998440528242057,0.5000135229855773,0.499941844582126,55.35,17.1,-9.3
0.04345702999999997,0.502929685,0.28833008,0.49989907729593447,0.4999608300119298,0.499975885134791,-8.25,24.9,15.45,0.296875,0.494140625,0.970703125,0.4999652932551594,0.49997408648573044,0.5000496286118133,87.45,-3.9,77.1,-0.0009765600000000063,0.5537109400000001,0.5222167950000001,0.49983892338880054,0.49999993341568905,0.4999144655148835,55.35,17.1,-9.3
0.04614258000000001,0.5017089849999999,0.28466797,0.49989801151062674,0.4999698230827001,0.4999726876043349,-8.55,24.9,13.65,0.294189455,0.49853515499999995,0.975585935,0.499953169238244,0.49997202141215946,0.5000825367948597,85.95,-2.7,78.15,0.008300779999999975,0.5466308599999999,0.517089845,0.49983092951902697,0.5000279785878405,0.4999289877887241,55.5,16.95,-10.05
0.04785156499999999,0.50317383,0.283203125,0.49992605668277834,0.49993291809566665,0.4999907404174529,-8.55,23.4,15.75,0.28564453,0.49365234500000005,0.97216797,0.4999606967560414,0.4999716884033381,0.5000798055291132,88.2,-3.9,78.9,-0.0026855449999999906,0.5451660150000001,0.52734375,0.49982333541691865,0.5000585550982727,0.49991573122765703,55.35,17.55,-8.55
0.04638672000000003,0.5036621099999999,0.287841795,0.4999145987707719,0.4999523032058692,0.4999631615972775,-7.65,25.05,15.6,0.29272461,0.48754883,0.9655761700000001,0.4999557672481021,0.4999636944462982,0.5000897978881468,86.7,-3.45,76.05,-0.002197265000000016,0.53955078,0.52001953,0.4998176730452264,0.500066882064134,0.4998991439675119,56.1,17.55,-9.6
0.04467773499999998,0.49951172000000005,0.282958985,0.49991373273839707,0.4999713553072504,0.499973287124933,-7.65,25.05,15.6,0.293945315,0.47900390499999995,0.95751953,0.4999708889552743,0.49998361258005425,0.5000987909589171,85.95,-3.15,77.7,0.0031738300000000094,0.533203125,0.5153808599999999,0.4997961561898755,0.5000883323351739,0.49990820370985967,57.15,17.85,-9.3
0.04565429499999999,0.49902344,0.278808595,0.49992532390629185,0.4999297871495215,0.49997428641319624,-9.3,24.6,16.2,0.291015625,0.479248045,0.971679685,0.4999583652579601,0.4999822136113923,0.5001069180845791,85.35,-3.45,77.4,-0.006103515000000016,0.525390625,0.5231933599999999,0.4997826332042981,0.5000764747427687,0.49992132692777186,57.15,17.85,-9.3
0.03222656499999999,0.48876952999999995,0.275390625,0.49992026114246413,0.4999347833290383,0.4999597641393556,-7.05,23.7,15.6,0.291503905,0.47338867,0.9670410150000001,0.4999502381322982,0.49998081472999684,0.5000965260451468,85.35,-3.45,77.4,-0.005859375,0.51953125,0.525878905,0.4997739732296156,0.5000731439564243,0.49992199311994734,55.5,18.45,-8.7
0.04052734500000003,0.48681640499999995,0.279296875,0.4998959464370558,0.4999656929355582,0.49994204442232537,-7.35,24.0,15.3,0.283691405,0.47290039,0.96533203,0.49994244410272404,0.499980015281933,0.5001043200747209,85.8,-3.3,78.0,-0.012451170000000048,0.50048828,0.5256347650000001,0.49978636367104134,0.5000804716340224,0.4998959464370558,55.5,18.45,-8.7
0.03417968999999999,0.494140625,0.282470705,0.49992046098266346,0.49993884689186924,0.4999852779732265,-7.95,25.35,16.8,0.306152345,0.494873045,0.9348144549999999,0.49996016381975433,0.5000257802583812,0.5001480198903318,86.25,-2.25,77.25,-0.0029296850000000065,0.49462890499999995,0.53564453,0.4998044831557368,0.5000345734889522,0.4999273223955519,56.7,18.45,-8.7
0.04711914000000002,0.48779297000000005,0.28564453,0.4999171967806299,0.49993784760360604,0.5000151217071722,-7.95,25.35,16.8,0.306640625,0.45288086,0.971191405,0.49993518300943696,0.49999114009785167,0.5001175099642106,85.05,-2.25,77.25,-0.003662109999999984,0.502685545,0.5314941400000001,0.4998250008100909,0.5000024647539697,0.49992359192880864,56.7,19.05,-10.95
0.04077148499999998,0.493164065,0.291015625,0.49990693799708613,0.499957832321673,0.49997828330444977,-6.9,24.6,15.45,0.301757815,0.46142578,0.9645996099999999,0.49989548008507967,0.5000260466828915,0.5001227725682377,85.05,-2.25,77.25,-0.011474609999999984,0.49975586,0.5324707049999999,0.49982986373371924,0.49995969755504466,0.4999437763998085,54.9,19.05,-9.3
0.04614258000000001,0.48583984500000005,0.29296875,0.49992099383168415,0.49994424275178473,0.5000235153446109,-6.9,25.35,15.75,0.29638672,0.466064455,0.98828125,0.49997508577399363,0.49999673579796644,0.5000948606519745,85.05,-2.25,77.25,-0.010009765000000016,0.498046875,0.5349121099999999,0.49982733230817217,0.49996729174441945,0.49993098619071763,55.2,17.7,-9.0
0.04394531499999999,0.49658202999999995,0.29663086,0.49990740426179575,0.49996715848853107,0.5000150551228613,-7.35,25.8,15.3,0.299072265,0.459472655,0.97753906,0.49995443495101755,0.4999640942139633,0.5001141125935551,86.7,-3.45,77.7,0.0017089849999999843,0.498291015,0.5305175799999999,0.49984351988791853,0.4999482396430382,0.49992106050326157,55.65,16.8,-8.25
0.03393554499999999,0.49511719,0.296875,0.49988815240748163,0.4999802151221323,0.49998361258005425,-7.35,25.8,15.3,0.302734375,0.47753906,0.96972656,0.4999743529975072,0.4999932051714226,0.50009152986563,86.25,-2.25,78.0,0.0024414049999999746,0.49609375,0.5234375,0.4998539785989282,0.49997162173176074,0.49994890583521373,54.9,16.8,-9.3
0.04150390499999997,0.497314455,0.295410155,0.4999076707735725,0.4999656929355582,0.49999260565082454,-7.05,26.25,16.05,0.302246095,0.46557617,0.962890625,0.4999644938943621,0.4999832794839665,0.500099723575603,86.25,-2.25,78.0,-0.0048828100000000065,0.49243164,0.5246582049999999,0.4998480498027257,0.499951237333295,0.4999413116458389,55.8,15.45,-9.0
0.04272460999999998,0.49975586,0.297851565,0.4998943476281945,0.49998867534388197,0.5000178529729187,-8.4,24.75,15.3,0.310546875,0.463867185,0.967773435,0.49997635148676717,0.4999900076409665,0.5001021217452616,85.5,-3.0,76.5,-0.0024414049999999746,0.491210935,0.51953125,0.4998759617189888,0.49996962324250077,0.4999816140907943,55.8,15.45,-9.0
0.04052734500000003,0.5021972650000001,0.29589844,0.4998907504173397,0.49998014853782136,0.5000204509827767,-6.9,26.1,16.8,0.305664065,0.462890625,0.959472655,0.4999837457486762,0.5000169203562328,0.5001179762289203,87.45,-3.45,78.45,-0.0009765600000000063,0.493408205,0.52392578,0.49990100920088354,0.49997275418864584,0.4999670919042201,55.35,16.8,-8.85
0.04321289000000002,0.506591795,0.29614258,0.4999056722843126,0.4999808813143078,0.5000293108849251,-6.9,26.7,16.2,0.306152345,0.45776367,0.9660644549999999,0.49998674352619943,0.5000023315853478,0.5000989242148055,86.85,-0.75,78.0,0.0017089849999999843,0.489990235,0.524902345,0.49991253369720096,0.4999828131319904,0.4999606967560414,56.4,16.05,-9.9
0.04394531499999999,0.518066405,0.297851565,0.4998953468291913,0.4999546347912169,0.5000345069046412,-6.9,26.7,16.2,0.30078125,0.455078125,0.9641113299999999,0.49997215466804784,0.5000165206758341,0.5000868001106236,86.85,-0.75,78.0,-0.0029296850000000065,0.47753906,0.5263671900000001,0.4999475068665518,0.5000205176543542,0.49996442722278467,56.7,16.8,-8.55
0.037109375,0.50708008,0.298583985,0.4998718315718469,0.49999447088419613,0.5000055291158039,-6.9,26.1,15.75,0.302734375,0.467041015,0.9714355450000001,0.4999889417683923,0.5000128567934019,0.5000820038585726,86.85,-4.05,77.25,0.0012207050000000094,0.494384765,0.518066405,0.4999295873093222,0.5000050627638277,0.49998760947130777,55.35,17.85,-7.8
0.03613281499999999,0.497802735,0.29345703,0.49989794483904937,0.4999964027891452,0.5000121906884929,-6.9,24.9,17.25,0.30053711,0.45800781,0.963867185,0.499975352198504,0.5000189854298038,0.5001114479121196,85.8,-2.25,78.3,0.00024414000000001578,0.486328125,0.5261230450000001,0.49995017154798727,0.5000125236973141,0.4999748192622168,55.65,18.3,-8.25
0.04296875,0.505859375,0.29272461,0.4999054724441132,0.4999928721626013,0.500022049791638,-7.05,25.8,15.6,0.30126953,0.467529295,0.9699707049999999,0.49999500382048323,0.500000599520598,0.5000558239197928,86.55,-3.75,78.3,0.0014648450000000254,0.49853515499999995,0.5256347650000001,0.49995756580989625,0.5000041968187193,0.4999898078007671,57.0,18.75,-8.7
0.03637695500000001,0.513671875,0.295410155,0.4999115344962042,0.4999993338078245,0.5000161209954355,-7.05,25.8,15.6,0.30029297,0.47729492,0.9609375,0.49999153977825034,0.5000063284766012,0.5000664823837353,87.45,-0.9,78.15,0.006347654999999975,0.49902344,0.510253905,0.49999187287433805,0.5000093928384355,0.4999914731939394,57.0,18.75,-8.7
0.0390625,0.51220703,0.29663086,0.4999303866701196,0.4999783498887607,0.5000071278373986,-7.95,24.9,15.75,0.29199219,0.46191406,0.9558105450000001,0.5000014655529729,0.5000079938697736,0.5000856676537384,86.4,-1.95,77.7,0.0,0.50317383,0.52734375,0.49997368680533166,0.5000257135868038,0.500007327677598,57.0,19.2,-9.0
0.04199218999999999,0.5163574200000001,0.28955078,0.4999200612149983,0.49996436063847366,0.500033507616378,-8.4,25.05,17.4,0.297851565,0.459228515,0.94970703,0.5000043966589187,0.5000191852700031,0.5000626186611037,86.4,-3.45,77.7,0.00854491999999999,0.49682617,0.5251464849999999,0.4999884755036826,0.500042634030303,0.49998927486448,57.0,19.2,-9.0
0.04272460999999998,0.5080566400000001,0.299560545,0.4998964127017655,0.5000165206758341,0.49999886754311484,-6.45,26.7,15.15,0.29321289,0.469970705,0.95263672,0.5000076607736857,0.5000516271010734,0.5000776071996539,86.4,-3.45,77.7,0.00390625,0.49633789,0.510498045,0.49997188824353755,0.5000433001352121,0.5000039969785199,55.5,18.0,-9.45
0.03686523499999998,0.5078125,0.29736328,0.4999229923209441,0.4999856776536252,0.5000310428624083,-7.2,25.35,16.8,0.291015625,0.466796875,0.96923828,0.5000225160563477,0.5000407687969315,0.5000704126906779,87.45,-3.9,77.7,-0.0026855449999999906,0.50830078,0.510253905,0.49996296175707816,0.5000512940049857,0.5000148552826619,54.45,18.45,-9.45
0.03979491999999999,0.5119628900000001,0.290527345,0.49994757353812924,0.5000088599021484,0.5000048629236283,-7.2,25.35,16.8,0.29248047,0.462402345,0.9675292950000001,0.5000428338705024,0.5000319754790941,0.500062751916992,86.7,-2.4,77.1,0.010009765000000016,0.50463867,0.5153808599999999,0.4999563001843892,0.5000590214502488,0.500013389729689,56.55,17.4,-8.4
0.03955077999999997,0.5166015650000001,0.286865235,0.49990500609213706,0.5000104586237432,0.5000381707870735,-7.95,26.4,16.8,0.287597655,0.467285155,0.9655761700000001,0.5000315092143844,0.500034840000729,0.5000675482563095,86.25,-3.0,77.55,-0.0024414049999999746,0.5036621099999999,0.509765625,0.49995010487640984,0.5000615528757959,0.5000273789799761,56.4,16.8,-9.6
0.041015625,0.515625,0.290771485,0.49996229556490274,0.49999247239493616,0.5000424341901037,-5.7,26.4,17.55,0.28100586,0.47338867,0.9606933599999999,0.5000295107251244,0.5000608866836205,0.5000674150004211,87.45,-1.95,77.4,0.0026855449999999906,0.50854492,0.515625,0.49997961560153426,0.5000762749025695,0.5000285781084386,56.4,16.8,-9.6
0.04565429499999999,0.5153808599999999,0.27661133,0.49995503447161566,0.49999800151074,0.5000498284520127,-5.7,26.4,16.2,0.279296875,0.482421875,0.95654297,0.500022049791638,0.5000442994234754,0.5000704793622552,87.3,-0.3,77.55,-0.009765625,0.509033205,0.5224609400000001,0.49998507813302717,0.5000993238952042,0.5000011990411961,55.65,18.6,-7.5
0.03588866999999999,0.5244140650000001,0.2890625,0.4999429104547002,0.500016054323858,0.5000295773094354,-7.2,25.65,16.5,0.283935545,0.493896485,0.9562988299999999,0.5000231822485232,0.5000431668793237,0.5000886654312616,86.55,-1.05,77.25,-0.01098633000000001,0.5192871099999999,0.5153808599999999,0.49999600302148,0.5000844020282313,0.5000203177268884,55.65,18.6,-7.5
0.04321289000000002,0.5256347650000001,0.28051758,0.49992772207595054,0.5000631515973908,0.5000422342626379,-7.2,25.65,16.5,0.278320315,0.48681640499999995,0.955566405,0.5000233155044115,0.5000510275804753,0.5000712121387417,86.55,-1.05,77.25,-0.00854491999999999,0.51098633,0.5212402349999999,0.49997401990141943,0.5000704126906779,0.500037438010587,54.45,16.95,-9.75
0.05175781499999999,0.5339355450000001,0.283691405,0.4999405122850415,0.5000227825681245,0.5000610199395088,-7.95,27.45,16.2,0.28540039,0.489990235,0.9592285150000001,0.5000161209954355,0.5000605535875327,0.5000636179493669,86.85,-1.5,77.25,-0.01269531500000005,0.5124511700000001,0.5202636700000001,0.499968624041504,0.5000523598775598,0.500006661572689,56.4,17.85,-9.9
0.05175781499999999,0.5334472650000001,0.28833008,0.49992652294748796,0.5000355727772153,0.5000337075438438,-6.3,25.8,15.6,0.28442383,0.475585935,0.970703125,0.5000283115966618,0.5000506944843875,0.5000460979852696,85.95,-1.95,77.4,-0.005371095000000025,0.50732422,0.5153808599999999,0.49997441958181815,0.5000553575678166,0.5000368384027225,56.4,17.85,-9.9
0.04956054499999999,0.537109375,0.28149414,0.4999316523828931,0.5000311095339858,0.5000167205160335,-7.35,27.75,15.6,0.28076172,0.475585935,0.97216797,0.5000291776290366,0.5000529593981579,0.500048229730418,87.6,-1.05,77.25,-0.007324220000000025,0.50708008,0.510498045,0.4999744862533956,0.5000693468181037,0.5000243812897193,56.1,18.3,-11.4
0.04418945500000001,0.5334472650000001,0.28442383,0.49993977950855506,0.5000143889306857,0.5000409019655534,-8.55,27.45,15.75,0.28149414,0.4765625,0.9499511700000001,0.5000202511425773,0.5000632848532791,0.5000535589187559,87.6,-1.05,77.25,0.0007324199999999905,0.5078125,0.5202636700000001,0.499993271843,0.5000367718184114,0.500024780970118,55.65,19.05,-9.6
0.046875,0.52685547,0.282958985,0.4999349831692376,0.5000481630588405,0.500028711364327,-8.55,27.45,15.75,0.2734375,0.485595705,0.958984375,0.5000170536121212,0.5000480298902186,0.500042634030303,86.55,-2.55,77.25,-0.013916015000000016,0.505859375,0.513671875,0.4999962029489458,0.500040036020445,0.5000295773094354,54.3,17.55,-8.25
0.04077148499999998,0.5412597650000001,0.278808595,0.49996322818158856,0.5000063284766012,0.5000716784034513,-6.0,26.25,16.65,0.28491211,0.49291992,0.9699707049999999,0.500034040552665,0.5000393698282696,0.5000367052341005,88.2,-0.9,76.35,-0.0014648450000000254,0.5124511700000001,0.517578125,0.49999247239493616,0.5000317756388947,0.5000414349018405,55.5,17.7,-9.45
0.05151366999999999,0.537597655,0.2890625,0.49998008195351035,0.5000198514621786,0.5000394364125805,-9.15,27.0,16.35,0.29272461,0.494384765,0.956054685,0.500015388218949,0.5000596875551578,0.5000295773094354,88.2,-0.9,76.35,-0.01171875,0.5163574200000001,0.521972655,0.4999906071615645,0.5000424341901037,0.5000193185258915,55.5,17.7,-9.45
0.04272460999999998,0.5427246099999999,0.28100586,0.49992665620337634,0.5000411018057528,0.5000163208356349,-8.55,27.9,15.75,0.28515625,0.49658202999999995,0.9660644549999999,0.500035506105638,0.5000632181817017,0.500042634030303,86.55,0.3,75.75,-0.0078125,0.5234375,0.528808595,0.4999895413762568,0.500042167678327,0.5000033973706555,55.2,16.65,-8.7
0.04321289000000002,0.5427246099999999,0.286865235,0.49992725572397445,0.5000371714988102,0.5000311095339858,-8.55,27.9,15.75,0.291748045,0.498291015,0.96826172,0.5000215834396619,0.5000720114995392,0.5000412350616411,87.45,-1.65,77.7,-0.0048828100000000065,0.5270996099999999,0.53173828,0.4999760849749904,0.5000337075438438,0.5000230489926347,54.0,18.0,-8.7
0.05200195500000001,0.545410155,0.29321289,0.49993651530652145,0.5000119241767161,0.5000325084153812,-7.95,26.4,17.55,0.299072265,0.49560547000000005,0.9665527349999999,0.5000405022851547,0.5000379709468741,0.500058155417874,86.85,-0.3,76.5,-0.013183594999999968,0.521972655,0.5285644549999999,0.49999153977825034,0.5000323085751819,0.5000125236973141,57.0,18.0,-8.7
0.05078125,0.536621095,0.295654295,0.49992865469263637,0.5000218499514386,0.5000191852700031,-8.25,28.65,16.2,0.295166015,0.497070315,0.9743652349999999,0.5000347733291515,0.5000472304421547,0.5000410352214418,86.85,-0.3,76.5,-0.004394529999999975,0.5197753900000001,0.51953125,0.49999606969305743,0.5000251807377831,0.5000186523337161,54.45,19.2,-9.75
0.05932616999999999,0.529785155,0.299316405,0.49993411713686275,0.5000283115966618,0.5000331079359792,-7.35,26.55,16.35,0.302001955,0.49633789,0.967285155,0.5000324418310702,0.5000425673587257,0.5000628851728804,87.6,-1.5,76.2,-0.00390625,0.5139160150000001,0.533691405,0.5000041301471418,0.5000550244717289,0.5000399027645567,55.8,18.0,-9.45
0.05395508000000001,0.53955078,0.30444336,0.49996289508550074,0.5000050627638277,0.5000438330714992,-7.05,26.55,15.3,0.27661133,0.49902344,0.94140625,0.5000252473220941,0.4998313291994257,0.5000628851728804,87.3,-0.3,76.2,-0.014892579999999952,0.5168457049999999,0.5388183599999999,0.499991339938051,0.5000205176543542,0.5000109915600303,55.8,18.45,-9.75
0.05346679499999999,0.5295410150000001,0.306152345,0.49994111180563955,0.5000588881943605,0.49998201377119295,-7.05,26.55,15.3,0.30444336,0.49511719,0.98388672,0.5000532259099346,0.5000272458113542,0.5000573560570766,87.3,-1.05,76.5,0.00390625,0.525390625,0.533203125,0.5000085268060606,0.5000157878993476,0.49999800151074,55.8,18.45,-9.75
0.06005859500000003,0.5341796900000001,0.302978515,0.49993138587111635,0.5000257802583812,0.5000338407124657,-7.35,27.75,16.35,0.283203125,0.509765625,0.9567871099999999,0.5000360390419251,0.5000185191650941,0.5000476967941307,87.3,-1.05,75.15,-0.005371095000000025,0.5231933599999999,0.533203125,0.4999937381077097,0.5000508943245869,0.4999984678627162,55.35,19.8,-9.6
0.05761718999999999,0.541503905,0.302978515,0.4999694900738788,0.50000872664626,0.5000378376909856,-8.55,28.2,15.45,0.29345703,0.5178222650000001,0.95703125,0.5000496286118133,0.49995216994998076,0.5000820704428836,86.4,-0.9,75.6,0.0,0.524902345,0.5490722650000001,0.4999907404174529,0.5000305099261212,0.5000015321372838,55.35,19.8,-9.6
0.0625,0.5412597650000001,0.302001955,0.4999357159457241,0.5000291110447257,0.4999986677029155,-8.25,28.95,17.55,0.31298828,0.509765625,0.9772949200000001,0.5000425007744147,0.4999892082801691,0.5000480298902186,87.6,-0.75,78.0,-0.00024414000000001578,0.5305175799999999,0.533203125,0.49998307964376715,0.4999870099507097,0.500000599520598,56.1,18.6,-8.85
0.05688476500000002,0.5363769549999999,0.30078125,0.4999425773586124,0.5000519601971611,0.5000113912404289,-8.25,28.95,17.55,0.298095705,0.514160155,0.9748535150000001,0.5000239150250096,0.500022116375949,0.5000754088701945,86.85,0.0,76.5,-0.003662109999999984,0.5270996099999999,0.5412597650000001,0.5000007327764865,0.4999593644589569,0.5000001332558884,57.0,17.7,-10.05
0.06274414000000002,0.5363769549999999,0.29614258,0.49994577488906855,0.5000192519415806,0.5000435666469889,-7.35,28.05,14.55,0.29711914,0.51904297,0.9724121099999999,0.5000003996803987,0.4999822802829697,0.5000906638332552,86.85,0.0,76.5,-0.013671875,0.525878905,0.541503905,0.49998867534388197,0.49994977178032207,0.4999980681823174,56.1,18.3,-8.25
0.05712890499999997,0.54296875,0.29711914,0.49998041504959817,0.5000244479612966,0.5000317756388947,-8.7,27.75,17.4,0.302246095,0.50708008,0.9782714849999999,0.5000177197170302,0.5000043299873413,0.5000666156396236,86.85,0.0,77.55,-0.011474609999999984,0.5244140650000001,0.5439453150000001,0.4999717549876492,0.4999295873093222,0.5000104586237432,56.1,19.05,-9.3
0.06225585999999998,0.5368652349999999,0.293945315,0.4999408452938628,0.500050827740276,0.5000283782682392,-7.05,27.0,15.6,0.294189455,0.5095214849999999,0.9748535150000001,0.5000079272854626,0.5000091263266587,0.5000876661429985,87.15,-1.65,76.05,-0.007568359999999984,0.5305175799999999,0.54296875,0.4999742197416188,0.49992772207595054,0.5000139892502871,56.1,19.05,-9.3
0.06201172000000003,0.5383300799999999,0.28881836,0.49995050455680856,0.4999941377881084,0.5000433668067895,-9.6,28.65,15.45,0.287109375,0.50390625,0.97607422,0.5000118575924052,0.50000872664626,0.5000726110201372,88.2,-0.45,77.7,-0.004394529999999975,0.5283203150000001,0.5383300799999999,0.4999626952453014,0.49991013552754227,0.4999897412164561,56.55,20.25,-8.7
0.06103515499999997,0.5432128900000001,0.29663086,0.4999617626286156,0.5000262465230909,0.5000476967941307,-9.6,28.65,15.45,0.29321289,0.501220705,0.9733886700000001,0.500006728157,0.4999830130594562,0.5000937281950893,88.2,-0.45,77.7,-0.0009765600000000063,0.52734375,0.541503905,0.49995410185492983,0.4999261232670893,0.49997262102002393,56.55,20.25,-8.7
0.06616210999999998,0.5419921900000001,0.295410155,0.4999185290777145,0.5000402358606444,0.5000152549630607,-7.65,28.8,16.05,0.29760742,0.50390625,0.9724121099999999,0.5000201845582664,0.4999901408968549,0.5000824701232823,87.3,1.8,76.95,-0.002197265000000016,0.5310058599999999,0.532714845,0.4999590980344466,0.49990620522059964,0.49997275418864584,56.25,19.5,-9.45
0.067382815,0.5500488299999999,0.29370117,0.499962561989413,0.5000071278373986,0.5000522932932489,-7.35,29.25,16.35,0.294189455,0.5126953150000001,0.98095703,0.5000167205160335,0.49997575187890264,0.5000972588216333,87.15,0.45,77.7,-0.007080080000000009,0.5314941400000001,0.5344238299999999,0.499932518415268,0.4999339172966634,0.4999871432065981,54.9,17.85,-10.35
0.06689452999999998,0.5556640650000001,0.294433595,0.4999504379724976,0.5000256470024929,0.5000647504062521,-8.4,28.5,15.6,0.30004883,0.50830078,0.97753906,0.5000095926786348,0.49997601839067946,0.5000978583422313,87.15,0.45,77.7,0.0024414049999999746,0.5224609400000001,0.5390625,0.4999135995697751,0.4999076707735725,0.49999960031960133,54.9,17.85,-10.35
0.063476565,0.5537109400000001,0.28564453,0.49991613090805576,0.50001945178178,0.5000142557620638,-9.9,26.55,15.6,0.299316405,0.513671875,0.9733886700000001,0.499983945676142,0.4999707556993859,0.5000776071996539,86.55,1.5,76.5,-0.004394529999999975,0.521484375,0.5305175799999999,0.4999250573945151,0.4998788928249346,0.4999875428869968,55.8,19.2,-10.5
0.05908202999999997,0.5451660150000001,0.28198242,0.4999521033656698,0.4999849448771388,0.5000429004548135,-6.3,28.05,15.6,0.296875,0.50317383,0.9641113299999999,0.5000048629236283,0.49998361258005425,0.5000830030595694,85.8,0.75,76.5,-0.004150390000000016,0.5263671900000001,0.5412597650000001,0.4999004096802855,0.49986890046590104,0.49998994105665556,57.15,17.85,-8.85
0.05712890499999997,0.55419922,0.27246094,0.4999385803800924,0.49997961560153426,0.5000030643618342,-8.4,29.85,17.1,0.287109375,0.5021972650000001,0.9611816400000001,0.5000038637226316,0.499967225072842,0.5000873330469107,85.65,-0.45,76.35,-0.0014648450000000254,0.52294922,0.5358886700000001,0.49991906201400155,0.4998483828115469,0.49999473739597294,56.1,19.05,-8.55
0.04833984500000003,0.5412597650000001,0.26855469,0.49991519829137,0.5000057955403142,0.5000061952207129,-8.4,27.75,16.65,0.28564453,0.49951172000000005,0.958496095,0.5000064617324896,0.49996142953252787,0.5000676815121978,85.65,-0.45,76.35,-0.01660156500000005,0.515625,0.53076172,0.4998878193113939,0.4998485827390128,0.5000145221865742,56.25,19.5,-7.95
0.05249023499999998,0.540527345,0.27709961,0.4999446424321834,0.49995197010978143,0.5000249142260064,-8.25,27.9,16.5,0.2890625,0.5002441400000001,0.970703125,0.4999980681823174,0.4999862105899123,0.500067481584732,85.5,0.0,78.3,-0.007324220000000025,0.5153808599999999,0.5388183599999999,0.4998935482673971,0.4998190720138883,0.5000087932305709,56.25,19.5,-7.95
0.04833984500000003,0.5529785150000001,0.279785155,0.49993764776340666,0.4999574992255853,0.5000049295952058,-8.25,27.9,16.5,0.29272461,0.49291992,0.982421875,0.49999993341568905,0.49995157042938276,0.5000836692517449,87.3,0.3,77.55,-0.0034179700000000254,0.50854492,0.5314941400000001,0.4998946807242823,0.4998533124067527,0.4999878759830846,56.1,19.35,-8.85
0.05346679499999999,0.5515136700000001,0.279052735,0.4999289877887241,0.4999593644589569,0.49999213938611486,-8.1,28.8,16.5,0.28979492,0.490478515,0.975097655,0.4999904739929426,0.4999502381322982,0.5000721447554275,87.3,0.3,77.55,0.001953125,0.50708008,0.5314941400000001,0.4998879525672823,0.4998591079470669,0.4999887419281929,56.1,19.35,-8.85
0.04785156499999999,0.553222655,0.282470705,0.499908403550059,0.4999524364617576,0.5000028644343684,-8.25,28.8,15.3,0.29614258,0.48583984500000005,0.963867185,0.49998641043011166,0.49995110416467303,0.5000925957382042,86.55,1.5,76.5,0.005126955000000009,0.494384765,0.5283203150000001,0.4999012090410829,0.49988488820544813,0.500002664594169,55.2,19.5,-7.35
0.05419922000000003,0.5573730450000001,0.28564453,0.49995669986478786,0.4999221929601467,0.4999900076409665,-8.25,29.7,16.8,0.293945315,0.478759765,0.9567871099999999,0.5000028644343684,0.49995157042938276,0.5000347733291515,85.95,0.45,77.7,0.009521484999999984,0.490966795,0.5207519549999999,0.499895080404681,0.49986823427372556,0.5000378376909856,56.55,18.75,-6.3
0.04809570500000001,0.552246095,0.287841795,0.4999340505525518,0.49994390965569696,0.5000083269658613,-8.25,28.65,15.75,0.30151367,0.47973633,0.94970703,0.5000265130348677,0.499948506154815,0.5000646837346746,86.85,2.25,78.3,0.004394529999999975,0.490234375,0.5222167950000001,0.4999169303561196,0.49993311793586603,0.5000087932305709,55.8,20.25,-6.3
0.05004883000000001,0.556640625,0.29199219,0.4999363154663221,0.4999327182554673,0.5000030643618342,-7.5,28.95,16.5,0.299316405,0.478515625,0.946777345,0.5000281784280399,0.49997242109255813,0.5000405688694657,86.85,2.25,78.3,0.014160154999999975,0.48901367,0.5192871099999999,0.4999236585131196,0.49994697393026466,0.500053492334445,57.0,19.5,-7.35
0.05590820500000001,0.55517578,0.290527345,0.4999475068665518,0.4999252572347144,0.5000168537719218,-7.5,28.95,16.5,0.290039065,0.482421875,0.9450683599999999,0.500006062052091,0.5000063284766012,0.5000379709468741,86.55,-0.3,78.6,0.018066404999999976,0.49194336,0.51171875,0.49994590814495693,0.49997628481518974,0.5000263131946683,57.0,19.5,-7.35
0.04248047000000003,0.55078125,0.286621095,0.49993864705166985,0.49994350997529824,0.4999746194220175,-7.05,28.5,16.05,0.29638672,0.47705077999999995,0.946777345,0.500015987739547,0.4999860773340239,0.5000311095339858,86.4,0.45,77.4,0.02026366999999999,0.49169922000000005,0.50732422,0.49998674352619943,0.5000099923590335,0.5000359724576141,55.5,19.2,-7.95
0.044921875,0.5517578150000001,0.287353515,0.49996336143747694,0.4999396462526666,0.49999840119113875,-7.35,28.05,16.35,0.287841795,0.467285155,0.946777345,0.5000273789799761,0.5000043299873413,0.499980015281933,86.7,1.2,77.1,0.020019529999999976,0.49609375,0.50073242,0.4999848782928278,0.5000660827033365,0.5000215834396619,55.5,19.2,-7.95
0.04272460999999998,0.5583496099999999,0.28466797,0.4999774172720749,0.4999208606630622,0.5000341738085534,-8.1,28.5,16.65,0.27807617,0.470703125,0.9421386700000001,0.5000456983048708,0.5000123238571148,0.49996849078561556,86.7,0.15,77.7,0.013427734999999984,0.49755859500000005,0.5,0.5000126569532025,0.5001088499022616,0.5000233155044115,56.25,19.2,-6.3
0.03833008000000001,0.5539550799999999,0.283203125,0.4999475068665518,0.4999434433037208,0.4999736202210207,-8.1,28.5,16.65,0.279785155,0.483154295,0.9411621099999999,0.500062818501303,0.5000077940295742,0.4999832794839665,86.25,0.75,76.95,0.011962890000000016,0.501220705,0.49975586,0.5000364387223237,0.5001291677164164,0.5000318422232056,56.1,19.8,-7.5
0.03564452999999997,0.556152345,0.283935545,0.4999677580091291,0.49994057886935245,0.4999658261914466,-8.25,29.4,15.75,0.283447265,0.48583984500000005,0.946777345,0.5000398361802457,0.500040036020445,0.49997934917702397,85.95,0.45,76.05,0.009277345000000025,0.510253905,0.50488281,0.5000280451721515,0.5001762649026826,0.5000366385625231,57.9,20.85,-7.5
0.03344726500000002,0.55029297,0.278320315,0.49997928250544654,0.4999179295571164,0.4999650934149601,-6.6,28.8,16.05,0.28100586,0.482421875,0.9577636700000001,0.5000403024449553,0.5000397029243573,0.4999608300119298,85.95,0.45,76.05,0.005859375,0.5075683599999999,0.5173339849999999,0.5000329080957798,0.5001912534412329,0.5000409686371309,56.1,18.6,-7.8
0.03662109500000003,0.5451660150000001,0.28588867,0.4999725543484465,0.49995756580989625,0.49997455283770653,-6.6,29.55,17.1,0.27636719,0.48852539,0.9509277349999999,0.5000450987842727,0.5000436998156108,0.49995669986478786,87.45,0.45,77.1,0.008056640000000016,0.52294922,0.5192871099999999,0.500017919644496,0.5002288912920193,0.5000239816093206,56.1,19.8,-7.5
0.04638672000000003,0.5510253900000001,0.286376955,0.4999891416958581,0.49997368680533166,0.4999818139309936,-8.7,28.8,18.15,0.28149414,0.49951172000000005,0.96191406,0.5000775406153429,0.5000466309215567,0.49995430169512917,86.85,0.3,78.0,-0.006347654999999975,0.5234375,0.518066405,0.4999914731939394,0.5002308231097018,0.5000269792995773,56.1,20.55,-7.8
0.04199218999999999,0.5451660150000001,0.29321289,0.5000145221865742,0.4999433101350989,0.5000008660323748,-8.7,28.8,18.15,0.267333985,0.506591795,0.96972656,0.5000680811925965,0.5000310428624083,0.49994857273912596,85.8,1.05,77.25,-0.006591794999999991,0.5263671900000001,0.509277345,0.500000599520598,0.5002522067091644,0.5000297105653237,56.1,20.55,-7.8
0.04980468999999999,0.5437011700000001,0.28442383,0.4999956033410813,0.49998101457019617,0.49997575187890264,-6.9,28.65,16.2,0.310058595,0.509033205,0.986816405,0.5000638177895662,0.5002581355053669,0.49996715848853107,85.8,1.05,77.25,-0.010253904999999975,0.52783203,0.514160155,0.49998534455753746,0.5002320888224754,0.5000332411918677,55.8,20.25,-7.95
0.04272460999999998,0.5412597650000001,0.28149414,0.5000173867082089,0.5000137228257767,0.4999982680225168,-8.25,29.7,16.8,0.21435547000000002,0.5078125,0.9255371099999999,0.5000367052341005,0.5000937281950893,0.4999580321618724,85.8,1.05,77.25,-0.015625,0.5261230450000001,0.51220703,0.4999835459084768,0.5002244280487896,0.5000337075438438,55.8,20.25,-7.95
0.03442383000000001,0.546875,0.28198242,0.5000497618677018,0.49999200613022643,0.5000128567934019,-7.65,28.5,17.1,0.27246094,0.49853515499999995,0.978515625,0.5000355727772153,0.5000594211306475,0.4999822802829697,85.65,0.45,76.65,-0.013427734999999984,0.529785155,0.50439453,0.49997242109255813,0.5001908537608342,0.5000268461309554,55.8,20.25,-7.95
0.03662109500000003,0.5412597650000001,0.27416992,0.500009326166858,0.4999925390665136,0.499986610270311,-7.65,28.5,17.1,0.282226565,0.50488281,0.9807128900000001,0.5000143889306857,0.5000678813523972,0.500000599520598,86.85,0.75,76.95,-0.020263670000000046,0.53857422,0.5178222650000001,0.49995610034418986,0.5001612764513989,0.5000413683175295,54.3,19.35,-8.85
0.03784179499999999,0.54638672,0.280029295,0.5000277120760638,0.5000099256874561,0.4999849448771388,-7.65,30.3,17.7,0.27661133,0.5224609400000001,0.963378905,0.5000512940049857,0.500031309374185,0.4999634280217879,86.85,0.75,76.95,-0.01464844000000005,0.5322265650000001,0.5148925799999999,0.49995336907844334,0.5001837258361691,0.500036105626236,54.0,19.95,-9.0
0.03588866999999999,0.5412597650000001,0.28564453,0.5000483628990399,0.4999816140907943,0.4999902741527433,-7.95,29.7,17.55,0.276123045,0.5224609400000001,0.955078125,0.5000323085751819,0.5000273789799761,0.49998341273985486,85.95,0.15,77.1,-0.01171875,0.53857422,0.5222167950000001,0.4999554341520143,0.5001530826541595,0.5000203177268884,54.45,20.7,-9.0
0.04345702999999997,0.5446777349999999,0.291748045,0.5000299769898341,0.5000271791397767,0.4999704892748756,-7.35,27.3,17.4,0.276123045,0.521972655,0.9543457049999999,0.5000407021253541,0.5000242481210974,0.5000039969785199,86.55,-0.3,76.2,-0.004150390000000016,0.537109375,0.5227050799999999,0.4999692902336795,0.5001548147189092,0.5000231155769457,55.35,20.55,-9.6
0.05029297000000003,0.545410155,0.295410155,0.5000158544836586,0.5000144556022632,0.49999713556563163,-8.55,28.2,15.75,0.280029295,0.5185546900000001,0.9538574200000001,0.500002131657882,0.5000205842386651,0.5000188522611819,85.05,-0.3,77.25,-0.005615234999999984,0.5305175799999999,0.525390625,0.49995769906578463,0.5000801386252011,0.5000243147054083,55.35,20.55,-9.6
0.04663085999999998,0.541015625,0.303466795,0.5000519601971611,0.49998294638787877,0.49999680246954387,-8.55,28.2,15.75,0.28833008,0.5231933599999999,0.9597167950000001,0.5000125236973141,0.5000327082555805,0.5000124571130031,85.05,-0.3,77.25,-0.005371095000000025,0.5256347650000001,0.5192871099999999,0.4999949372361723,0.5000653499268501,0.5000099256874561,54.6,20.1,-9.6
0.05517577999999997,0.5439453150000001,0.309814455,0.5000170536121212,0.5000480298902186,0.49996695864833174,-7.65,28.05,16.35,0.30126953,0.53076172,0.9597167950000001,0.5000071945089761,0.500017919644496,0.5000019318176826,86.55,0.3,77.55,0.00048827999999997475,0.5222167950000001,0.5261230450000001,0.4999826799633685,0.5000646171503637,0.500013323145378,54.6,20.1,-9.6
0.05004883000000001,0.5446777349999999,0.309570315,0.5000030643618342,0.5000219165357496,0.4999766179112775,-6.45,28.95,16.5,0.298583985,0.5270996099999999,0.9602050799999999,0.5000098591031451,0.5000164540915232,0.49999946706371295,86.85,0.0,75.75,0.001953125,0.5168457049999999,0.5231933599999999,0.49999487056459485,0.5000885987596843,0.5000245145456076,54.0,19.95,-10.05
0.05908202999999997,0.5466308599999999,0.306396485,0.5000213835994626,0.5000216501112393,0.5000198514621786,-7.05,28.8,17.1,0.30883789,0.5263671900000001,0.9665527349999999,0.4999952036606826,0.50001072513552,0.49999313858711164,88.05,-0.3,76.5,0.004638669999999991,0.509033205,0.5227050799999999,0.5000011324568852,0.500068347617107,0.5000238483534322,55.5,19.95,-10.5
0.05639648499999998,0.5500488299999999,0.310302735,0.4999822136113923,0.5000263131946683,0.4999840788447639,-7.05,28.8,17.1,0.298828125,0.50854492,0.9519042950000001,0.500012790209091,0.49998674352619943,0.500000599520598,86.4,0.45,77.1,-0.004150390000000016,0.5139160150000001,0.5241699200000001,0.4999861439183349,0.5000890651116604,0.500019984718067,54.0,19.2,-9.45
0.052734375,0.5546875,0.306640625,0.49997648465538913,0.5000462978254688,0.49996749158461884,-7.05,30.3,16.05,0.30029297,0.5139160150000001,0.953125,0.5000089930707703,0.5000033973706555,0.5000276454917528,85.95,1.2,77.1,0.0078125,0.508789065,0.5217285150000001,0.499984678365362,0.500067481584732,0.5000311095339858,55.2,21.45,-9.75
0.05224609500000003,0.5595703150000001,0.305664065,0.49998707653502067,0.500024714385807,0.5000075941893748,-7.2,27.45,15.15,0.30053711,0.50708008,0.9587402349999999,0.4999822136113923,0.5000029311059457,0.5000111914002296,87.45,1.65,77.4,0.0024414049999999746,0.51123047,0.5295410150000001,0.50000472966774,0.5000393032439586,0.5000021983294594,54.9,20.1,-10.65
0.05102539000000002,0.5500488299999999,0.306152345,0.4999990007990032,0.4999977350862297,0.500010791719831,-7.95,28.95,16.2,0.302001955,0.5080566400000001,0.9641113299999999,0.4999887419281929,0.5000211171749521,0.49999054057725356,87.45,1.65,77.4,0.008789064999999993,0.5119628900000001,0.5187988299999999,0.5000230489926347,0.500042767198925,0.5000131233051787,55.5,19.95,-10.05
0.05493164000000002,0.5446777349999999,0.30371094,0.49997308728473366,0.5000324418310702,0.49996955665818976,-7.05,29.25,17.4,0.30102539,0.50341797,0.966796875,0.49999786834211807,0.5000055291158039,0.5000069946687767,88.5,-0.45,77.7,0.01293945500000001,0.51123047,0.5222167950000001,0.5000251807377831,0.5000325084153812,0.5000183859092058,55.5,19.95,-10.05
0.05615234500000003,0.5478515650000001,0.298339845,0.49998234686728066,0.49999673579796644,0.5000123905286922,-7.05,29.25,17.4,0.317382815,0.50073242,0.9685058599999999,0.4999934716831994,0.5000462978254688,0.49998720979090905,86.7,0.15,77.4,0.0026855449999999906,0.515625,0.5283203150000001,0.5000453652087831,0.5000321753192934,0.5000205842386651,54.75,20.25,-9.45
0.046875,0.5439453150000001,0.29638672,0.4999857442379362,0.4999902741527433,0.5000140559218645,-7.95,27.9,16.2,0.27001953,0.49365234500000005,0.9455566400000001,0.5000111914002296,0.5000803384654003,0.4999595642991563,85.95,0.45,76.65,0.004394529999999975,0.51513672,0.52001953,0.500062818501303,0.5000326416712696,0.5000048629236283,54.0,18.45,-10.05
0.05249023499999998,0.5505371099999999,0.30419922,0.4999890750242807,0.4999988009588039,0.49998641043011166,-7.95,28.2,16.5,0.298828125,0.502685545,0.959960935,0.5000195849504019,0.5000697465857689,0.4999805482182201,85.65,0.45,76.65,0.0048828149999999935,0.5163574200000001,0.5192871099999999,0.5000729441162249,0.500044099583276,0.5000305765976986,53.25,19.05,-10.95
0.05419922000000003,0.5568847650000001,0.30419922,0.5000101921992328,0.49999606969305743,0.4999976018303413,-7.65,28.05,16.65,0.29345703,0.50341797,0.9685058599999999,0.5000257135868038,0.5000422342626379,0.4999626952453014,86.4,0.9,76.65,0.001953125,0.5187988299999999,0.5212402349999999,0.5000685474573062,0.5000373047546985,0.5000344402330638,54.0,19.2,-10.8
0.04980468999999999,0.5554199200000001,0.298583985,0.5000129900492903,0.49998547781342584,0.500010791719831,-7.65,28.05,16.65,0.28588867,0.498779295,0.974609375,0.5000231822485232,0.500042634030303,0.49995250304606853,87.15,-0.15,75.6,-0.004150390000000016,0.51611328,0.50854492,0.5000804050497114,0.5000369716586108,0.5000203177268884,54.6,19.8,-9.6
0.04638672000000003,0.5666503900000001,0.291748045,0.4999842121006523,0.5000129234649794,0.4999895413762568,-7.5,29.4,16.65,0.286376955,0.501953125,0.97363281,0.5000123238571148,0.5000183859092058,0.4999636278619872,87.15,-0.15,75.6,-0.0024414049999999746,0.5158691400000001,0.5178222650000001,0.5001067182443797,0.500017919644496,0.5000249808975838,54.6,20.55,-9.9
0.05102539000000002,0.564941405,0.29248047,0.5000055957001148,0.4999976018303413,0.4999938713635981,-7.5,29.4,16.8,0.275634765,0.50048828,0.97705078,0.50000472966774,0.5000333744477561,0.4999607634276188,87.6,-0.3,77.25,-0.006591794999999991,0.5183105450000001,0.502929685,0.5001236386006125,0.500017519876831,0.5000331079359792,54.6,20.55,-9.9
0.04614258000000001,0.5651855450000001,0.28857422,0.4999925390665136,0.4999731538690446,0.4999990673833142,-8.4,29.25,16.05,0.26904297,0.502929685,0.9641113299999999,0.5000165206758341,0.5000292443006141,0.4999427771988118,87.6,0.75,76.95,-0.015380859999999984,0.517578125,0.50854492,0.5001254372496732,0.49999267232240197,0.5000259135142696,54.3,20.1,-10.35
0.04223633000000001,0.55419922,0.28833008,0.49996635912773363,0.5000020650735709,0.499971222051362,-7.95,29.7,16.8,0.275146485,0.497802735,0.9655761700000001,0.5000276454917528,0.5000437664871883,0.49997488593379424,85.95,1.2,75.3,-0.019775390000000014,0.5234375,0.50854492,0.5001187756769842,0.5000037970510541,0.5000208506631754,54.3,20.1,-10.35
0.03881835999999998,0.5432128900000001,0.275146485,0.4999807480584194,0.4999883422477942,0.5000067948285775,-7.35,29.25,15.6,0.279541015,0.49462890499999995,0.959960935,0.5000378376909856,0.5000367052341005,0.49993638205063307,85.95,1.2,75.3,-0.014160155000000032,0.5224609400000001,0.497802735,0.5001039203943223,0.500013456314,0.5000362388821243,54.3,20.1,-10.35
0.044921875,0.544921875,0.286132815,0.5000315757986954,0.49999713556563163,0.49998261329179106,-7.35,29.25,15.6,0.275878905,0.49243164,0.9602050799999999,0.5000397695086682,0.5000292443006141,0.49992632310728863,85.95,0.9,75.6,-0.015869140000000014,0.5319824200000001,0.50390625,0.5001095160944371,0.5000147220267734,0.500044166167587,53.55,19.05,-10.65
0.04394531499999999,0.537109375,0.286376955,0.5000167205160335,0.5000151883787497,0.4999584984265821,-8.55,28.95,16.5,0.270996095,0.498291015,0.96875,0.500038703636094,0.49998241345159167,0.499947173770464,86.55,0.75,76.5,-0.005126955000000009,0.532714845,0.5100097650000001,0.5000844020282313,0.4999998667441116,0.5000099256874561,54.0,20.25,-10.05
0.04296875,0.5441894549999999,0.283935545,0.5000409019655534,0.4999835459084768,0.5000123905286922,-7.95,27.9,16.5,0.26538086,0.517578125,0.9602050799999999,0.500031309374185,0.500008660061949,0.49996742500030783,86.55,0.75,76.5,-0.0031738300000000094,0.5358886700000001,0.50439453,0.5000690803935933,0.50000472966774,0.5000091929982361,55.35,21.15,-11.4
0.04077148499999998,0.541503905,0.27783203,0.500053492334445,0.499962561989413,0.49999713556563163,-8.1,28.5,15.6,0.26953125,0.5146484400000001,0.9577636700000001,0.5000444325920973,0.49999726873425354,0.4999377144349841,87.45,0.15,75.3,-0.007568359999999984,0.544433595,0.50732422,0.5000849348772519,0.4999883422477942,0.5000098591031451,54.3,20.1,-10.95
0.04785156499999999,0.5417480450000001,0.283691405,0.5000330413516683,0.4999861439183349,0.4999470406018421,-8.1,28.5,15.6,0.26586914,0.51098633,0.9631347650000001,0.5000369716586108,0.500011324656118,0.4999557672481021,86.7,-0.15,76.05,-0.0009765600000000063,0.5417480450000001,0.5017089849999999,0.5000836692517449,0.49999766841465226,0.5000070612530877,54.9,20.55,-9.6
0.041015625,0.5520019549999999,0.283447265,0.5000525597177592,0.4999614962041053,0.49998168067510523,-8.1,28.8,17.1,0.27709961,0.5185546900000001,0.9645996099999999,0.5000507610686985,0.5000123238571148,0.49993058651031896,85.8,-0.3,76.95,0.0017089849999999843,0.5439453150000001,0.49951172000000005,0.5000670819043334,0.4999847450369394,0.5000170536121212,53.85,19.05,-10.35
0.04760741999999999,0.5515136700000001,0.28491211,0.5000558905041037,0.4999500382920989,0.5000073943491754,-7.95,28.2,15.15,0.27246094,0.510253905,0.95751953,0.5000294441408134,0.500009259582547,0.4999522366215582,85.8,-0.3,76.95,0.00048827999999997475,0.5400390650000001,0.5,0.5000495620275024,0.49999960031960133,0.5000193185258915,53.85,19.05,-10.35
0.04663085999999998,0.5534667950000001,0.28564453,0.5000346401605296,0.4999826799633685,0.49998427868496326,-9.45,28.8,17.1,0.267822265,0.5114746099999999,0.966796875,0.5000115244963174,0.5000217832798612,0.49993684840260927,86.85,-0.3,75.75,0.0031738300000000094,0.5341796900000001,0.50048828,0.5000362388821243,0.5000033307863445,0.5000143889306857,53.4,19.5,-10.5
0.05761718999999999,0.549316405,0.28442383,0.500038104115496,0.4999894081203684,0.500012790209091,-7.65,27.75,16.65,0.27294922,0.509765625,0.96191406,0.4999938047792871,0.5000027978500574,0.49997095562685173,86.55,0.3,75.75,-0.004150390000000016,0.5412597650000001,0.50341797,0.5000498951235901,0.49999553675677033,0.5000204509827767,54.75,19.5,-11.85
0.05200195500000001,0.55517578,0.28442383,0.5000422342626379,0.49994957194012274,0.5000008660323748,-7.65,27.75,16.65,0.26977539,0.5078125,0.9572753900000001,0.5000085268060606,0.49998674352619943,0.49994710718615304,88.2,-0.9,76.05,-0.005615234999999984,0.5314941400000001,0.502441405,0.5000095260070574,0.4999825467074801,0.5000105252953206,53.85,19.05,-10.35
0.04589843999999999,0.5458984400000001,0.28808594,0.5000330413516683,0.4999906071615645,0.499986676854622,-7.65,28.5,17.1,0.26928711,0.5124511700000001,0.956054685,0.5000105252953206,0.49998101457019617,0.4999531025666666,88.2,-0.9,76.05,-0.009521484999999984,0.524902345,0.510253905,0.5000310428624083,0.4999792159211356,0.4999927389067129,53.7,20.25,-10.05
0.04272460999999998,0.545410155,0.291259765,0.5000609532679314,0.49996102985212915,0.4999769510073652,-8.55,28.95,16.5,0.279541015,0.5146484400000001,0.9533691400000001,0.5000021983294594,0.499993405011622,0.4999622289805918,87.6,1.05,75.45,0.00024414000000001578,0.5283203150000001,0.5061035150000001,0.5000251140662058,0.49996102985212915,0.49999420445968584,54.0,19.5,-11.55
0.04785156499999999,0.5480957049999999,0.291015625,0.5000346401605296,0.4999928054910239,0.4999937381077097,-6.0,27.75,17.1,0.28417969,0.51171875,0.9572753900000001,0.5000101256149219,0.4999954701724594,0.49993904673206857,87.45,0.15,76.35,-0.004638669999999991,0.52392578,0.509033205,0.5000326416712696,0.4999877427271962,0.5000098591031451,55.5,19.2,-9.0
0.05883789000000002,0.53955078,0.294189455,0.5000363721380128,0.5000315092143844,0.49997974885742263,-6.6,28.5,17.1,0.28125,0.49609375,0.95800781,0.5000068614128884,0.5000057289560033,0.4999568331206763,87.45,0.15,77.1,-0.004394529999999975,0.51611328,0.506591795,0.5000231822485232,0.49999713556563163,0.5000187190052935,55.5,19.2,-9.0
0.05322265499999997,0.53955078,0.29760742,0.5000436332312999,0.5000080604540845,0.4999843453565407,-8.1,28.8,16.65,0.287109375,0.497314455,0.96191406,0.5000105918796316,0.5000131898894896,0.49994444259198406,87.45,0.15,77.1,-0.004638669999999991,0.5205078150000001,0.5075683599999999,0.5000338407124657,0.4999897412164561,0.5000033973706555,53.4,18.45,-10.05
0.04345702999999997,0.54296875,0.29272461,0.5000638843738772,0.4999729540288453,0.49999200613022643,-9.0,29.7,17.25,0.279296875,0.501464845,0.962402345,0.5000013989686619,0.5000028644343684,0.4999675581689298,87.15,-0.45,76.05,-0.0017089849999999843,0.5227050799999999,0.513671875,0.5000251140662058,0.49997488593379424,0.5000098591031451,53.4,18.45,-10.05
0.04272460999999998,0.5324707049999999,0.290527345,0.5000434999754114,0.49999553675677033,0.49997275418864584,-6.6,27.75,16.65,0.286376955,0.493896485,0.959960935,0.5000186523337161,0.5000167205160335,0.499967225072842,88.05,0.3,75.45,-0.009277345000000025,0.5256347650000001,0.5192871099999999,0.500040102604756,0.4999832128996555,0.5000169203562328,54.3,20.55,-12.0
0.04150390499999997,0.5329589849999999,0.294189455,0.5000373047546985,0.49998814240759487,0.499975885134791,-6.45,28.65,16.2,0.28564453,0.501464845,0.96044922,0.49999606969305743,0.49998201377119295,0.49996109643644016,87.45,0.15,76.05,-0.009521484999999984,0.5227050799999999,0.518066405,0.5000645505660527,0.49996289508550074,0.5000291776290366,54.9,19.35,-10.65
0.04394531499999999,0.5349121099999999,0.294921875,0.5000725444358263,0.4999811477388181,0.4999936049390878,-6.45,28.65,16.2,0.28930664,0.50439453,0.9680175799999999,0.500013389729689,0.49998994105665556,0.4999419778380144,87.45,0.15,76.05,-0.005859375,0.5192871099999999,0.51953125,0.5000593545463365,0.4999764180710781,0.5000365053939012,55.5,18.75,-10.8
0.04614258000000001,0.5363769549999999,0.301757815,0.5000410352214418,0.4999769510073652,0.49998794256739554,-7.95,27.9,16.2,0.28540039,0.49682617,0.9636230450000001,0.5000159211552361,0.4999919395459155,0.4999523032058692,86.85,-1.05,77.25,-0.013671875,0.5241699200000001,0.525878905,0.5000798721134242,0.4999427105272344,0.5000484295706172,56.25,18.45,-10.05
0.04809570500000001,0.5378417950000001,0.30517578,0.500046764177445,0.4999878759830846,0.5000069946687767,-6.9,27.45,16.2,0.2890625,0.49536133,0.96484375,0.5000195183660909,0.4999822802829697,0.4999297204779441,85.8,-1.05,75.45,-0.005615234999999984,0.5244140650000001,0.525878905,0.5000850015488294,0.4999431768792105,0.5000509609088979,53.85,19.8,-10.35
0.05126952999999997,0.53564453,0.299072265,0.5000750091897959,0.49996988975427753,0.49999367152339874,-5.7,26.4,16.2,0.282958985,0.497802735,0.9582519549999999,0.5000033973706555,0.4999694234023014,0.4999361156261228,85.8,-1.05,75.45,0.005615234999999984,0.5222167950000001,0.521484375,0.5000712787230527,0.4999205941512854,0.5000303767574993,55.5,18.75,-10.8
0.04833984500000003,0.5329589849999999,0.298583985,0.5000402358606444,0.4999822802829697,0.4999918062900271,-6.6,28.05,16.65,0.28125,0.50390625,0.9548339849999999,0.500039569668469,0.4999784831446491,0.49995603367261243,88.05,-1.05,74.7,-0.006347654999999975,0.5244140650000001,0.5212402349999999,0.5000687472975056,0.4999380474438054,0.5000256470024929,55.5,18.75,-10.8
0.04418945500000001,0.53564453,0.294921875,0.5000419678381276,0.49999453755577355,0.4999842121006523,-6.6,28.05,16.65,0.291015625,0.501953125,0.9519042950000001,0.5000099923590335,0.4999919395459155,0.4999355161055248,87.45,0.9,75.6,-0.0029296850000000065,0.53857422,0.53076172,0.5000866669420017,0.4999439762400079,0.500007327677598,55.5,18.75,-10.8
0.046875,0.5388183599999999,0.290771485,0.5000618858846172,0.49997788362405104,0.5000014655529729,-7.65,27.3,16.65,0.28808594,0.510253905,0.9504394549999999,0.5000273789799761,0.5000150551228613,0.4999380474438054,87.45,-0.45,76.35,-0.0078125,0.5305175799999999,0.5302734400000001,0.5001017220648629,0.4999137994099745,0.5000488292510159,55.2,19.95,-11.55
0.03955077999999997,0.5361328150000001,0.29223633,0.5000410352214418,0.4999994004794019,0.4999813476662839,-6.9,26.4,16.2,0.294677735,0.5041503900000001,0.9719238299999999,0.5000045298275406,0.4999962029489458,0.4999588981942472,87.45,-0.45,76.35,-0.012207030000000032,0.5378417950000001,0.52001953,0.5001121141042951,0.49990240808227904,0.5000211171749521,54.6,19.35,-11.4
0.04125976500000002,0.5302734400000001,0.299560545,0.5000375711792089,0.49999746857445293,0.49999980015980067,-8.1,27.3,17.7,0.29272461,0.490966795,0.970214845,0.5000062618922902,0.49998867534388197,0.49996729174441945,86.4,-0.45,76.35,0.001953125,0.533203125,0.5185546900000001,0.5001131799768693,0.4999195283659777,0.5000429004548135,54.75,20.7,-10.5
0.04541015499999997,0.5322265650000001,0.296875,0.5000652166709617,0.4999570329608756,0.5000135229855773,-8.1,27.3,17.7,0.28930664,0.49560547000000005,0.9714355450000001,0.5000510941647862,0.49996589277575754,0.49994231084683566,87.3,-0.3,76.5,-0.0029296850000000065,0.533203125,0.5251464849999999,0.5001292343007273,0.49989894412731256,0.5000077940295742,55.8,18.75,-10.8
0.04736327999999997,0.5319824200000001,0.299560545,0.5000391034037592,0.4999856110693143,0.49998734304679743,-6.3,27.3,16.35,0.2890625,0.50341797,0.971191405,0.5000389035635598,0.4999794823456459,0.4999557672481021,86.55,-0.3,76.5,0.0024414049999999746,0.5285644549999999,0.5202636700000001,0.5001165773475248,0.49990374046663,0.5000277787476413,54.45,19.5,-10.5
0.05053710999999998,0.5305175799999999,0.299316405,0.5000252473220941,0.49999680246954387,0.5000075276050638,-6.45,27.9,15.45,0.30151367,0.484375,0.958984375,0.5000301769172999,0.4999699563385885,0.4999350497535486,88.5,0.45,75.3,0.010009765000000016,0.52734375,0.5202636700000001,0.500091596449941,0.4999120673452248,0.5000444992636747,54.3,19.35,-9.9
