IMU1_AccX,IMU1_AccY,IMU1_AccZ,IMU1_GyrX,IMU1_GyrY,IMU1_GyrZ,IMU1_MagX,IMU1_MagY,IMU1_MagZ,IMU2_AccX,IMU2_AccY,IMU2_AccZ,IMU2_GyrX,IMU2_GyrY,IMU2_GyrZ,IMU2_MagX,IMU2_MagY,IMU2_MagZ,IMU3_AccX,IMU3_AccY,IMU3_AccZ,IMU3_GyrX,IMU3_GyrY,IMU3_GyrZ,IMU3_MagX,IMU3_MagY,IMU3_MagZ
0.03662109500000003,0.5378417950000001,0.315185545,0.4999876761428852,0.4999956700126587,0.4999857442379362,-5.55,28.5,16.35,0.28881836,0.49853515499999995,0.96435547,0.49999333842731103,0.49998674352619943,0.5000322419908709,87.6,-0.75,76.5,-0.006347654999999975,0.51904297,0.5334472650000001,0.49991559797176865,0.4999868101105104,0.499968624041504,56.1,17.1,-9.3
0.03955077999999997,0.5458984400000001,0.31958008,0.5000082602942838,0.49996935681799043,0.500009326166858,-4.2,28.5,16.05,0.28857422,0.489990235,0.958984375,0.500005196019716,0.5000024647539697,0.5000310428624083,86.85,0.3,76.95,0.005615234999999984,0.51220703,0.5300292950000001,0.4999079371980829,0.49998168067510523,0.49996915697779104,56.1,16.8,-7.8
0.03930664000000002,0.5419921900000001,0.313964845,0.49998900843996974,0.5000063950609122,0.4999840788447639,-6.15,27.45,18.9,0.278564455,0.48779297000000005,0.9533691400000001,0.4999861439183349,0.4999743529975072,0.5000552243119282,86.85,0.3,76.95,0.005859375,0.5056152349999999,0.53173828,0.4999000099126203,0.4999668920640208,0.49996296175707816,56.1,16.8,-7.8
0.03637695500000001,0.54345703,0.314208985,0.4999852779732265,0.5000077940295742,0.5000039303069426,-6.15,27.45,18.9,0.270507815,0.49560547000000005,0.956054685,0.5000154548032599,0.4999914731939394,0.5000422342626379,86.85,0.75,75.75,0.0048828149999999935,0.5153808599999999,0.5319824200000001,0.49989134993793777,0.49996129636390596,0.4999680245209059,57.0,16.95,-7.95
0.03881835999999998,0.5419921900000001,0.30932617,0.49999400461948645,0.5000085268060606,0.49998927486448,-6.0,28.8,17.4,0.27026367,0.49462890499999995,0.9553222650000001,0.49999946706371295,0.5000234486730334,0.500031375958496,86.7,-0.15,76.65,-0.0029296850000000065,0.5100097650000001,0.5310058599999999,0.49991666384434286,0.4999141990903732,0.4999824801231691,57.0,16.95,-7.95
0.029785154999999976,0.541015625,0.31616211,0.4999788828250478,0.5000277120760638,0.49999946706371295,-6.6,28.05,17.1,0.271240235,0.486572265,0.96533203,0.5000007327764865,0.4999970688940542,0.500022715896547,86.7,-0.9,75.6,-0.002197265000000016,0.509033205,0.52392578,0.4999116676648261,0.4999321853191802,0.4999942710439968,56.55,17.4,-10.05
0.03466797000000003,0.544921875,0.307373045,0.5000087932305709,0.5000050627638277,0.5000101256149219,-7.05,27.0,17.7,0.28076172,0.49291992,0.9609375,0.49999786834211807,0.5000050627638277,0.5000375711792089,86.7,-0.9,75.6,-0.004394529999999975,0.5036621099999999,0.5329589849999999,0.4999070045813971,0.49994384307138595,0.4999990007990032,55.35,18.6,-8.25
0.03564452999999997,0.5354003900000001,0.302001955,0.5000091929982361,0.5000095926786348,0.5000004663519761,-7.05,27.0,17.7,0.27758789,0.486572265,0.95800781,0.5000029311059457,0.4999918062900271,0.5000183859092058,86.7,-0.15,76.35,-0.008789060000000007,0.5017089849999999,0.5349121099999999,0.49991106814422803,0.49995610034418986,0.5000075941893748,56.4,18.3,-8.85
0.03344726500000002,0.53466797,0.30517578,0.4999928721626013,0.5000137228257767,0.4999704226905646,-5.7,28.65,17.85,0.28027344,0.48803711,0.9641113299999999,0.5000047963393174,0.5000163208356349,0.5000546914629076,87.75,-0.45,77.4,-0.005126955000000009,0.498779295,0.53125,0.4998912166820494,0.49995669986478786,0.5000011324568852,57.3,17.4,-7.95
0.02465820500000001,0.5368652349999999,0.314941405,0.4999952036606826,0.4999698230827001,0.500013389729689,-4.35,29.4,17.25,0.286865235,0.497070315,0.9587402349999999,0.5000039969785199,0.5000078606138851,0.500053425750134,87.75,-0.45,77.4,-0.010253904999999975,0.510253905,0.5256347650000001,0.4999116676648261,0.49997401990141943,0.4999831462280781,57.3,17.4,-7.95
0.03881835999999998,0.5368652349999999,0.31225586,0.49999746857445293,0.5000077940295742,0.5000245811299187,-6.45,27.15,17.25,0.286621095,0.48486327999999995,0.962402345,0.5000093928384355,0.5000065949883781,0.5000356393615264,86.25,-0.3,77.55,0.0017089849999999843,0.501953125,0.53125,0.49990860339025833,0.4999780834642504,0.4999842121006523,56.4,17.55,-8.25
0.0390625,0.5412597650000001,0.30908203,0.4999679578493285,0.5000065283168006,0.49997215466804784,-5.25,28.05,17.7,0.28491211,0.490478515,0.9582519549999999,0.5000008660323748,0.4999942710439968,0.5000444325920973,87.15,-0.9,76.05,0.006103515000000016,0.50488281,0.5314941400000001,0.4999389134761802,0.4999754188700814,0.5000303767574993,56.4,17.55,-8.25
0.037109375,0.5490722650000001,0.31591797,0.49997788362405104,0.4999910069292297,0.49999247239493616,-5.25,28.05,17.7,0.287353515,0.479492185,0.9606933599999999,0.5000115910806283,0.5000378376909856,0.500037438010587,87.3,0.3,76.2,0.005615234999999984,0.501953125,0.5285644549999999,0.4999519035254705,0.49998441194085164,0.5000158544836586,56.7,18.3,-7.5
0.05371093999999999,0.5478515650000001,0.26953125,0.4999938047792871,0.5000011324568852,0.5000438996558102,-8.7,28.05,14.25,0.22998047000000002,0.5329589849999999,0.8986816400000001,0.5000271125554657,0.49998294638787877,0.5000764080711914,88.65,0.75,71.25,0.03515625,0.5568847650000001,0.6975097650000001,0.4999139325785964,0.5000104586237432,0.500046697593134,62.55,22.65,10.35
0.05395508000000001,0.53857422,0.27758789,0.49994590814495693,0.5000149218669728,0.5000325084153812,-9.9,27.3,15.3,0.24658203,0.5314941400000001,0.92675781,0.500003464042233,0.49985611025681015,0.5001234387604131,91.35,0.15,72.75,0.027832029999999976,0.5595703150000001,0.70263672,0.49989461405270486,0.5000290443731483,0.5000492289314147,62.55,22.65,10.35
0.06005859500000003,0.540527345,0.27416992,0.4999232588327209,0.5000275122358644,0.5000272458113542,-7.5,28.2,15.75,0.23730468999999998,0.5402832049999999,0.950683595,0.500020051302378,0.4999656929355582,0.50009825802263,91.35,0.15,72.75,0.023925779999999976,0.5568847650000001,0.6975097650000001,0.4999056722843126,0.5000636845336779,0.5000453652087831,62.55,22.65,10.35
0.07006835999999998,0.5441894549999999,0.283203125,0.49994337671940986,0.49997768378385166,0.5000406355410432,-9.9,27.0,17.1,0.244628905,0.5368652349999999,0.938964845,0.5000143223463748,0.4999323851593796,0.5000987909589171,91.2,0.0,70.05,0.017333984999999986,0.5539550799999999,0.6984863299999999,0.49989874428711323,0.5000698797543908,0.5000365719782122,61.65,22.2,10.8
0.076171875,0.548828125,0.287841795,0.499897678414539,0.500028711364327,0.5000379042752966,-9.9,27.3,15.6,0.23388672000000002,0.5397949200000001,0.931152345,0.5000237817691212,0.49993484991334924,0.5001277687477544,89.55,0.45,71.7,0.023193359999999986,0.54345703,0.6875,0.49990513934802544,0.500046697593134,0.500018585749405,59.7,22.35,10.35
0.08081054499999998,0.5456542950000001,0.287109375,0.49987402990130625,0.5000117910080942,0.5000171201964322,-8.55,27.15,16.5,0.21386718999999998,0.5319824200000001,0.90332031,0.5000743429976204,0.5000030643618342,0.5000855344851165,90.45,0.75,72.9,0.02856445500000001,0.5427246099999999,0.689453125,0.4998960130213668,0.5000454984646715,0.5000095260070574,60.9,23.25,8.7
0.06665039000000002,0.5510253900000001,0.283447265,0.4998801585377082,0.500046764177445,0.500034840000729,-8.55,27.15,16.5,0.22924804499999998,0.5178222650000001,0.9333496099999999,0.4999654930953588,0.5000081271256619,0.5001345635763318,90.45,0.75,72.9,0.03417968999999999,0.52001953,0.6799316400000001,0.4999108017197177,0.5000870000380894,0.49997335370924395,61.05,22.35,10.35
0.05957031499999999,0.5529785150000001,0.28417969,0.49989581318116744,0.5000049295952058,0.5000413016459521,-9.0,26.7,16.2,0.25024414,0.498779295,0.9602050799999999,0.49998827566348325,0.5000460314009586,0.5001020551609506,90.0,0.45,70.65,0.03271484500000003,0.525390625,0.6892089849999999,0.4999116676648261,0.5000856010694275,0.4999990673833142,60.75,21.9,9.6
0.056640625,0.5563964849999999,0.27319336,0.49985957429904304,0.5000124571130031,0.50001945178178,-10.65,27.15,16.5,0.25415039,0.564453125,0.9123535150000001,0.4999994004794019,0.5000496952833908,0.5001144456023764,88.2,1.65,70.95,0.03588866999999999,0.5217285150000001,0.69580078,0.4999333843603764,0.5001254372496732,0.49998840891937163,60.3,22.65,9.9
0.04809570500000001,0.5578613299999999,0.28149414,0.4998532458224417,0.5000177863886077,0.5000117243365167,-8.7,27.75,15.0,0.27319336,0.478515625,0.9650878900000001,0.49998241345159167,0.5000522932932489,0.5001179762289203,89.1,0.75,71.85,0.04296875,0.5224609400000001,0.690429685,0.49992079399148476,0.5001941178756013,0.49996622587184525,60.3,22.65,9.9
0.05126952999999997,0.5690917950000001,0.27270508,0.4998401225172631,0.4999822136113923,0.5000328415114689,-9.3,28.2,17.25,0.27392578,0.5495605450000001,0.9616699200000001,0.49999713556563163,0.5000373047546985,0.5001297006527035,90.3,0.45,72.0,0.03466797000000003,0.5246582049999999,0.6779785150000001,0.49992932079754543,0.5001949173236652,0.49999333842731103,61.35,21.6,9.3
0.05004883000000001,0.5695800799999999,0.280029295,0.49984085529374955,0.49993684840260927,0.5000063950609122,-9.3,28.2,17.25,0.256591795,0.5390625,0.9426269549999999,0.5000494287716141,0.49999207271453744,0.5001279020036428,89.85,0.3,71.55,0.03540039000000002,0.5363769549999999,0.68017578,0.49993851379578147,0.5001648736622537,0.5000018652333716,61.05,22.35,8.55
0.06152343999999999,0.5637207049999999,0.28076172,0.4998039502194497,0.49997928250544654,0.5000087932305709,-9.6,28.2,16.2,0.25366211,0.5290527349999999,0.91748047,0.49996436063847366,0.5000187190052935,0.5001160444112377,89.55,2.4,71.4,0.056640625,0.5322265650000001,0.6784667950000001,0.49995197010978143,0.5001010558726874,0.500017986228807,61.35,23.1,9.3
0.06542969,0.5622558599999999,0.293945315,0.49982087057568253,0.4999483063146157,0.5000259800985806,-9.0,30.45,16.2,0.248046875,0.5302734400000001,0.93701172,0.49998401226045297,0.5000195183660909,0.5001231056643254,89.55,2.4,71.4,0.04589843999999999,0.55126953,0.6872558599999999,0.4999499050362105,0.5001661393750272,0.49998534455753746,60.6,22.95,7.65
0.06372070500000002,0.55029297,0.28979492,0.49980821362247996,0.4999515038450718,0.5000345734889522,-9.45,28.8,15.3,0.24609375,0.525390625,0.943359375,0.49996296175707816,0.5000238483534322,0.5001246378016092,89.55,2.4,69.9,0.0390625,0.5344238299999999,0.67285156,0.499951237333295,0.5001069180845791,0.4999989341274258,61.05,21.9,8.25
0.07421875,0.54638672,0.295166015,0.4997976883271593,0.49997961560153426,0.5000173200366316,-9.45,28.8,15.3,0.23950195500000002,0.5334472650000001,0.9362792950000001,0.49998900843996974,0.500038703636094,0.5001146454425758,90.15,1.05,71.55,0.04516601500000002,0.5529785150000001,0.6828613299999999,0.4999205941512854,0.5001324985027609,0.4999780168799394,61.05,23.1,7.5
0.07006835999999998,0.54248047,0.298583985,0.4998173399491387,0.49996023049133176,0.5000081271256619,-9.15,29.55,15.3,0.24243164,0.5261230450000001,0.9436035150000001,0.49998987438507814,0.5000148552826619,0.5001257702584944,90.75,1.65,70.65,0.03881835999999998,0.5725097650000001,0.6838378900000001,0.4999270558837751,0.5001957832687736,0.49997055585918654,61.05,23.1,7.5
0.067382815,0.556152345,0.294433595,0.4998532458224417,0.49997874965642586,0.5000449655283844,-10.05,29.7,16.2,0.240234375,0.5295410150000001,0.9401855450000001,0.5000015988088613,0.49999593643716905,0.5000974586618326,90.0,2.4,70.95,0.03759765499999997,0.54638672,0.6799316400000001,0.49991832923751506,0.5002418813413095,0.5000049295952058,61.05,23.4,7.8
0.06420898499999998,0.552246095,0.299072265,0.49985277947046564,0.4999682243611053,0.5000398361802457,-8.1,28.8,15.3,0.24633788999999998,0.52734375,0.9348144549999999,0.49999660262934453,0.5000077940295742,0.5001150452102409,89.55,2.7,71.4,0.037109375,0.553222655,0.681640625,0.4999096025912551,0.5002666623114276,0.49995097090878465,61.05,23.4,7.8
0.0546875,0.56298828,0.29711914,0.49986190579712436,0.5000002664245103,0.5000229824083238,-9.3,30.15,16.8,0.247558595,0.5224609400000001,0.92578125,0.49997868298484843,0.5000105918796316,0.5001062518924035,90.15,2.55,70.8,0.025878904999999976,0.5498046900000001,0.6818847650000001,0.4999040734754513,0.5002546715504005,0.4999769510073652,60.6,20.7,7.65
0.05566406499999999,0.56689453,0.290039065,0.4998782266327591,0.4999588315226698,0.5000542251109314,-9.3,30.15,16.8,0.24291991999999998,0.5178222650000001,0.9357910150000001,0.49999680246954387,0.5000117910080942,0.5000993238952042,90.15,2.55,70.8,0.023681640000000014,0.5498046900000001,0.68066406,0.49992665620337634,0.5002458782325631,0.4999594311305343,61.2,22.2,6.9
0.05029297000000003,0.57519531,0.287353515,0.4998600405637527,0.5000065949883781,0.5000360390419251,-8.7,30.3,16.65,0.23828125,0.5158691400000001,0.9328613299999999,0.49996902372190266,0.5000251140662058,0.5001245712172983,91.05,3.45,71.4,0.015380859999999984,0.536621095,0.6838378900000001,0.4998892848643668,0.5002600007387384,0.4999883422477942,61.2,22.5,7.35
0.05126952999999997,0.5778808599999999,0.290527345,0.4998808912269281,0.5000205842386651,0.5000418345822393,-8.25,28.95,15.75,0.24438476499999998,0.5187988299999999,0.9450683599999999,0.49999400461948645,0.5000209173347528,0.5000863338459139,90.45,2.55,70.8,0.019042970000000024,0.611816405,0.7038574200000001,0.49988355590836364,0.5002709257144577,0.4999647603188724,61.95,23.25,6.3
0.04956054499999999,0.58984375,0.28564453,0.499913133217799,0.4999760849749904,0.500048229730418,-9.45,29.85,15.3,0.23315429499999998,0.5173339849999999,0.936523435,0.4999613629482169,0.4999856110693143,0.5001256370898725,90.15,4.05,71.55,0.05004883000000001,0.5603027349999999,0.71191406,0.4998631715098979,0.500483229746332,0.49989701222236355,60.6,23.25,6.3
0.04589843999999999,0.58544922,0.291748045,0.499908403550059,0.4999885420879936,0.5000217832798612,-9.45,29.85,15.3,0.228271485,0.5021972650000001,0.907714845,0.5000028644343684,0.5000078606138851,0.5000937281950893,89.85,2.25,70.8,0.04614258000000001,0.55078125,0.6755371099999999,0.499883689164252,0.5008512810265346,0.49986550309524563,61.8,22.35,6.15
0.04467773499999998,0.58300781,0.28417969,0.4999046064117384,0.49997495251810525,0.5000310428624083,-9.45,29.85,15.3,0.23193359500000002,0.5080566400000001,0.919433595,0.4999729540288453,0.5000091263266587,0.5000999900873797,88.65,2.55,71.85,0.06982422000000002,0.41699219,0.6369628900000001,0.49992618985140025,0.5009733874025968,0.4998933484271978,61.8,22.35,6.15
0.04760741999999999,0.5837402349999999,0.29199219,0.49996296175707816,0.4999877427271962,0.5000461646568469,-9.6,30.15,17.25,0.17065429499999998,0.5446777349999999,0.8732910150000001,0.5000280451721515,0.5003859709246987,0.5000899977283462,89.55,3.45,69.9,-0.002197265000000016,0.43676758,0.6015625,0.49997108879547364,0.5008825237291423,0.4999616293727272,61.8,22.35,6.15
0.05395508000000001,0.5695800799999999,0.28833008,0.49992912095734604,0.49997382006122004,0.500013389729689,-9.15,31.05,16.65,0.258789065,0.5163574200000001,0.959960935,0.499973287124933,0.5001852580607193,0.5000652166709617,89.55,3.45,69.9,-0.05126953000000003,0.502929685,0.53857422,0.4999922725547368,0.5001770643507466,0.500060087322823,58.05,23.25,3.75
0.04980468999999999,0.578125,0.282958985,0.4999648269904498,0.4999848782928278,0.5000424341901037,-9.15,31.05,16.65,0.22216797000000002,0.521484375,0.963378905,0.49997055585918654,0.5002069080846921,0.5000769410074785,89.55,3.45,69.9,0.0009765649999999937,0.5212402349999999,0.62060547,0.49999726873425354,0.49975225653406535,0.500042101094016,60.6,21.75,4.5
0.05371093999999999,0.583496095,0.282470705,0.5000083269658613,0.4999622289805918,0.5000547580472186,-8.4,31.05,17.1,0.264160155,0.5146484400000001,0.9890136700000001,0.49996589277575754,0.5000181194846954,0.500047430282354,89.55,2.4,70.65,0.07177734500000002,0.5378417950000001,0.6701660150000001,0.5000046630834291,0.5000147886983509,0.5000121240169154,59.25,23.85,3.6
0.05249023499999998,0.5847167950000001,0.27783203,0.5000058622118916,0.5000018652333716,0.5000318422232056,-8.4,31.05,17.1,0.23681640499999998,0.48583984500000005,0.9338378900000001,0.5000776737839648,0.4999754188700814,0.5000285115241276,88.35,2.55,70.5,0.011474609999999984,0.520996095,0.6286621099999999,0.5000569563766779,0.5001639410455678,0.5000047963393174,61.35,23.1,3.3
0.05102539000000002,0.591796875,0.28076172,0.500012790209091,0.49999540350088195,0.5000103920394322,-9.6,31.65,17.55,0.21215820500000002,0.5148925799999999,0.911621095,0.5000115910806283,0.5000013322970845,0.500030776437898,90.9,3.3,71.55,-0.0009765600000000063,0.5246582049999999,0.60644531,0.500026646290756,0.4999751523583046,0.5000117910080942,60.75,22.65,4.65
0.04931640499999997,0.588378905,0.28173828,0.5000438330714992,0.49998334606827743,0.5000331079359792,-8.55,30.9,14.7,0.22729491999999998,0.5075683599999999,0.927734375,0.5000257802583812,0.5000193185258915,0.5000189188454929,90.9,3.3,71.55,0.011230470000000025,0.5314941400000001,0.62890625,0.500040102604756,0.49991639741983257,0.5000209839190638,59.7,21.9,3.3
0.05102539000000002,0.592285155,0.275390625,0.5000543583668198,0.49997475267790586,0.500033507616378,-9.15,30.3,17.1,0.21752929499999998,0.49560547000000005,0.91357422,0.5000109915600303,0.500022715896547,0.500013456314,90.75,2.4,72.0,0.022460939999999995,0.53173828,0.64550781,0.5000373713390096,0.500005196019716,0.5000187855896044,59.7,21.9,3.3
0.05078125,0.58691406,0.274902345,0.5000364387223237,0.49999753524603036,0.49998674352619943,-9.15,30.3,17.1,0.21557616999999998,0.50708008,0.93408203,0.5000311761182967,0.5000073943491754,0.49999160644982776,90.3,1.65,72.0,0.021240234999999986,0.5388183599999999,0.643066405,0.5000465643372457,0.5000460314009586,0.5000349065850399,59.25,22.65,3.9
0.05151366999999999,0.5808105450000001,0.265625,0.500048229730418,0.5000025314255471,0.5000145888581515,-8.4,31.35,16.05,0.23193359500000002,0.5100097650000001,0.9450683599999999,0.5000482963147289,0.5000318422232056,0.4999895413762568,90.3,1.65,72.0,0.0048828149999999935,0.53857422,0.6491699200000001,0.5000582220894514,0.5001063851482919,0.5000225827279251,59.25,22.65,3.9
0.04833984500000003,0.5778808599999999,0.27807617,0.5000779402957417,0.49997708426325366,0.5000482963147289,-8.4,30.6,16.35,0.21459961,0.509277345,0.92138672,0.5000714785632521,0.49998694336639876,0.4999723545082472,90.45,4.5,71.55,0.003662109999999984,0.5256347650000001,0.61425781,0.500044765688185,0.500026113354469,0.500042101094016,60.0,22.35,3.6
0.056640625,0.5754394549999999,0.274658205,0.5000716784034513,0.49999873428722647,0.5000080604540845,-10.35,28.95,16.8,0.21459961,0.517578125,0.915527345,0.5000518269412727,0.5000028644343684,0.4999890750242807,90.45,2.55,70.8,0.0012207050000000094,0.5280761700000001,0.6276855450000001,0.5000660827033365,0.5000057955403142,0.5000480298902186,59.1,21.75,3.45
0.048828125,0.57470703,0.26538086,0.5000703461063668,0.5000069946687767,0.49998294638787877,-9.0,31.65,17.55,0.217041015,0.5305175799999999,0.9216308599999999,0.5000221829602599,0.4999962695332568,0.4999816140907943,90.3,2.4,72.0,0.01049804499999999,0.5290527349999999,0.634277345,0.5000689471377049,0.500046697593134,0.5000098591031451,59.7,22.65,3.3
0.052734375,0.5690917950000001,0.2734375,0.5001005896079778,0.49998334606827743,0.5000065949883781,-9.0,31.65,17.55,0.21826172000000002,0.52734375,0.9265136700000001,0.5000576224815869,0.4999877427271962,0.4999634280217879,90.3,2.4,72.0,0.007080080000000009,0.5368652349999999,0.6188964849999999,0.5000537588462217,0.5000219165357496,0.5000231822485232,59.4,22.95,3.15
0.05004883000000001,0.5720214849999999,0.274902345,0.5000823368673939,0.49996442722278467,0.5000116577522058,-9.0,30.45,16.5,0.22558593999999998,0.5187988299999999,0.92529297,0.5000523598775598,0.5000037304667432,0.49997475267790586,89.25,3.9,69.6,0.01098633000000001,0.529785155,0.619140625,0.5000647504062521,0.49999840119113875,0.5000381707870735,58.95,20.85,2.55
0.04345702999999997,0.5681152349999999,0.271240235,0.5001097825189473,0.49995809874618335,0.5000297771496347,-9.0,30.45,16.8,0.23095702999999998,0.52392578,0.935546875,0.5000541585266205,0.5000151883787497,0.49996902372190266,90.15,3.0,71.25,0.011962890000000016,0.5324707049999999,0.62939453,0.5000670819043334,0.49998587749382456,0.500017986228807,60.3,21.9,2.55
0.03833008000000001,0.5700683599999999,0.28027344,0.5001152450504402,0.49995590041672405,0.5000109249757193,-8.7,29.25,16.35,0.23315429499999998,0.5205078150000001,0.9309082049999999,0.5000417014136173,0.5000090597423477,0.49993684840260927,90.0,3.45,71.7,0.021240234999999986,0.5305175799999999,0.62841797,0.5000826699634817,0.5000045298275406,0.5000291776290366,60.3,21.9,2.55
0.04980468999999999,0.57080078,0.28417969,0.5000984578628294,0.4999687572973924,0.5000089264864593,-8.7,29.25,16.35,0.228515625,0.5192871099999999,0.9211425799999999,0.5000608200993095,0.5000241148652089,0.4999700230101659,90.75,4.2,69.9,0.015380859999999984,0.529296875,0.62988281,0.50008280321937,0.49999993341568905,0.5000504280598773,60.15,21.45,4.2
0.05493164000000002,0.5705566400000001,0.28564453,0.5001238384408119,0.49993724808300793,0.5000430337107018,-8.1,30.3,17.7,0.228759765,0.52734375,0.9279785150000001,0.5000504946441883,0.5000169203562328,0.4999538353431531,89.4,3.75,71.55,0.013916015000000016,0.53466797,0.63623047,0.5000972588216333,0.4999855443977368,0.5000302435016108,60.0,21.6,3.6
0.06689452999999998,0.5759277349999999,0.28833008,0.5001104487111229,0.49995336907844334,0.5000317090545837,-10.2,29.55,16.05,0.232421875,0.5256347650000001,0.9445800799999999,0.5000476302098198,0.5000241148652089,0.4999427105272344,89.55,3.45,69.6,0.01684570500000001,0.5305175799999999,0.635742185,0.5000950604921739,0.49998760947130777,0.5000251807377831,60.0,23.4,3.6
0.06103515499999997,0.576171875,0.291015625,0.5000889984400829,0.49997182157196013,0.50000872664626,-8.25,30.15,15.45,0.23315429499999998,0.536621095,0.9296875,0.5000506279000766,0.5000117910080942,0.4999611631080176,89.55,3.45,69.6,0.013183595000000025,0.5310058599999999,0.62451172,0.5000895980479474,0.5000168537719218,0.5000209839190638,58.95,22.65,4.35
0.06152343999999999,0.5817871099999999,0.29345703,0.5001125803690047,0.499955234311815,0.5000067948285775,-9.45,29.25,17.4,0.23925781499999998,0.5319824200000001,0.9250488299999999,0.5000471638578438,0.5000121240169154,0.4999611631080176,91.35,3.9,70.65,0.012207029999999975,0.53125,0.6306152349999999,0.5001031876178358,0.5000015321372838,0.5000251807377831,60.3,21.15,2.85
0.05932616999999999,0.5827636700000001,0.290039065,0.500075475541772,0.49997601839067946,0.4999820803555039,-9.45,29.25,17.4,0.236328125,0.5329589849999999,0.9226074200000001,0.5000516936853844,0.5000009992009967,0.49996156278841625,90.0,3.9,69.9,0.01684570500000001,0.53515625,0.630859375,0.5001059187963158,0.4999704226905646,0.5000274456515534,59.4,22.5,2.7
0.05615234500000003,0.591308595,0.29345703,0.5000596875551578,0.49998760947130777,0.49999080700176385,-9.3,30.45,15.75,0.23974609500000002,0.5341796900000001,0.9211425799999999,0.5000420344224386,0.5000404357008437,0.4999595642991563,89.55,3.15,71.4,0.027587890000000014,0.532714845,0.6320800799999999,0.5001070513404674,0.4999767511671659,0.5000245145456076,59.4,22.5,2.7
0.05297851500000002,0.60205078,0.298095705,0.5000562236001914,0.49996595944733496,0.4999914731939394,-8.7,29.55,16.35,0.24121093999999998,0.53955078,0.931640625,0.500039569668469,0.5000253805779825,0.49995370217453117,90.75,2.7,71.4,0.029541015000000014,0.5419921900000001,0.634765625,0.50010225500115,0.49998960796056774,0.5000329747673573,59.4,22.5,2.7
0.04980468999999999,0.599121095,0.29711914,0.5000031309461451,0.4999784831446491,0.49996289508550074,-8.55,29.4,16.5,0.23046875,0.53955078,0.924804685,0.5000367052341005,0.5000234486730334,0.49994231084683566,89.4,2.25,69.0,0.02661133000000001,0.532714845,0.6311035150000001,0.5001158445710383,0.5000151217071722,0.5000065949883781,59.7,21.6,2.55
0.04589843999999999,0.604003905,0.29711914,0.4999930053312232,0.499984678365362,0.4999222595444577,-8.55,29.4,16.5,0.23095702999999998,0.5480957049999999,0.932128905,0.5000520934530495,0.5000074609334864,0.49990906965496806,90.3,1.95,71.7,0.027832029999999976,0.5319824200000001,0.63378906,0.500127635491866,0.4999943377155742,0.5000156546434593,59.7,21.6,2.55
0.05346679499999999,0.6105957049999999,0.30444336,0.4999754188700814,0.4999594311305343,0.4999407121252408,-8.4,29.25,16.65,0.31152344,0.5319824200000001,0.955566405,0.5000562901845024,0.5001618093004194,0.4999252572347144,90.3,1.95,71.7,0.022460939999999995,0.529296875,0.638183595,0.5001337641282679,0.499984678365362,0.49999153977825034,59.7,22.35,1.8
0.05297851500000002,0.6110839849999999,0.30419922,0.4999060053804003,0.4999736202210207,0.4998697664982759,-8.55,30.45,16.8,0.224609375,0.5354003900000001,0.908203125,0.5000425673587257,0.5000405022851547,0.49991966153459966,90.15,3.3,70.5,0.030273439999999995,0.53515625,0.6403808599999999,0.5001380275312982,0.500020117886689,0.5000098591031451,60.0,22.35,2.25
0.05786133000000001,0.5930175799999999,0.31201172,0.4998545115352153,0.49999573659696966,0.4998478499625263,-7.35,29.25,17.4,0.23754883000000002,0.5373535150000001,0.943359375,0.5000518935255837,0.5001037871384338,0.49989721206256293,91.05,2.7,70.95,0.009521484999999984,0.5390625,0.6257324200000001,0.5001715352349426,0.49999813476662835,0.49998794256739554,59.4,22.95,1.05
0.06713866999999998,0.5832519549999999,0.309814455,0.4998553108960127,0.4999998667441116,0.49982699921208446,-8.25,29.4,16.2,0.23828125,0.5358886700000001,0.9353027349999999,0.5000373713390096,0.5000679479367082,0.49991439893057255,90.15,2.25,69.75,0.013183595000000025,0.5417480450000001,0.64111328,0.500140292532335,0.49996849078561556,0.5000119908482935,58.35,22.2,3.15
0.05932616999999999,0.5524902349999999,0.30444336,0.4998385237084018,0.500018585749405,0.49982020447077347,-8.25,29.4,16.2,0.217041015,0.552246095,0.9162597650000001,0.5000496286118133,0.5000633514375902,0.4999212603434609,90.15,2.25,69.75,0.01684570500000001,0.544433595,0.6398925799999999,0.5001508844119666,0.5000117910080942,0.49998034837802074,59.25,20.85,1.2
0.05639648499999998,0.528808595,0.30004883,0.49982613326697606,0.5000503613882998,0.4997981546791355,-9.15,28.5,15.3,0.22363281499999998,0.5520019549999999,0.9382324200000001,0.5000510941647862,0.5000459648166476,0.4999074709333732,90.15,2.25,69.75,0.007080080000000009,0.5656738299999999,0.6374511700000001,0.500140359116646,0.4999998667441116,0.49996622587184525,60.15,20.7,1.65
0.05932616999999999,0.510498045,0.29248047,0.4998948138929042,0.5000245145456076,0.4998315291268915,-7.95,29.7,17.25,0.22631836,0.5539550799999999,0.932128905,0.49999840119113875,0.5000355727772153,0.4999303200858086,90.0,0.9,70.65,0.013916015000000016,0.5568847650000001,0.638671875,0.5001427572863046,0.5000300436614116,0.49997348696513233,60.15,20.7,1.65
0.04467773499999998,0.49902344,0.282226565,0.4999455750488692,0.5000383039556954,0.49986230547752303,-10.05,27.9,16.2,0.244628905,0.5302734400000001,0.94921875,0.5000338407124657,0.4999756852945917,0.4999584318422711,90.0,0.9,70.65,0.0012207050000000094,0.57910156,0.6398925799999999,0.500132165406673,0.5000040635628309,0.49997415315730787,59.25,22.35,2.55
0.04272460999999998,0.49169922000000005,0.27270508,0.49995603367261243,0.5000637511179888,0.4998673683286172,-10.05,27.9,16.2,0.21362304499999998,0.52783203,0.940429685,0.5000376378507864,0.5000004663519761,0.49996249540510207,90.0,0.9,70.65,0.008056640000000016,0.576171875,0.643554685,0.5001239050251228,0.5000318422232056,0.4999828131319904,59.25,23.1,2.85
0.03198241999999999,0.494140625,0.26977539,0.5000434999754114,0.5000427006146141,0.4999391133163796,-10.05,27.9,16.2,0.22949218999999998,0.5361328150000001,0.94482422,0.5000149885385503,0.49998341273985486,0.49995669986478786,90.75,2.4,69.15,0.02075195500000001,0.573242185,0.627929685,0.5000919295460288,0.5000526929736476,0.49998441194085164,59.25,22.35,1.5
0.026367189999999995,0.490478515,0.266845705,0.5000939280352887,0.5000233155044115,0.500024714385807,-8.4,28.8,16.35,0.22265625,0.53173828,0.938964845,0.5000078606138851,0.4999848782928278,0.49997854972896005,89.4,1.8,70.5,0.0068359399999999935,0.5759277349999999,0.623046875,0.5000770076790559,0.5000252473220941,0.49998334606827743,59.4,21.75,1.65
0.03002929499999999,0.5041503900000001,0.26635742,0.5000999900873797,0.4999937381077097,0.5000359724576141,-9.0,31.2,15.45,0.23193359500000002,0.5485839849999999,0.924804685,0.5000299769898341,0.49998654368600004,0.49998641043011166,90.75,2.4,69.9,0.0026855449999999906,0.57763672,0.619628905,0.5000618858846172,0.5000073943491754,0.4999859440781355,60.3,21.15,2.55
0.02270508000000001,0.517089845,0.262695315,0.500124371377099,0.49996249540510207,0.500118242740697,-8.4,28.8,16.05,0.22338866999999998,0.5002441400000001,0.908203125,0.5000050627638277,0.5000376378507864,0.49998334606827743,90.75,2.4,69.9,0.020507814999999995,0.58300781,0.6271972650000001,0.5000486959951276,0.5000244479612966,0.49998401226045297,59.7,21.9,1.8
0.03662109500000003,0.5441894549999999,0.271484375,0.5001729341163381,0.4999493720999234,0.5001834594116588,-7.95,29.4,15.75,0.23681640499999998,0.5607910150000001,0.947753905,0.49997974885742263,0.5000721447554275,0.5000111248159187,90.3,2.4,70.65,0.013671875,0.5778808599999999,0.6184082049999999,0.5000510275804753,0.5000403690292663,0.4999900076409665,59.7,21.9,1.8
0.05590820500000001,0.548828125,0.275146485,0.5001949173236652,0.4999419778380144,0.5002131033926716,-7.95,29.4,15.75,0.254882815,0.525878905,0.8981933599999999,0.4999636278619872,0.5000675482563095,0.49999553675677033,91.8,2.4,70.35,0.014648439999999993,0.568847655,0.6198730450000001,0.5000162542513238,0.5000308430222089,0.4999825467074801,60.0,20.85,0.75
0.06958008000000002,0.56591797,0.28173828,0.500149685283504,0.49994504211258206,0.5001902542402362,-9.3,28.65,16.5,0.25439453,0.5588378900000001,0.94873047,0.49997868298484843,0.500086866782201,0.5000143889306857,90.3,1.65,69.9,0.01440429499999999,0.560058595,0.62158203,0.4999831462280781,0.500033441032067,0.49997495251810525,60.0,20.85,0.75
0.06591797000000002,0.5808105450000001,0.291503905,0.5001993805668948,0.49993991267717697,0.5002186990927864,-7.2,28.95,17.25,0.23583984500000002,0.5224609400000001,0.92675781,0.5000486294108166,0.5000249808975838,0.49999153977825034,91.05,1.95,70.65,0.011962890000000016,0.5520019549999999,0.619628905,0.49999886754311484,0.5000124571130031,0.4999694234023014,60.0,20.85,2.85
0.06372070500000002,0.6003417950000001,0.282714845,0.5001620092278852,0.49993105286229506,0.5001900544000368,-10.05,28.95,17.85,0.22216797000000002,0.5217285150000001,0.91064453,0.4999832128996555,0.500042167678327,0.499991339938051,89.25,2.7,70.65,0.014160154999999975,0.5427246099999999,0.6228027349999999,0.4999880091517065,0.5000468307617559,0.4999814808349059,60.6,21.75,2.7
0.07275390499999998,0.600585935,0.29199219,0.5001279020036428,0.4999831462280781,0.5001649402465647,-10.05,28.95,17.85,0.22363281499999998,0.5383300799999999,0.951171875,0.5000090597423477,0.49999993341568905,0.49997242109255813,89.85,1.8,69.0,0.001953125,0.5339355450000001,0.61669922,0.5000173200366316,0.5000136562414658,0.49998960796056774,59.1,20.25,1.65
0.07495116999999998,0.6140136700000001,0.294677735,0.5001468208491356,0.49997428641319624,0.5001348966724196,-8.25,30.15,15.75,0.209228515,0.51953125,0.90966797,0.5000035306265439,0.4999755520387033,0.49996975649838915,89.85,1.8,69.0,0.012695314999999993,0.5322265650000001,0.6193847650000001,0.50001945178178,0.499993271843,0.4999876761428852,58.8,21.45,1.65
0.07470702999999998,0.6330566400000001,0.28466797,0.5001009227040655,0.5000017319774832,0.5001151783788628,-9.3,28.65,16.8,0.21191406499999998,0.5227050799999999,0.90576172,0.5000088599021484,0.500006728157,0.4999503047166092,89.85,1.05,70.05,0.013916015000000016,0.52734375,0.6203613299999999,0.5000230489926347,0.5000433001352121,0.49997655132696656,59.25,20.85,2.85
0.06469726500000002,0.62988281,0.28100586,0.5000457648891817,0.5000319754790941,0.5000343736487528,-9.3,29.7,16.2,0.21484375,0.5227050799999999,0.91894531,0.5000115910806283,0.4999760849749904,0.49991546480314675,90.45,1.8,70.05,0.008056640000000016,0.5280761700000001,0.6237792950000001,0.5000057289560033,0.5000079272854626,0.5000110582316077,59.25,21.9,1.8
0.056640625,0.6354980450000001,0.275634765,0.5000456983048708,0.5000074609334864,0.49996729174441945,-9.0,28.2,16.2,0.21215820500000002,0.5217285150000001,0.92675781,0.4999907404174529,0.500005196019716,0.4999192618542009,90.45,3.0,69.75,0.017578125,0.5305175799999999,0.63623047,0.5000323085751819,0.5000017319774832,0.49998261329179106,59.25,21.9,1.8
0.05493164000000002,0.6257324200000001,0.2734375,0.4999962029489458,0.5000241148652089,0.49992892111714665,-9.0,28.2,16.2,0.22998047000000002,0.5280761700000001,0.92578125,0.5000096592629458,0.49999247239493616,0.4999120673452248,91.35,2.7,70.35,0.014648439999999993,0.5341796900000001,0.6389160150000001,0.5000315757986954,0.5000439663273876,0.49997908266524715,59.25,21.9,1.8
0.05981445500000001,0.60986328,0.279052735,0.4999774839436523,0.5000452986244721,0.499857575809783,-9.0,29.7,15.75,0.22216797000000002,0.5263671900000001,0.9284667950000001,0.500010791719831,0.5000077274452632,0.49993065318189633,89.85,1.05,69.75,0.006591794999999991,0.533691405,0.626953125,0.5000415681577288,0.5000397029243573,0.4999822802829697,60.0,22.35,3.9
0.06127929499999999,0.5812988299999999,0.28051758,0.4999647603188724,0.500018052813118,0.49983739125151666,-9.15,29.85,16.05,0.22265625,0.5202636700000001,0.9362792950000001,0.5000083269658613,0.4999861439183349,0.499915131707059,90.0,1.95,70.35,0.009277345000000025,0.540527345,0.6262207049999999,0.5000513606765631,0.49999786834211807,0.4999890750242807,57.6,22.5,2.4
0.06518554499999998,0.552734375,0.28808594,0.4999533024068659,0.5000286446927495,0.49980321744296324,-10.05,28.2,16.8,0.22119140499999998,0.524902345,0.9265136700000001,0.500005262604027,0.4999844785251626,0.49989548008507967,90.0,1.95,70.35,0.012695314999999993,0.5505371099999999,0.643066405,0.5000535589187559,0.500060087322823,0.4999713553072504,60.3,20.1,2.25
0.05615234500000003,0.5275878900000001,0.286132815,0.4999600972354434,0.5000330413516683,0.49978776263970326,-10.05,28.2,16.8,0.224365235,0.5256347650000001,0.9309082049999999,0.49998507813302717,0.49999420445968584,0.499932518415268,92.1,1.95,71.4,0.0029296899999999935,0.5461425799999999,0.6359863299999999,0.5000388368919825,0.5000427006146141,0.4999954701724594,59.4,21.0,2.1
0.04345702999999997,0.50732422,0.287109375,0.5000161875797464,0.5000110582316077,0.4998506478125837,-8.25,29.7,15.15,0.22680664,0.525878905,0.9328613299999999,0.499984678365362,0.5000047963393174,0.49993638205063307,90.15,1.05,69.0,0.009765625,0.552246095,0.63769531,0.5000329080957798,0.500040102604756,0.49996515999927105,60.3,20.1,1.2
0.04003906499999999,0.49926758,0.27636719,0.5000252473220941,0.500035506105638,0.4998387902201786,-8.4,28.8,15.0,0.21997070500000002,0.53173828,0.9323730450000001,0.49998814240759487,0.49998534455753746,0.4999152649629474,90.9,1.5,71.55,0.00854491999999999,0.544921875,0.6428222650000001,0.5000480964745295,0.5000624854924818,0.4999547679598389,58.95,19.8,0.45
0.037109375,0.49975586,0.26220703,0.50007007959459,0.5000195849504019,0.49992758882006216,-9.9,28.05,16.05,0.22387695500000002,0.5280761700000001,0.9375,0.49999746857445293,0.5000011990411961,0.49994057886935245,90.9,1.5,71.55,0.0017089849999999843,0.5458984400000001,0.6286621099999999,0.5000211171749521,0.5000411684773302,0.4999816140907943,58.95,19.8,0.45
0.025878904999999976,0.49926758,0.26953125,0.5001141791778662,0.4999961362773684,0.5000103920394322,-7.65,28.5,16.05,0.22314452999999998,0.5270996099999999,0.931640625,0.4999746194220175,0.4999764180710781,0.4999359823702344,91.05,2.4,70.35,0.017333984999999986,0.54736328,0.635253905,0.5000385704674721,0.5000129900492903,0.5000064617324896,60.3,21.6,0.75
0.030273439999999995,0.502685545,0.27294922,0.500171135554544,0.49995663319321043,0.5000158544836586,-7.65,28.5,16.05,0.22705077999999998,0.520996095,0.9348144549999999,0.49998261329179106,0.49998381242025364,0.49992798850046083,91.95,2.25,69.75,0.012207029999999975,0.552246095,0.6350097650000001,0.5000518269412727,0.5000327749271579,0.499977950208362,60.3,21.6,0.75
0.044921875,0.5236816400000001,0.274414065,0.5001613430357098,0.49997382006122004,0.5000693468181037,-8.1,28.5,16.35,0.228271485,0.524902345,0.92675781,0.49996695864833174,0.4999964027891452,0.49992712255535254,91.95,2.25,69.75,0.009765625,0.54736328,0.6257324200000001,0.5000595543865359,0.5000257802583812,0.49999573659696966,60.3,20.1,1.5
0.04833984500000003,0.53955078,0.287109375,0.5001700696819698,0.4999565000245885,0.5001312327899874,-7.65,28.05,16.35,0.22509765499999998,0.5173339849999999,0.932617185,0.4999889417683923,0.49998361258005425,0.4999316523828931,91.35,1.65,70.35,0.01879883000000001,0.545410155,0.63330078,0.5000087932305709,0.5000196516219793,0.500002664594169,58.8,22.2,0.6
0.06787109500000002,0.5607910150000001,0.299072265,0.5001727342761387,0.4999774839436523,0.500116244251437,-7.65,27.3,15.6,0.23144531499999998,0.5080566400000001,0.935546875,0.49999946706371295,0.4999884755036826,0.49992479097000475,90.15,1.5,71.25,0.02075195500000001,0.5441894549999999,0.6232910150000001,0.5000413683175295,0.500024780970118,0.49998887518408136,60.0,20.1,1.2
0.07104491999999998,0.5861816400000001,0.29760742,0.5001887886872632,0.4999642940541627,0.5001073177649777,-7.65,27.3,15.6,0.23339843999999998,0.50732422,0.9296875,0.5000225160563477,0.4999600972354434,0.4999257235866905,89.4,0.75,71.85,0.01245116999999999,0.544433595,0.6296386700000001,0.5000254471622935,0.500018052813118,0.49997488593379424,61.05,21.15,2.55
0.07324219,0.595214845,0.29980469,0.5001769310948582,0.49996662555224397,0.5001095160944371,-8.25,27.15,16.5,0.232666015,0.5119628900000001,0.927246095,0.5000384372115838,0.4999742197416188,0.49992146018366024,89.4,0.75,71.85,0.015625,0.5427246099999999,0.6257324200000001,0.5000488292510159,0.5000097925188342,0.4999737534769091,60.9,21.75,2.1
0.07202148499999998,0.6047363299999999,0.294433595,0.5001491523472169,0.4999766179112775,0.5000724111799378,-8.7,26.55,16.05,0.236572265,0.510498045,0.91894531,0.5000402358606444,0.49997335370924395,0.4999079371980829,90.0,1.95,70.65,0.011474609999999984,0.5432128900000001,0.62207031,0.5000660827033365,0.500002131657882,0.4999994004794019,61.05,21.15,1.2
0.06469726500000002,0.606933595,0.298339845,0.5001245712172983,0.5000013989686619,0.5000326416712696,-8.4,27.3,16.05,0.22924804499999998,0.5192871099999999,0.9274902349999999,0.5000383039556954,0.499986610270311,0.4998894847045661,91.05,0.15,70.95,0.02221679499999999,0.533691405,0.6267089849999999,0.500062751916992,0.49999593643716905,0.5000262465230909,61.05,21.15,1.2
0.05883789000000002,0.6047363299999999,0.28149414,0.5001119142640957,0.5000204509827767,0.49999960031960133,-9.6,27.45,16.8,0.23095702999999998,0.50732422,0.92138672,0.5000215168553509,0.49999540350088195,0.499906338476488,90.3,0.45,70.35,0.015380859999999984,0.53125,0.6223144549999999,0.5000689471377049,0.49998674352619943,0.4999962695332568,59.1,20.25,2.7
0.05346679499999999,0.6018066400000001,0.287353515,0.5000611531081308,0.5000215834396619,0.49992465771411637,-9.6,27.45,16.8,0.23339843999999998,0.515625,0.9294433599999999,0.5000449655283844,0.49999094025765234,0.49988102448281646,91.05,-0.15,70.35,0.025146484999999986,0.5295410150000001,0.62597656,0.5000574226413875,0.4999868101105104,0.49998727637522006,60.9,20.25,1.35
0.04736327999999997,0.5886230450000001,0.279785155,0.5000503613882998,0.5000341738085534,0.49991086830402864,-7.65,27.75,16.65,0.22534179499999998,0.5290527349999999,0.92578125,0.5000480964745295,0.49996216230901436,0.4998491155880334,90.45,0.75,70.5,0.016113279999999976,0.5290527349999999,0.625,0.5000674150004211,0.500017919644496,0.5000044632432297,60.0,21.6,1.2
0.03833008000000001,0.5803222650000001,0.28125,0.5000408353812424,0.49999573659696966,0.4998548445440366,-9.9,27.3,15.6,0.22558593999999998,0.5241699200000001,0.923339845,0.5000429670391244,0.49998747630268586,0.49986656888055336,90.3,0.15,71.4,0.017578125,0.544433595,0.619140625,0.5000784065604513,0.500034840000729,0.49998274654767944,59.4,21.0,1.05
0.05053710999999998,0.5480957049999999,0.28466797,0.5000078606138851,0.5000084602217496,0.49984085529374955,-8.25,26.7,14.7,0.224853515,0.5266113299999999,0.9216308599999999,0.5000361722978134,0.49998760947130777,0.4998511140772934,90.3,0.15,71.4,0.01684570500000001,0.5397949200000001,0.6164550799999999,0.500104919595319,0.4999938047792871,0.4999736202210207,59.7,19.8,2.85
0.05786133000000001,0.5202636700000001,0.28515625,0.49997961560153426,0.4999855443977368,0.4998213369276586,-8.25,26.7,14.7,0.2265625,0.5280761700000001,0.93066406,0.5000349065850399,0.49998168067510523,0.49984491885658056,90.3,0.15,71.4,0.020019529999999976,0.5554199200000001,0.6354980450000001,0.5000939280352887,0.5000170536121212,0.5000042634030304,59.1,20.25,2.1
0.04956054499999999,0.505371095,0.28979492,0.5000109915600303,0.499980015281933,0.4998433200477192,-8.25,26.7,14.7,0.23046875,0.525390625,0.9270019549999999,0.5000225827279251,0.49997142189156135,0.49986037365984043,90.3,-0.15,70.65,0.010253904999999975,0.5515136700000001,0.6218261700000001,0.5000923292264274,0.5000510275804753,0.5000027312657465,59.1,20.25,2.1
0.04614258000000001,0.49243164,0.28442383,0.5000083269658613,0.5000031309461451,0.4998664357119314,-8.4,27.3,16.65,0.23364258000000002,0.5322265650000001,0.9367675799999999,0.5000080604540845,0.4999614962041053,0.49987069911496174,90.9,0.0,71.55,0.004394529999999975,0.5576171900000001,0.61279297,0.5001094494228596,0.49999527033226004,0.4999680911052169,59.1,20.25,2.1
0.03784179499999999,0.486328125,0.27294922,0.5000518269412727,0.5000029976902568,0.4999042733156506,-8.55,26.7,15.45,0.23583984500000002,0.5197753900000001,0.931640625,0.5000223828877257,0.4999586983540479,0.49987216458066813,91.05,-0.15,71.7,0.015625,0.5524902349999999,0.62548828,0.5000793391771372,0.49999980015980067,0.4999606967560414,58.5,20.85,0.45
0.03613281499999999,0.48535156,0.283203125,0.5000957932686603,0.4999515038450718,0.4999707556993859,-9.3,26.7,16.5,0.23388672000000002,0.5183105450000001,0.932128905,0.5000218499514386,0.49997775036816267,0.4999156646433461,91.35,0.15,70.65,0.016601564999999995,0.5554199200000001,0.626953125,0.5000818706026843,0.500024714385807,0.5000031975304562,58.5,20.85,0.45
0.03247070500000001,0.494140625,0.282958985,0.5000967924696571,0.4999739533171085,0.5000033973706555,-8.1,27.0,16.35,0.23168945500000002,0.506835935,0.931640625,0.5000409686371309,0.49997475267790586,0.49989448088408295,91.2,1.5,70.5,0.017822265000000014,0.56201172,0.625,0.5000650835023398,0.5000563568560799,0.4999563001843892,60.9,19.2,1.05
0.03564452999999997,0.509765625,0.28881836,0.5001167106034132,0.49999054057725356,0.5000404357008437,-8.1,27.0,16.35,0.22900390499999998,0.51098633,0.9348144549999999,0.500008660061949,0.4999812144103955,0.49989814467924876,90.3,-0.15,72.75,0.020507814999999995,0.560058595,0.6213378900000001,0.5000458315607592,0.5000692802337926,0.49998141425059495,59.85,20.7,1.05
0.04003906499999999,0.5256347650000001,0.291259765,0.5001247710574976,0.4999495053558118,0.5000580221619856,-8.4,26.25,15.3,0.236572265,0.509277345,0.93457031,0.5000300436614116,0.49997668449558846,0.4999255237464912,90.3,-0.15,72.75,0.009277345000000025,0.5617675799999999,0.6257324200000001,0.5000651500866508,0.5000391699880702,0.4999503047166092,59.7,21.6,-0.15
0.06689452999999998,0.5197753900000001,0.302001955,0.5000844020282313,0.4999868101105104,0.5000640842140766,-7.65,26.55,15.0,0.22705077999999998,0.5197753900000001,0.9411621099999999,0.5000333077761786,0.49996502683064914,0.4999073376774848,90.3,-1.2,70.65,0.004150390000000016,0.5656738299999999,0.612304685,0.5000623522365933,0.5000293108849251,0.49998694336639876,60.9,20.7,2.4
0.06152343999999999,0.5500488299999999,0.302246095,0.5000695467455695,0.49997768378385166,0.5000291110447257,-7.95,26.7,16.5,0.23730468999999998,0.5158691400000001,0.9294433599999999,0.5000490290912153,0.49994803980283886,0.49990693799708613,90.3,-1.65,70.65,0.0012207050000000094,0.56982422,0.610839845,0.5000857343253159,0.5000228491524354,0.4999762182308788,60.0,20.85,1.8
0.06225585999999998,0.541503905,0.30859375,0.5000794724330255,0.5000119241767161,0.5000363721380128,-7.95,26.7,16.5,0.22216797000000002,0.514160155,0.94482422,0.5000750091897959,0.49994057886935245,0.49988022512201913,90.45,-1.05,71.55,0.019287109999999986,0.55908203,0.61816406,0.5000352396811276,0.5000415015734179,0.5000023315853478,59.25,20.1,0.75
0.04736327999999997,0.53857422,0.2890625,0.5000808047301101,0.5000215168553509,0.5000219831200605,-7.35,26.55,16.05,0.24243164,0.5197753900000001,0.9333496099999999,0.5000703461063668,0.49997202141215946,0.49992905437303503,90.45,-1.05,71.55,0.030761720000000024,0.548828125,0.61279297,0.5000665489680463,0.5000319088947831,0.5000173867082089,59.25,20.1,0.75
0.04467773499999998,0.5417480450000001,0.30029297,0.5000375045948979,0.5000285115241276,0.49997768378385166,-8.25,26.1,16.8,0.248535155,0.5197753900000001,0.9294433599999999,0.5000723445956269,0.4999849448771388,0.49989894412731256,90.15,-1.8,71.25,0.025878904999999976,0.54638672,0.619628905,0.5000646171503637,0.5000397695086682,0.4999818139309936,61.05,21.15,1.5
0.04565429499999999,0.5380859400000001,0.3046875,0.500024780970118,0.5000211837592632,0.4999862771742233,-7.65,26.25,17.1,0.25732422,0.5163574200000001,0.9294433599999999,0.5000489625069043,0.5000077274452632,0.49989268223502226,90.15,-0.75,72.9,0.0234375,0.5393066400000001,0.619140625,0.5000590214502488,0.5000526929736476,0.5000339073840431,58.5,20.55,0.45
0.05200195500000001,0.53466797,0.295410155,0.4999936049390878,0.5000636845336779,0.4999251906504035,-9.0,24.9,16.2,0.21606445500000002,0.5244140650000001,0.912109375,0.5000531592383572,0.5000182526533173,0.4999000099126203,90.15,-0.75,72.9,0.013183595000000025,0.5437011700000001,0.62109375,0.5000453652087831,0.5000394364125805,0.5000040635628309,59.4,19.95,0.6
0.05029297000000003,0.5344238299999999,0.287597655,0.49997108879547364,0.5000570895452998,0.4999092694951674,-9.0,24.9,16.2,0.236083985,0.5305175799999999,0.923339845,0.5000093928384355,0.49998414551634135,0.4999221263758357,90.45,-0.75,70.5,0.013916015000000016,0.5390625,0.6086425799999999,0.5000411018057528,0.5000132564738006,0.4999662924561562,61.05,20.55,0.15
0.05053710999999998,0.53173828,0.286376955,0.5000113912404289,0.5000564900247018,0.4999862105899123,-8.4,25.8,15.6,0.22802734500000002,0.52783203,0.9157714849999999,0.49998587749382456,0.4999928054910239,0.499897145478252,89.25,-0.15,70.65,0.013183595000000025,0.548339845,0.61425781,0.5000844686125423,0.5000067948285775,0.4999883422477942,60.9,20.25,2.1
0.05541991999999999,0.51098633,0.28979492,0.49997841656033815,0.4999906071615645,0.49993151912700473,-8.7,26.55,13.95,0.22338866999999998,0.53955078,0.9260253900000001,0.5000271125554657,0.5000125236973141,0.5000285781084386,91.65,-1.5,70.8,0.015136720000000025,0.5524902349999999,0.611328125,0.5000551577276172,0.4999462411537783,0.49995303598235563,59.1,19.95,1.05
0.04589843999999999,0.5148925799999999,0.287841795,0.4999856110693143,0.5000614196199076,0.49989101684185006,-6.9,24.9,15.75,0.22778320500000002,0.5329589849999999,0.9401855450000001,0.5000838024203668,0.4999904739929426,0.49995396859904145,91.65,-1.5,70.8,0.015136720000000025,0.5607910150000001,0.614746095,0.5000089264864593,0.4999852779732265,0.4999209272473732,59.1,19.95,1.05
0.05615234500000003,0.50830078,0.279541015,0.4999788162407368,0.5000383039556954,0.5000306431820095,-6.9,24.9,15.75,0.260498045,0.52001953,0.947265625,0.49999660262934453,0.5000377710194083,0.499955234311815,91.05,-0.9,70.65,0.013183595000000025,0.5666503900000001,0.616210935,0.5000639509581881,0.5000355727772153,0.49982293564925345,60.6,19.2,0.6
0.05444335999999998,0.5126953150000001,0.26904297,0.50000199848926,0.5000795390173365,0.499949172259724,-8.55,25.65,15.45,0.19482422000000002,0.51098633,0.9274902349999999,0.4999860773340239,0.5000306431820095,0.49996142953252787,91.65,-2.55,71.55,0.017822265000000014,0.5615234400000001,0.622558595,0.5000237151848103,0.5000403690292663,0.49989921055182296,60.6,19.2,0.6
0.03515625,0.5041503900000001,0.26489258,0.49996436063847366,0.5000835359958565,0.49993778101929504,-8.7,26.25,15.6,0.234375,0.5183105450000001,0.95263672,0.49996642571204464,0.5000472971137321,0.499977950208362,91.65,-2.55,71.55,0.007080080000000009,0.5656738299999999,0.623535155,0.500006062052091,0.5000015988088613,0.5000304433418102,60.3,18.6,0.15
0.03417968999999999,0.5078125,0.27734375,0.5000053292756045,0.5000297771496347,0.49997355363670976,-8.25,25.65,16.5,0.22949218999999998,0.5148925799999999,0.9587402349999999,0.49996782468070655,0.5000062618922902,0.4999907404174529,90.45,-0.75,70.8,0.00903320500000001,0.564453125,0.62988281,0.4999938713635981,0.500062285565016,0.4999281883406603,58.95,19.8,1.8
0.03491210999999998,0.508789065,0.27392578,0.4999888085997704,0.5000223828877257,0.49999020748116585,-7.35,25.05,16.35,0.23876952999999998,0.5222167950000001,0.951660155,0.49993045325443053,0.5000053958599154,0.4999961362773684,90.9,-2.25,72.3,0.0034179700000000254,0.5734863299999999,0.6125488299999999,0.4999642940541627,0.5000397695086682,0.49992559033080214,59.85,19.2,1.35
0.0390625,0.49853515499999995,0.26611328,0.4999422442625247,0.5000283782682392,0.4999754188700814,-7.35,25.05,16.35,0.24365234500000002,0.5187988299999999,0.942871095,0.49994737369792985,0.4999632947658995,0.5000099256874561,90.15,-2.25,70.8,0.004394529999999975,0.572753905,0.6369628900000001,0.49993098619071763,0.5000033307863445,0.4999963361175678,60.75,21.15,1.5
0.02661133000000001,0.494140625,0.26635742,0.5000001998401994,0.49995916461875756,0.49999673579796644,-9.0,26.4,14.7,0.240478515,0.5168457049999999,0.9113769549999999,0.49999173970571614,0.499947173770464,0.5000120574326045,90.15,-2.25,70.8,0.018554689999999995,0.5556640650000001,0.6281738299999999,0.49992845485243703,0.5000101256149219,0.49994530853709246,60.75,21.15,1.5
0.03564452999999997,0.505126955,0.27246094,0.5000281784280399,0.4999854111418484,0.5000154548032599,-8.7,27.0,14.55,0.248046875,0.5144042950000001,0.903808595,0.5000031309461451,0.499973287124933,0.4999927389067129,90.9,-1.05,71.55,0.017822265000000014,0.552246095,0.6071777349999999,0.4999401125173763,0.5000232488328341,0.499997335405831,60.6,21.0,0.3
0.05590820500000001,0.5134277349999999,0.295654295,0.5000219831200605,0.499971222051362,0.5000448989440734,-7.95,26.4,15.45,0.23291015499999998,0.50341797,0.91357422,0.5000579555776746,0.4999997335754897,0.5000217832798612,91.05,-1.95,70.95,0.017333984999999986,0.53857422,0.6125488299999999,0.49993258499957893,0.5000282450123509,0.5000140559218645,58.95,20.85,1.2
0.07666015499999998,0.524902345,0.29760742,0.5000377044350973,0.49997548545439235,0.5000450987842727,-7.95,26.1,14.7,0.22680664,0.49682617,0.9206542950000001,0.4999584984265821,0.5000249142260064,0.5000320421506715,91.95,-1.5,71.25,0.011962890000000016,0.5368652349999999,0.599121095,0.49994863932343697,0.49998887518408136,0.49997994869762197,58.95,20.85,1.2
0.08349609500000002,0.5358886700000001,0.287353515,0.5000013322970845,0.4999940712037974,0.500012790209091,-6.6,24.3,15.3,0.21875,0.5017089849999999,0.93798828,0.4999640275423859,0.4999982680225168,0.49997355363670976,90.0,-1.95,71.4,0.008789064999999993,0.5280761700000001,0.600097655,0.4999499717077879,0.49998867534388197,0.5000028644343684,60.3,21.15,1.2
0.06689452999999998,0.540527345,0.278320315,0.5000073943491754,0.5000031309461451,0.49999460414008456,-7.5,24.6,14.1,0.220458985,0.50048828,0.927734375,0.49999680246954387,0.5000190521013812,0.4999775505279633,90.75,-1.2,70.65,0.008056640000000016,0.5419921900000001,0.603027345,0.49994577488906855,0.4999864770144226,0.49999473739597294,60.15,18.45,1.05
0.04785156499999999,0.5241699200000001,0.26464844,0.49999606969305743,0.5000148552826619,0.5000029976902568,-8.4,26.55,16.35,0.22778320500000002,0.50341797,0.936035155,0.49994057886935245,0.5000233155044115,0.5000403690292663,89.85,-2.25,71.55,0.008300779999999975,0.5388183599999999,0.6130371099999999,0.49990680474119775,0.4999223262160351,0.499977950208362,59.7,19.05,1.2
0.03686523499999998,0.51220703,0.260253905,0.4999513040048724,0.5000433001352121,0.4999555007363253,-8.4,25.5,14.55,0.21899414,0.5148925799999999,0.93310547,0.4999658261914466,0.4999928054910239,0.5000460979852696,89.85,-2.25,71.55,0.007324220000000025,0.54345703,0.611328125,0.49995663319321043,0.49994783996263953,0.4999717549876492,59.85,20.7,1.35
0.03955077999999997,0.5095214849999999,0.259765625,0.49996515999927105,0.5000292443006141,0.49999207271453744,-8.4,25.5,14.55,0.22802734500000002,0.5146484400000001,0.9289550799999999,0.4999825467074801,0.5000234486730334,0.5000257135868038,91.05,-2.4,70.35,0.017333984999999986,0.5544433599999999,0.611816405,0.4998789594092456,0.49996869062581495,0.4999922059704259,59.25,18.6,0.75
0.04443359500000003,0.51074219,0.267089845,0.49998927486448,0.49998361258005425,0.5000029976902568,-8.4,25.8,16.05,0.21948241999999998,0.5078125,0.91796875,0.4999780834642504,0.4999775505279633,0.500015987739547,90.3,-0.45,70.35,0.0031738300000000094,0.5480957049999999,0.61425781,0.4999062718049106,0.4999417113262376,0.4999898078007671,60.75,18.3,1.5
0.05371093999999999,0.513183595,0.27758789,0.49996955665818976,0.5000126569532025,0.49997908266524715,-8.4,25.8,16.65,0.23364258000000002,0.50317383,0.9318847650000001,0.4999737534769091,0.49998887518408136,0.5000501615481006,91.05,-0.9,70.95,0.01831054499999999,0.54638672,0.6301269549999999,0.49990134229697125,0.4999515038450718,0.5000039969785199,60.75,18.3,1.5
0.07080077999999998,0.5095214849999999,0.287597655,0.4999644938943621,0.5000099923590335,0.4999522366215582,-9.6,25.35,15.75,0.23950195500000002,0.50341797,0.9377441400000001,0.4999884755036826,0.4999860773340239,0.5000203843984657,91.05,-0.9,70.95,0.016601564999999995,0.5485839849999999,0.6237792950000001,0.49993937982815634,0.49997994869762197,0.4999493720999234,61.05,20.55,2.25
0.06933594,0.5126953150000001,0.287109375,0.4999821470270813,0.5000045298275406,0.49996715848853107,-7.65,25.05,15.6,0.232666015,0.49926758,0.9396972650000001,0.4999856776536252,0.4999968690538548,0.5000329747673573,91.05,-0.9,70.95,0.010742189999999993,0.537109375,0.6159667950000001,0.49990034300870806,0.5000165872601451,0.5000036638824322,61.05,20.55,2.25
0.05639648499999998,0.5158691400000001,0.28076172,0.4999868101105104,0.5000234486730334,0.4999781500485614,-7.65,25.05,15.6,0.23461914,0.506347655,0.94628906,0.4999503047166092,0.5000064617324896,0.5000624188209043,90.9,-2.25,71.55,0.002197265000000016,0.5478515650000001,0.61816406,0.49988475494955975,0.5000068614128884,0.4999806148897975,60.3,19.05,1.8
