IMU1_AccX,IMU1_AccY,IMU1_AccZ,IMU1_GyrX,IMU1_GyrY,IMU1_GyrZ,IMU1_MagX,IMU1_MagY,IMU1_MagZ,IMU2_AccX,IMU2_AccY,IMU2_AccZ,IMU2_GyrX,IMU2_GyrY,IMU2_GyrZ,IMU2_MagX,IMU2_MagY,IMU2_MagZ,IMU3_AccX,IMU3_AccY,IMU3_AccZ,IMU3_GyrX,IMU3_GyrY,IMU3_GyrZ,IMU3_MagX,IMU3_MagY,IMU3_MagZ
0.04345702999999997,0.544921875,0.306884765,0.49995863168247046,0.500035372937016,0.49997775036816267,-6.15,27.9,18.6,0.3125,0.536621095,0.966796875,0.49999173970571614,0.49998534455753746,0.4999906071615645,86.25,-0.3,77.55,0.012695314999999993,0.57421875,0.5302734400000001,0.5000434333911005,0.5000370382429218,0.4999798154417336,54.45,18.75,-9.75
0.056640625,0.5390625,0.309570315,0.4999782167201388,0.5000257135868038,0.49999293874691225,-6.15,27.9,18.6,0.30883789,0.5397949200000001,0.9558105450000001,0.4999897412164561,0.4999958031812807,0.499997401990142,87.15,0.9,77.1,0.008300779999999975,0.5539550799999999,0.5310058599999999,0.5000076607736857,0.5000136562414658,0.4999642273825852,54.45,18.75,-9.75
0.05810547000000003,0.541503905,0.3046875,0.49996609261595687,0.5000044632432297,0.4999810811545071,-6.3,27.75,17.1,0.306396485,0.5256347650000001,0.95019531,0.49999606969305743,0.5000071945089761,0.5000283115966618,87.15,0.9,77.1,0.005859375,0.5402832049999999,0.5231933599999999,0.5000101256149219,0.5000101256149219,0.49997215466804784,56.1,19.8,-8.25
0.056640625,0.5393066400000001,0.30395508,0.49995916461875756,0.5000293108849251,0.4999654930953588,-7.2,26.7,17.85,0.305908205,0.5146484400000001,0.95751953,0.49997288744453433,0.5000043966589187,0.5000058622118916,86.85,-0.3,78.0,0.01635741999999999,0.5185546900000001,0.5236816400000001,0.5000227825681245,0.4999880758232839,0.499997335405831,54.3,19.8,-9.6
0.05126952999999997,0.5419921900000001,0.298583985,0.4999859440781355,0.5000035972108549,0.500005196019716,-6.45,28.65,17.25,0.301757815,0.506347655,0.9567871099999999,0.5000013989686619,0.5000162542513238,0.49999140660962843,86.25,0.3,76.95,0.005371095000000025,0.513183595,0.5324707049999999,0.5000393698282696,0.49998927486448,0.49999094025765234,55.8,18.75,-10.5
0.041015625,0.5397949200000001,0.294677735,0.49997561871028073,0.5000208506631754,0.49998534455753746,-6.9,26.4,17.55,0.30053711,0.493896485,0.9675292950000001,0.49998780931150716,0.5000270459711548,0.5000171868680097,86.25,0.3,76.95,-0.00048827999999997475,0.491210935,0.5227050799999999,0.5000389701478708,0.49996182921292653,0.5000139226659761,56.1,21.15,-10.95
0.044921875,0.536621095,0.302001955,0.49998334606827743,0.5000117910080942,0.49998034837802074,-6.9,26.4,17.55,0.30541992,0.4921875,0.9636230450000001,0.49997668449558846,0.5000141890904864,0.5000084602217496,85.05,0.3,77.25,0.0007324199999999905,0.49194336,0.5266113299999999,0.5000539586864211,0.49994517536847055,0.4999972021499426,54.75,18.0,-9.45
0.06103515499999997,0.5341796900000001,0.302734375,0.5000075941893748,0.5000023981696587,0.49999540350088195,-6.6,27.75,18.45,0.299072265,0.49291992,0.96875,0.500013389729689,0.499986676854622,0.4999795490172233,85.8,0.75,77.25,0.00048827999999997475,0.49072265499999995,0.5290527349999999,0.5000618858846172,0.49995983081093304,0.5000321753192934,56.1,18.3,-9.9
0.04565429499999999,0.5407714849999999,0.30004883,0.499993405011622,0.4999992672235135,0.4999858109095136,-7.2,27.15,16.5,0.307128905,0.5002441400000001,0.981933595,0.4999771508475646,0.49998900843996974,0.4999956700126587,85.05,0.0,76.95,-0.006347654999999975,0.494873045,0.5314941400000001,0.5000676148406205,0.4999446424321834,0.5000097258472568,56.1,18.3,-9.9
0.04907226500000002,0.5390625,0.30004883,0.49999140660962843,0.5000057955403142,0.4999904073213652,-5.55,27.0,17.1,0.30078125,0.498779295,0.9689941400000001,0.4999888085997704,0.49996642571204464,0.49997721743187556,85.05,0.0,76.95,0.0014648450000000254,0.5114746099999999,0.502685545,0.500084268772343,0.49999367152339874,0.4999908736733413,55.2,18.45,-9.75
0.04296875,0.5305175799999999,0.294433595,0.500011324656118,0.4999642940541627,0.5000519601971611,-5.55,27.0,17.1,0.287353515,0.494140625,0.9572753900000001,0.49998634375853424,0.5000041968187193,0.49996975649838915,86.4,1.2,77.4,-0.006103515000000016,0.5183105450000001,0.5256347650000001,0.5000647504062521,0.4999696899140782,0.5000012657127736,55.2,18.45,-9.75
0.03662109500000003,0.533203125,0.287109375,0.5000055957001148,0.49999573659696966,0.5000140559218645,-7.5,27.9,17.85,0.274414065,0.48681640499999995,0.970214845,0.4999570329608756,0.5000077274452632,0.499970689115075,85.5,0.75,76.95,-0.014892579999999952,0.5251464849999999,0.510253905,0.5000724111799378,0.4999822136113923,0.4999949372361723,56.25,18.75,-9.0
0.041015625,0.5305175799999999,0.286865235,0.4999928054910239,0.5000015988088613,0.4999940712037974,-6.6,27.75,17.4,0.291503905,0.48901367,0.9558105450000001,0.4999876761428852,0.4999764180710781,0.49997648465538913,85.5,0.75,76.95,-0.021240234999999986,0.520996095,0.501220705,0.500124970897697,0.49999260565082454,0.49999680246954387,54.9,19.35,-10.35
0.04418945500000001,0.5361328150000001,0.278564455,0.5000173867082089,0.49998068147410846,0.5000198514621786,-7.05,26.55,17.4,0.321777345,0.52294922,0.939941405,0.4999617626286156,0.5000576891531644,0.49996902372190266,86.25,-0.3,76.5,-0.014160155000000032,0.5178222650000001,0.5056152349999999,0.5000849348772519,0.5000412350616411,0.49997768378385166,56.1,18.6,-10.35
0.03808593999999999,0.5314941400000001,0.27807617,0.4999925390665136,0.5000013322970845,0.5000001332558884,-6.0,28.5,17.4,0.29663086,0.416259765,0.96142578,0.5000624854924818,0.499964627062984,0.499933184520177,85.05,-0.75,76.5,-0.02050781500000005,0.5205078150000001,0.5185546900000001,0.5000766745829681,0.5000679479367082,0.500009326166858,55.5,18.75,-10.05
0.041015625,0.5266113299999999,0.28857422,0.5000041968187193,0.5000111914002296,0.5000075941893748,-6.0,28.5,17.4,0.25756836,0.45776367,0.963378905,0.499866302456043,0.500056023759992,0.4999964027891452,87.3,0.3,78.0,-0.025390625,0.5363769549999999,0.5246582049999999,0.500076208230992,0.5000606868434211,0.4999890750242807,55.5,18.75,-10.05
0.03588866999999999,0.5280761700000001,0.283691405,0.5000558239197928,0.49997275418864584,0.5000116577522058,-6.6,28.8,17.7,0.260498045,0.486572265,0.9777832049999999,0.5000317756388947,0.5000249808975838,0.49991613090805576,87.3,0.3,78.0,-0.021484375,0.520996095,0.51953125,0.5000799387850017,0.5000227825681245,0.49999960031960133,55.5,18.75,-10.05
0.04003906499999999,0.5251464849999999,0.290771485,0.5000664157994243,0.49997415315730787,0.5000020650735709,-6.45,26.7,15.75,0.299560545,0.509033205,0.98535156,0.49996535983947044,0.5000158544836586,0.4999702894346762,85.5,0.3,78.0,-0.007080080000000009,0.5158691400000001,0.525878905,0.5000814709222855,0.4999992672235135,0.49999853444702713,54.75,18.45,-9.45
0.03393554499999999,0.5178222650000001,0.295654295,0.5000551577276172,0.4999728208602233,0.499984678365362,-5.55,26.55,17.4,0.309814455,0.48193359500000005,0.967285155,0.5000619525561947,0.4999680245209059,0.49992638977886605,85.05,0.0,78.0,-0.013183594999999968,0.5266113299999999,0.5397949200000001,0.5001146454425758,0.4999880091517065,0.5000109915600303,54.75,18.45,-9.45
0.03662109500000003,0.5234375,0.29272461,0.5000957932686603,0.49998174734668266,0.49999833460682774,-5.55,26.55,17.4,0.28540039,0.474365235,1.00756836,0.5000167205160335,0.4999723545082472,0.4999141325060622,86.25,0.0,77.55,-0.007324220000000025,0.52685547,0.529296875,0.5000456983048708,0.5000105252953206,0.5000226493122361,55.5,17.7,-9.75
0.03515625,0.517578125,0.301757815,0.5000985245344068,0.4999640942139633,0.4999849448771388,-7.2,27.45,17.85,0.31542969,0.490234375,0.981933595,0.49999114009785167,0.5000127236247799,0.49993778101929504,86.85,-0.3,77.25,-0.011962890000000016,0.5275878900000001,0.5383300799999999,0.5001059854678932,0.4999580321618724,0.50000872664626,55.5,18.0,-11.55
0.03344726500000002,0.5217285150000001,0.31298828,0.5000758752221708,0.49997934917702397,0.4999862771742233,-7.35,27.3,16.65,0.32861328,0.515625,0.96533203,0.5000578889933637,0.49997648465538913,0.4998959464370558,85.5,-0.75,79.35,0.00390625,0.5310058599999999,0.521484375,0.5000670153200223,0.4999567664490988,0.5000023981696587,54.45,16.95,-8.4
0.030761720000000024,0.5168457049999999,0.31201172,0.5001102488709235,0.4999317856387815,0.4999630283413891,-6.6,26.25,18.15,0.31933594,0.501953125,0.96875,0.5000226493122361,0.49996436063847366,0.4999295873093222,85.65,0.45,76.65,-0.00024414000000001578,0.5402832049999999,0.5241699200000001,0.5000713453073636,0.5000117910080942,0.500028711364327,55.2,18.0,-9.45
0.04003906499999999,0.524902345,0.317626955,0.5000883989194849,0.4999367818182983,0.4999870099507097,-6.15,28.95,18.3,0.32080078,0.509277345,0.9631347650000001,0.5000127236247799,0.4999736202210207,0.4999443093360957,85.65,0.45,76.65,0.010009765000000016,0.5361328150000001,0.521972655,0.5000785398163398,0.5000094594227464,0.5000113912404289,55.65,18.6,-9.3
0.04052734500000003,0.5173339849999999,0.32006836,0.5000814042507081,0.49996182921292653,0.49996502683064914,-6.15,28.95,18.3,0.31201172,0.5056152349999999,0.9611816400000001,0.5000158544836586,0.49999553675677033,0.4999435765596092,86.55,0.3,78.3,0.01489258000000001,0.537109375,0.52392578,0.5000846684527417,0.499975885134791,0.5000121240169154,55.65,18.3,-9.6
0.04077148499999998,0.5231933599999999,0.325195315,0.5000957932686603,0.4999397128369776,0.49998501146144975,-7.05,27.75,16.35,0.31591797,0.48852539,0.9572753900000001,0.5000204509827767,0.4999995336480239,0.49994757353812924,86.7,0.45,76.35,0.010009765000000016,0.5236816400000001,0.5158691400000001,0.5001031876178358,0.49996416079827427,0.5000301769172999,55.65,18.3,-9.6
0.04614258000000001,0.5187988299999999,0.32397461,0.5000844686125423,0.4999361156261228,0.4999586983540479,-6.9,27.45,16.8,0.314697265,0.486572265,0.95751953,0.5000163208356349,0.49999920063920256,0.4999432434635215,86.7,0.9,39.0,0.019042970000000024,0.510253905,0.5234375,0.5001102488709235,0.49997368680533166,0.5000195183660909,55.65,19.8,-8.85
0.05102539000000002,0.51123047,0.31933594,0.5000680145210191,0.4999648269904498,0.4999571661294976,-6.3,27.0,16.65,0.305664065,0.493896485,0.96435547,0.5000357726174147,0.4999956033410813,0.4999295873093222,86.7,0.9,77.4,0.01440429499999999,0.50317383,0.5244140650000001,0.5001281684281531,0.500016054323858,0.5000504280598773,55.65,17.85,-8.85
0.05175781499999999,0.509277345,0.31591797,0.5000779402957417,0.49996229556490274,0.4999771508475646,-6.3,27.0,16.65,0.30932617,0.48364258,0.959472655,0.5000375711792089,0.500020117886689,0.4999259900112009,86.7,0.9,77.4,0.006591794999999991,0.506835935,0.5234375,0.50011571131515,0.5000173867082089,0.5000098591031451,56.1,19.05,-9.3
0.04370116999999999,0.50048828,0.313964845,0.5000919295460288,0.4999739533171085,0.49998507813302717,-6.3,27.0,16.65,0.299072265,0.489990235,0.9631347650000001,0.5000335742879554,0.5000141890904864,0.49991013552754227,85.05,-1.8,78.0,0.010253904999999975,0.5119628900000001,0.52783203,0.5001297006527035,0.4999852779732265,0.5000017319774832,56.7,18.3,-9.9
0.04077148499999998,0.501953125,0.31176758,0.5000686807131947,0.5000120574326045,0.4999656929355582,-6.45,27.9,17.85,0.30078125,0.48779297000000005,0.9694824200000001,0.5000308430222089,0.49998188051530457,0.49991493186685965,85.8,0.75,76.5,0.001953125,0.51074219,0.51953125,0.500136228969504,0.49998341273985486,0.5000217832798612,55.65,19.35,-10.35
0.03955077999999997,0.5080566400000001,0.30834961,0.5000794724330255,0.49998900843996974,0.4999796822731117,-5.4,27.45,17.55,0.29370117,0.48583984500000005,0.9606933599999999,0.5000459648166476,0.49999673579796644,0.49989727873414036,85.8,0.75,76.5,0.006347654999999975,0.5231933599999999,0.5231933599999999,0.5001566133679698,0.49998008195351035,0.5000501615481006,54.6,17.85,-9.3
0.04418945500000001,0.5036621099999999,0.310791015,0.5000838690919442,0.49999980015980067,0.4999894081203684,-7.5,27.15,16.8,0.29199219,0.48925781,0.970214845,0.49999753524603036,0.5000119908482935,0.49989774499885,85.8,-1.05,76.95,-0.003662109999999984,0.5263671900000001,0.5295410150000001,0.5001702695221691,0.49996336143747694,0.5000399693488676,54.6,17.85,-9.3
0.04418945500000001,0.51123047,0.305664065,0.500039569668469,0.5000175865484083,0.49998261329179106,-4.65,26.7,16.8,0.29199219,0.5075683599999999,0.971679685,0.49998887518408136,0.5000161209954355,0.49990660490099836,84.9,-0.45,77.4,-0.012207030000000032,0.536621095,0.5256347650000001,0.5001433568069028,0.499942510687035,0.5000163208356349,54.45,19.2,-8.7
0.04174804499999999,0.510498045,0.30517578,0.5000524931334482,0.5000093928384355,0.5000173867082089,-4.65,26.7,16.8,0.286865235,0.487304685,0.966796875,0.4999928054910239,0.500020117886689,0.49992199311994734,85.65,-0.9,78.15,-0.008789060000000007,0.54296875,0.52294922,0.5001561470159936,0.4999129333775996,0.5000469640176444,54.45,19.2,-8.7
0.04321289000000002,0.502441405,0.296875,0.5000612197797082,0.5000193851102025,0.4999977350862297,-7.2,25.65,17.55,0.28881836,0.49072265499999995,0.9699707049999999,0.500047430282354,0.4999882089919058,0.4998978116704274,85.65,-0.9,78.15,-0.007080080000000009,0.5505371099999999,0.5263671900000001,0.5001352963528183,0.4999396462526666,0.5000211837592632,54.9,17.55,-9.6
0.03735351500000002,0.50439453,0.29223633,0.5000405022851547,0.500038037531185,0.4999824801231691,-6.0,26.55,17.1,0.28881836,0.494384765,0.9816894549999999,0.5000329747673573,0.4999928054910239,0.49991013552754227,85.5,-0.75,77.25,-0.010009765000000016,0.553222655,0.5263671900000001,0.5001158445710383,0.49993904673206857,0.5000173200366316,56.25,17.7,-8.4
0.028808595000000024,0.494873045,0.295166015,0.5000606868434211,0.5000080604540845,0.5000239150250096,-6.9,26.4,16.5,0.291015625,0.48974609500000005,0.9826660150000001,0.5000389035635598,0.49996502683064914,0.4999497051960111,85.8,-1.5,77.55,-0.006347654999999975,0.5544433599999999,0.52001953,0.5000906638332552,0.4999731538690446,0.5000149218669728,55.5,18.45,-9.45
0.03369140499999997,0.493896485,0.29223633,0.5000632848532791,0.5000044632432297,0.5000078606138851,-6.9,26.4,16.5,0.29589844,0.49682617,0.96923828,0.5000173867082089,0.4999838790045646,0.49993904673206857,85.8,-1.5,77.55,-0.01171875,0.55810547,0.5166015650000001,0.5000859341655152,0.4999812809947065,0.5000167205160335,55.8,18.45,-9.0
0.03247070500000001,0.50390625,0.294433595,0.5000204509827767,0.5000278453319522,0.5000002664245103,-6.6,25.5,16.35,0.290771485,0.50854492,0.963378905,0.5000372381703876,0.4999966692136555,0.4999443093360957,84.75,-1.8,78.3,-0.001953125,0.549316405,0.525390625,0.5000775406153429,0.4999810811545071,0.49998987438507814,55.8,18.45,-9.0
0.031005859999999986,0.50439453,0.294433595,0.5000500949637895,0.5000122572728039,0.5000123238571148,-7.2,24.15,16.8,0.29345703,0.5095214849999999,0.97998047,0.5000279119162632,0.5000079272854626,0.49994097854975117,86.85,-2.25,78.6,-0.0034179700000000254,0.5598144549999999,0.5275878900000001,0.5000632848532791,0.4999958698528581,0.4999958698528581,56.55,17.7,-7.65
0.03173827999999997,0.50732422,0.29589844,0.5000460979852696,0.4999918062900271,0.5000188522611819,-6.0,26.25,17.4,0.301757815,0.514160155,0.9807128900000001,0.5000064617324896,0.500005262604027,0.4999569662892982,85.35,-0.9,76.65,0.0012207050000000094,0.5583496099999999,0.52783203,0.5000748093495966,0.5000083935501722,0.5000226493122361,55.5,17.7,-9.0
0.03466797000000003,0.51171875,0.294677735,0.4999986010313381,0.5000069946687767,0.4999938047792871,-6.0,26.55,17.4,0.29736328,0.510253905,0.9689941400000001,0.5000053958599154,0.4999919395459155,0.4999668920640208,85.35,-0.9,76.65,0.005615234999999984,0.557128905,0.5261230450000001,0.5000499617079011,0.4999870099507097,0.4999835459084768,55.5,17.7,-9.0
0.03369140499999997,0.5168457049999999,0.302734375,0.5000306431820095,0.49997108879547364,0.5000040635628309,-6.0,26.55,17.4,0.30395508,0.505859375,0.955078125,0.5000046630834291,0.4999951370763716,0.49997874965642586,85.95,-1.65,77.4,0.01049804499999999,0.5471191400000001,0.521972655,0.500051493845185,0.4999919395459155,0.5000001332558884,54.75,18.0,-9.45
0.05297851500000002,0.505126955,0.302490235,0.5000205176543542,0.49997628481518974,0.4999907404174529,-6.9,26.7,17.25,0.303222655,0.513183595,0.9514160150000001,0.5000140559218645,0.4999877427271962,0.49998641043011166,86.25,-1.05,77.55,0.008300779999999975,0.544433595,0.5168457049999999,0.5000385037958948,0.49997934917702397,0.49998534455753746,57.3,18.75,-9.45
0.04858398499999998,0.51098633,0.30371094,0.49998987438507814,0.4999682909454162,0.5000011990411961,-5.7,24.9,16.5,0.299560545,0.50097656,0.9611816400000001,0.5000051294354051,0.4999824801231691,0.4999756852945917,86.25,-1.5,77.55,0.01684570500000001,0.5446777349999999,0.5129394549999999,0.5000241814495199,0.4999852113016491,0.499997335405831,53.85,18.6,-8.55
0.052734375,0.5021972650000001,0.303222655,0.5000163874199458,0.49997188824353755,0.4999928054910239,-6.3,25.5,17.7,0.30419922,0.5041503900000001,0.96435547,0.5000013989686619,0.50001945178178,0.4999822136113923,86.85,-2.25,78.3,0.01171875,0.5380859400000001,0.5185546900000001,0.5000165872601451,0.4999996669039123,0.4999794823456459,56.7,19.05,-9.9
0.04199218999999999,0.5002441400000001,0.30151367,0.5000211171749521,0.4999859440781355,0.49998141425059495,-5.4,27.15,16.5,0.299560545,0.501464845,0.963378905,0.49999553675677033,0.5000117910080942,0.49999127335374005,85.65,-0.45,78.15,0.006347654999999975,0.5393066400000001,0.5158691400000001,0.5000010658725742,0.500042767198925,0.4999600306511324,56.4,18.3,-10.35
0.04223633000000001,0.497070315,0.298828125,0.5000003996803987,0.5000117910080942,0.499981947186882,-6.9,25.35,17.55,0.295654295,0.50317383,0.9636230450000001,0.5000173867082089,0.5000341738085534,0.49997681775147684,86.4,-0.45,76.35,0.0078125,0.5412597650000001,0.50854492,0.4999807480584194,0.500035372937016,0.49999500382048323,57.9,18.3,-9.9
0.03955077999999997,0.5056152349999999,0.303222655,0.49999460414008456,0.5000157213150367,0.4999704892748756,-6.6,25.8,18.15,0.29736328,0.505371095,0.955078125,0.49998534455753746,0.5000058622118916,0.5000108583041419,86.4,-0.45,76.35,0.008789064999999993,0.545410155,0.51611328,0.49998068147410846,0.5000550244717289,0.49997335370924395,57.9,18.3,-9.9
0.03515625,0.50854492,0.30419922,0.5000323751594928,0.49998634375853424,0.5000008660323748,-6.45,27.15,17.25,0.298095705,0.50073242,0.9528808599999999,0.49999307200280063,0.5000178529729187,0.5000215834396619,86.4,-0.45,77.7,0.0048828149999999935,0.5388183599999999,0.5178222650000001,0.49996322818158856,0.5000256470024929,0.4999513705891834,55.8,16.95,-8.7
0.03784179499999999,0.50708008,0.30151367,0.5000019318176826,0.49998294638787877,0.49996289508550074,-7.2,25.35,16.2,0.29345703,0.506835935,0.9533691400000001,0.4999936049390878,0.4999970688940542,0.49998234686728066,85.95,-2.4,77.7,0.0026855449999999906,0.5476074200000001,0.51513672,0.49998081472999684,0.5000546914629076,0.49998534455753746,55.8,16.95,-8.7
0.03833008000000001,0.5078125,0.30102539,0.5000001332558884,0.5000135895698883,0.4999904073213652,-7.2,25.35,16.2,0.287841795,0.497802735,0.96435547,0.4999836791643652,0.5000095260070574,0.5000150551228613,86.4,-1.2,77.4,0.00048827999999997475,0.5397949200000001,0.515625,0.4999737534769091,0.5000672151602218,0.4999543682794401,55.5,16.2,-9.0
0.04321289000000002,0.506591795,0.297851565,0.5000048629236283,0.49999067383314194,0.500002664594169,-6.3,25.8,17.7,0.296875,0.497070315,0.9641113299999999,0.4999722212523588,0.5000223162161483,0.5000211171749521,86.4,-2.7,77.4,0.004150390000000016,0.5363769549999999,0.5168457049999999,0.49998141425059495,0.5000639509581881,0.4999719548278485,56.25,18.75,-8.7
0.041015625,0.5134277349999999,0.298583985,0.49996742500030783,0.5000197182062902,0.4999878759830846,-7.05,25.5,17.7,0.2890625,0.490478515,0.96923828,0.49997082237096335,0.5000237817691212,0.5000110582316077,85.8,-3.0,77.55,-0.0034179700000000254,0.5361328150000001,0.51953125,0.4999774839436523,0.5000603537473334,0.4999802151221323,56.55,16.65,-9.0
0.03442383000000001,0.5158691400000001,0.29589844,0.49997934917702397,0.5000379709468741,0.4999910069292297,-6.9,25.65,16.8,0.29296875,0.489990235,0.9694824200000001,0.49997961560153426,0.5000037304667432,0.500000599520598,86.55,-2.25,77.25,-0.002197265000000016,0.5363769549999999,0.5231933599999999,0.4999570329608756,0.5000367052341005,0.4999748192622168,54.6,15.6,-9.6
0.02661133000000001,0.5166015650000001,0.290039065,0.49996922356210205,0.4999961362773684,0.5000104586237432,-5.7,24.9,15.75,0.28930664,0.48779297000000005,0.9699707049999999,0.49997768378385166,0.500020117886689,0.5000321087349825,86.55,-2.25,77.25,-0.011474609999999984,0.5280761700000001,0.524902345,0.499944509176295,0.5000503613882998,0.49998034837802074,54.6,15.6,-9.6
0.03125,0.51098633,0.287109375,0.4999716884033381,0.5000039969785199,0.4999822802829697,-5.7,24.9,15.75,0.294433595,0.48803711,0.963378905,0.4999826799633685,0.5000250474818948,0.500020117886689,86.25,-1.5,77.55,-0.006103515000000016,0.532714845,0.52001953,0.4999472404420415,0.5000398361802457,0.49997062253076396,56.4,16.05,-9.9
0.029785154999999976,0.5056152349999999,0.294189455,0.49994923893130144,0.5000020650735709,0.49997648465538913,-6.0,25.5,16.65,0.286376955,0.490234375,0.96826172,0.4999989341274258,0.5000241148652089,0.49999247239493616,84.9,-2.4,77.7,-0.00854491999999999,0.5319824200000001,0.5158691400000001,0.49994963861170016,0.5000576224815869,0.4999631615972775,56.4,16.05,-9.9
0.04223633000000001,0.5021972650000001,0.294677735,0.4999790160809362,0.4999868101105104,0.499997401990142,-8.25,26.4,17.55,0.295410155,0.490234375,0.97363281,0.49999313858711164,0.500013389729689,0.5000023315853478,84.0,0.0,77.25,-0.007568359999999984,0.5373535150000001,0.52685547,0.49993578253003507,0.5000711454671642,0.49997202141215946,56.1,17.1,-9.6
0.03955077999999997,0.51074219,0.306396485,0.49996309492570007,0.5000135229855773,0.4999894081203684,-7.2,25.65,15.45,0.29980469,0.49975586,0.9782714849999999,0.500022049791638,0.5000079272854626,0.4999982680225168,84.0,0.0,77.25,-0.008789060000000007,0.5322265650000001,0.524902345,0.49993851379578147,0.5000563568560799,0.49997688442305427,54.45,18.45,-10.8
0.03344726500000002,0.494140625,0.30126953,0.4999658261914466,0.5000241814495199,0.4999782167201388,-7.2,25.65,15.45,0.301757815,0.490234375,0.9709472650000001,0.5000008660323748,0.5000306431820095,0.5000191186856922,84.0,0.0,77.25,-0.010253904999999975,0.5302734400000001,0.5270996099999999,0.49994630782535565,0.500068281032796,0.49999540350088195,55.8,18.0,-10.05
0.037109375,0.50390625,0.30859375,0.49999713556563163,0.49998840891937163,0.4999820803555039,-7.05,25.05,17.7,0.307373045,0.493408205,0.96826172,0.4999927389067129,0.5000243812897193,0.5000265796191786,86.7,-0.9,78.15,0.001953125,0.528808595,0.528808595,0.49994757353812924,0.5000751424456843,0.4999661592875343,54.45,17.7,-9.0
0.03857422000000003,0.4921875,0.3046875,0.4999922059704259,0.5000162542513238,0.4999637611178756,-5.25,25.05,19.5,0.302490235,0.490234375,0.9748535150000001,0.4999894081203684,0.5000030643618342,0.5000173200366316,86.4,-3.15,77.1,-0.00390625,0.5341796900000001,0.53076172,0.4999568331206763,0.5000634181091675,0.499984678365362,54.45,17.7,-9.0
0.04125976500000002,0.49243164,0.314208985,0.4999646937345614,0.5000122572728039,0.4999832794839665,-6.0,25.8,16.65,0.30834961,0.482177735,0.9709472650000001,0.5000012657127736,0.5000345069046412,0.5000208506631754,86.4,-3.15,77.1,-0.003662109999999984,0.52783203,0.5302734400000001,0.4999451086968931,0.5000851347174513,0.49995876493835884,54.6,17.1,-9.9
0.03881835999999998,0.49536133,0.30932617,0.49999153977825034,0.4999796822731117,0.4999984678627162,-7.35,24.75,17.7,0.30078125,0.48901367,0.966308595,0.4999832128996555,0.5000001998401994,0.5000196516219793,86.85,-2.25,76.5,-0.0007324199999999905,0.5283203150000001,0.5349121099999999,0.4999584984265821,0.5000654831827385,0.49996662555224397,56.55,18.45,-10.05
0.03979491999999999,0.49755859500000005,0.29663086,0.49998827566348325,0.5000157878993476,0.49997894949662525,-7.35,24.75,17.7,0.30493164,0.48388672000000005,0.9665527349999999,0.49999766841465226,0.5000173867082089,0.5000161875797464,86.55,-1.05,78.3,-0.0024414049999999746,0.5314941400000001,0.533691405,0.49993651530652145,0.5000486959951276,0.4999726876043349,56.55,18.45,-10.05
0.04028320500000001,0.50048828,0.30444336,0.49998008195351035,0.500009259582547,0.4999862105899123,-7.35,24.75,17.7,0.30126953,0.49194336,0.9665527349999999,0.4999970688940542,0.50000199848926,0.5000305765976986,86.55,-2.25,77.55,-0.00854491999999999,0.5246582049999999,0.5270996099999999,0.4999389134761802,0.5000329747673573,0.4999744862533956,55.35,17.85,-8.55
0.03930664000000002,0.50073242,0.30493164,0.4999977350862297,0.4999901408968549,0.5000109249757193,-6.0,25.05,16.65,0.29760742,0.49243164,0.971191405,0.5000001998401994,0.500009326166858,0.5000189854298038,86.55,-2.25,77.55,-0.007324220000000025,0.5314941400000001,0.525390625,0.4999435765596092,0.5000397029243573,0.4999725543484465,54.75,18.0,-9.75
0.04394531499999999,0.506835935,0.30078125,0.49998501146144975,0.5000228491524354,0.49998334606827743,-8.25,26.1,15.75,0.298828125,0.494873045,0.9724121099999999,0.4999891416958581,0.49999200613022643,0.5000204509827767,87.45,-1.2,77.4,-0.0012207050000000094,0.5380859400000001,0.5261230450000001,0.49993784760360604,0.5000311761182967,0.49997561871028073,55.2,16.65,-9.75
0.03784179499999999,0.501464845,0.306884765,0.49997188824353755,0.5000197182062902,0.49998307964376715,-6.9,25.65,16.5,0.30078125,0.49853515499999995,0.9680175799999999,0.4999914731939394,0.5000083935501722,0.5000307097663205,86.85,-1.5,77.55,0.0078125,0.537109375,0.525878905,0.49991959495028865,0.5000199180464896,0.4999812144103955,54.3,18.6,-9.3
0.04345702999999997,0.49902344,0.30761719,0.49997035601898715,0.4999956033410813,0.49999886754311484,-6.9,25.65,16.5,0.298095705,0.497314455,0.9733886700000001,0.49999307200280063,0.5000041301471418,0.5000568231207895,86.4,-2.4,78.9,-0.0026855449999999906,0.5383300799999999,0.5241699200000001,0.4998904839055629,0.5000423009342153,0.49998501146144975,55.35,17.1,-8.85
0.04711914000000002,0.49633789,0.307373045,0.4999503047166092,0.5000119908482935,0.5000047963393174,-7.5,26.1,17.85,0.307128905,0.49536133,0.9733886700000001,0.4999858109095136,0.49997874965642586,0.5000452986244721,85.95,-0.45,77.4,-0.0009765600000000063,0.529296875,0.5202636700000001,0.49990847013436995,0.5000417679979283,0.49996975649838915,56.1,17.1,-9.9
0.04394531499999999,0.493408205,0.30883789,0.4999429104547002,0.5000141890904864,0.4999713553072504,-6.3,26.55,17.4,0.298828125,0.48510742,0.9724121099999999,0.49997322054062204,0.499993405011622,0.5000384372115838,85.8,-1.8,77.55,-0.001953125,0.52685547,0.5212402349999999,0.49989741199002874,0.5000282450123509,0.4999654930953588,56.1,17.1,-9.9
0.04296875,0.49755859500000005,0.303466795,0.49994770670675115,0.5000029976902568,0.5000137228257767,-5.55,27.0,15.6,0.29980469,0.493164065,0.9748535150000001,0.49998008195351035,0.49999573659696966,0.5000349731693509,87.45,-0.45,77.1,-0.007080080000000009,0.521972655,0.521972655,0.49989148319382615,0.5000397029243573,0.4999813476662839,54.6,18.3,-9.3
0.04858398499999998,0.502685545,0.306152345,0.4999396462526666,0.500002598009858,0.4999964027891452,-6.6,25.8,17.4,0.30053711,0.493164065,0.9680175799999999,0.4999851447173381,0.49998427868496326,0.5000726776044482,87.45,-0.45,77.1,-0.009521484999999984,0.517578125,0.529296875,0.4999061386362887,0.5000162542513238,0.4999637611178756,54.6,18.3,-9.3
0.03833008000000001,0.50390625,0.298339845,0.4999288545328357,0.5000359724576141,0.49997601839067946,-6.6,25.8,17.4,0.30004883,0.49658202999999995,0.970703125,0.49998041504959817,0.499975352198504,0.5000423675185263,86.4,-1.2,78.15,-0.004150390000000016,0.5148925799999999,0.5158691400000001,0.49992132692777186,0.4999936049390878,0.49997854972896005,53.25,19.05,-10.35
0.03833008000000001,0.502929685,0.299316405,0.4999682909454162,0.49999726873425354,0.49999114009785167,-6.6,27.3,17.1,0.299316405,0.48510742,0.967773435,0.4999708889552743,0.4999940712037974,0.500060753427732,86.85,-1.05,76.95,-0.009765625,0.5302734400000001,0.5173339849999999,0.4999175298767177,0.5000004663519761,0.4999518369411595,54.6,18.3,-9.6
0.03686523499999998,0.5021972650000001,0.299316405,0.4999694900738788,0.4999914731939394,0.5000151217071722,-6.3,27.3,17.4,0.287841795,0.498779295,0.9719238299999999,0.4999694900738788,0.5000007993607974,0.5000620191405056,85.8,-1.5,77.25,-0.001953125,0.5241699200000001,0.517089845,0.4998912166820494,0.5000197848778677,0.49998814240759487,55.65,17.1,-9.6
0.03857422000000003,0.51123047,0.29370117,0.49993378404077504,0.5000245145456076,0.49999660262934453,-7.65,25.8,17.7,0.30102539,0.486328125,0.9611816400000001,0.499984611781051,0.5000033307863445,0.5000600206512457,87.15,-1.65,76.35,-0.0012207050000000094,0.5380859400000001,0.51098633,0.4999047396676268,0.5000143223463748,0.4999682909454162,55.65,17.55,-10.65
0.04052734500000003,0.51098633,0.296875,0.49992932079754543,0.5000071278373986,0.4999723545082472,-7.65,25.8,17.7,0.29370117,0.493896485,0.97265625,0.4999670252326427,0.4999790160809362,0.500053492334445,85.8,-0.75,78.3,-0.0012207050000000094,0.5263671900000001,0.5178222650000001,0.49988129099459333,0.5000232488328341,0.4999509043244737,53.7,18.45,-8.7
0.04150390499999997,0.50390625,0.299560545,0.4999590313628692,0.5000011324568852,0.5000051294354051,-6.9,26.7,17.55,0.27734375,0.490478515,0.9641113299999999,0.499968624041504,0.4999844785251626,0.5000866002704243,86.4,-1.65,77.1,-0.00903320500000001,0.5349121099999999,0.506591795,0.49989368143601903,0.5000011324568852,0.49996436063847366,55.35,17.1,-10.35
0.04321289000000002,0.502441405,0.299316405,0.4999097358471435,0.500026779459378,0.49995829858638274,-6.6,25.5,17.7,0.28930664,0.494384765,0.9621582049999999,0.49997275418864584,0.4999794823456459,0.5000495620275024,86.4,-1.65,77.1,-0.007324220000000025,0.5244140650000001,0.5183105450000001,0.49988415542896164,0.49998827566348325,0.49998441194085164,55.35,17.1,-10.35
0.04785156499999999,0.5078125,0.30102539,0.49995876493835884,0.5000317090545837,0.4999692902336795,-7.5,26.1,16.5,0.28881836,0.49194336,0.9782714849999999,0.49997615164656783,0.4999840788447639,0.500073543636823,85.35,-0.9,78.15,-0.007080080000000009,0.5251464849999999,0.5158691400000001,0.4998926156507113,0.5000136562414658,0.499980015281933,57.3,18.45,-10.5
0.05493164000000002,0.506347655,0.29980469,0.4999457083047576,0.5000301102457225,0.49999140660962843,-5.7,26.4,16.8,0.295166015,0.48852539,0.9704589849999999,0.49996436063847366,0.4999838790045646,0.500066882064134,85.65,-1.95,77.7,-0.009765625,0.5290527349999999,0.506591795,0.4998855543976236,0.5000001998401994,0.49997615164656783,55.8,17.7,-10.5
0.04541015499999997,0.50341797,0.299316405,0.4999129999619106,0.5000743429976204,0.499984611781051,-5.7,26.4,16.8,0.28881836,0.482421875,0.9680175799999999,0.4999832794839665,0.4999780168799394,0.5000571562168772,87.3,-1.05,78.3,-0.01098633000000001,0.5187988299999999,0.5144042950000001,0.49987216458066813,0.49997635148676717,0.49996869062581495,55.35,16.8,-9.9
0.03564452999999997,0.51123047,0.291259765,0.4999472404420415,0.5000452320401612,0.49998994105665556,-7.65,26.55,17.4,0.291748045,0.486083985,0.9616699200000001,0.4999840788447639,0.4999840788447639,0.5000688805533939,87.3,-1.05,78.3,-0.0012207050000000094,0.517578125,0.517089845,0.4998801585377082,0.49998814240759487,0.49999140660962843,56.1,17.85,-9.6
0.03662109500000003,0.5158691400000001,0.286621095,0.4999288545328357,0.5000540252707321,0.4999977350862297,-6.6,27.0,16.65,0.287353515,0.478759765,0.9641113299999999,0.49999140660962843,0.49999067383314194,0.500055490823705,86.55,-1.05,78.0,-0.012939454999999952,0.517089845,0.5178222650000001,0.49988415542896164,0.4999794157613349,0.49998441194085164,56.1,17.85,-9.6
0.03466797000000003,0.513671875,0.28881836,0.4998854877260462,0.5000748093495966,0.49999527033226004,-7.35,26.55,15.3,0.294189455,0.479248045,0.958496095,0.49999680246954387,0.5000055291158039,0.5000720780838501,86.85,-1.8,77.25,-0.007080080000000009,0.509765625,0.509277345,0.499891083426161,0.4999780168799394,0.49995010487640984,54.9,17.55,-8.85
0.0234375,0.5153808599999999,0.28198242,0.4999429770390112,0.5000438996558102,0.49999233922631425,-7.35,26.55,15.3,0.294677735,0.478515625,0.96923828,0.49998168067510523,0.49998727637522006,0.500056023759992,86.85,-1.8,77.25,-0.011230470000000025,0.5146484400000001,0.5173339849999999,0.499893081915421,0.4999682909454162,0.49997428641319624,55.5,18.75,-10.05
0.028320314999999995,0.49951172000000005,0.280029295,0.49992039431108604,0.5000318422232056,0.4999936049390878,-6.6,25.8,17.4,0.286621095,0.47802734500000005,0.9704589849999999,0.4999760849749904,0.49999600302148,0.5000519601971611,86.7,-0.15,76.65,-0.012451170000000048,0.5075683599999999,0.5129394549999999,0.49989754515865065,0.4999822136113923,0.49997934917702397,55.5,18.75,-10.05
0.030761720000000024,0.50463867,0.282470705,0.4999012090410829,0.5000356393615264,0.4999713553072504,-5.7,26.7,16.5,0.295654295,0.471679685,0.966308595,0.49997994869762197,0.5000073943491754,0.5000756753819714,86.25,-1.5,78.0,-0.007568359999999984,0.5119628900000001,0.5185546900000001,0.49990540585980225,0.4999515038450718,0.4999626952453014,54.9,19.05,-9.3
0.03955077999999997,0.502685545,0.29370117,0.49992425803371765,0.5000197182062902,0.5000047963393174,-6.6,25.8,17.1,0.294433595,0.48510742,0.9597167950000001,0.4999851447173381,0.49999780167054064,0.5000539586864211,85.8,-1.5,78.0,-0.004394529999999975,0.5197753900000001,0.5275878900000001,0.4999079371980829,0.49995010487640984,0.5000167871003445,54.9,19.05,-9.3
0.04345702999999997,0.50830078,0.30078125,0.49993531626532534,0.4999958031812807,0.4999966692136555,-6.3,27.0,16.65,0.283447265,0.48901367,0.970703125,0.4999890750242807,0.49998707653502067,0.500071411978941,85.8,-1.5,78.0,-0.0029296850000000065,0.5185546900000001,0.51611328,0.4999173300365183,0.4999495053558118,0.5000055291158039,55.35,18.6,-9.9
0.05102539000000002,0.50830078,0.30493164,0.49991246711288995,0.5000450987842727,0.49998674352619943,-6.3,27.0,16.65,0.330322265,0.49267577999999995,0.982910155,0.4999840788447639,0.49997488593379424,0.500060753427732,85.8,-1.05,77.55,-0.00048827999999997475,0.5153808599999999,0.52392578,0.4999036072107416,0.49996102985212915,0.5000002664245103,56.4,17.55,-8.85
0.05517577999999997,0.50708008,0.297851565,0.4999449755282711,0.5000362388821243,0.5000135895698883,-7.05,26.55,16.05,0.30029297,0.48046875,0.9694824200000001,0.499984678365362,0.5000008660323748,0.5000716118191404,84.45,-0.75,79.35,-0.005615234999999984,0.5078125,0.5236816400000001,0.4999140658344848,0.4999857442379362,0.5000057955403142,53.25,17.85,-8.55
0.05712890499999997,0.510253905,0.29760742,0.4999565666088995,0.5000347067448405,0.5000059953805135,-7.05,26.55,17.1,0.296875,0.471435545,0.974609375,0.499977950208362,0.5000132564738006,0.5000705459465662,86.4,-1.95,77.7,-0.005615234999999984,0.513183595,0.5227050799999999,0.49990453982742744,0.49993991267717697,0.499997335405831,55.35,18.3,-9.6
0.05151366999999999,0.508789065,0.29711914,0.49993831395558214,0.5000659494474482,0.4999882089919058,-7.5,27.15,16.5,0.28808594,0.46826172000000005,0.96826172,0.4999937381077097,0.49996209572470335,0.5000381707870735,86.4,-1.95,77.7,0.0012207050000000094,0.51098633,0.5224609400000001,0.49992066082286285,0.4999518369411595,0.5000075941893748,55.35,18.3,-9.6
0.04199218999999999,0.50073242,0.287841795,0.499963894373764,0.5000492289314147,0.5000104586237432,-6.45,25.65,16.2,0.3125,0.473876955,0.9787597650000001,0.500020117886689,0.49996196246881497,0.5000428338705024,86.25,-0.3,76.5,-0.01049804499999999,0.50830078,0.5280761700000001,0.4999270558837751,0.49996196246881497,0.499993271843,55.65,18.6,-9.3
0.03466797000000003,0.5100097650000001,0.28808594,0.4999713553072504,0.5000040635628309,0.500006062052091,-6.45,25.65,16.2,0.299316405,0.48144531,0.9765625,0.5000215168553509,0.49999353826751036,0.5000550244717289,85.65,-0.9,78.15,-0.004150390000000016,0.5126953150000001,0.5373535150000001,0.4999188621738022,0.49997908266524715,0.4999698230827001,55.65,18.6,-9.3
0.0390625,0.510253905,0.28051758,0.49994710718615304,0.5000355727772153,0.4999997335754897,-7.95,27.45,16.8,0.298339845,0.48071289,0.9704589849999999,0.4999992672235135,0.49995117074898404,0.5000490290912153,85.5,-0.75,77.55,-0.01098633000000001,0.5178222650000001,0.5324707049999999,0.4999271891396635,0.49994444259198406,0.49999993341568905,55.5,18.45,-9.75
0.046875,0.505859375,0.290039065,0.49997155514744973,0.5000041968187193,0.5000343736487528,-6.9,26.7,15.15,0.313476565,0.47802734500000005,0.98046875,0.5000140559218645,0.49992738897986283,0.5000333077761786,85.5,-0.75,77.55,-0.008789060000000007,0.51904297,0.533203125,0.49991633074825514,0.49993831395558214,0.5000124571130031,55.35,19.05,-8.85
0.05297851500000002,0.505859375,0.29199219,0.49997601839067946,0.4999880758232839,0.5000181860690064,-7.35,28.5,16.05,0.29711914,0.481689455,0.9724121099999999,0.5000268461309554,0.4999930053312232,0.500031375958496,85.8,-0.3,78.6,-0.008056640000000016,0.521972655,0.5407714849999999,0.49990693799708613,0.49995290272646725,0.50001072513552,54.6,19.05,-8.85
0.04223633000000001,0.49267577999999995,0.299316405,0.49996662555224397,0.5000055291158039,0.4999940712037974,-7.35,28.5,16.05,0.306640625,0.501220705,0.9636230450000001,0.5000237817691212,0.4999936049390878,0.500033441032067,87.15,-0.9,77.1,-0.010009765000000016,0.5295410150000001,0.545410155,0.499928521436748,0.4999270558837751,0.5000137228257767,54.9,17.85,-8.25
0.041015625,0.497314455,0.30126953,0.49998068147410846,0.4999720880837369,0.5000014655529729,-7.35,28.5,16.05,0.317626955,0.498046875,0.9738769549999999,0.5000104586237432,0.49994284378312276,0.500048229730418,87.15,-0.45,78.9,-0.001953125,0.5244140650000001,0.5341796900000001,0.49992865469263637,0.4999257901710015,0.4999859440781355,55.5,18.45,-8.4
0.04321289000000002,0.5017089849999999,0.307128905,0.49998347932416587,0.4999776171122743,0.5000338407124657,-7.95,26.4,18.3,0.32470703,0.5126953150000001,0.98046875,0.5000401691890669,0.4999713553072504,0.5000378376909856,85.95,0.15,77.7,0.0048828149999999935,0.5207519549999999,0.5383300799999999,0.49990753751768413,0.4999270558837751,0.5000227825681245,55.8,18.75,-7.95
0.04370116999999999,0.50439453,0.306152345,0.4999728208602233,0.5000055957001148,0.5000249142260064,-7.65,27.3,17.1,0.31713867,0.497802735,0.95751953,0.5000530260697353,0.49998840891937163,0.5000394364125805,86.55,0.0,78.3,-0.00024414000000001578,0.517089845,0.537109375,0.4999038736352519,0.4999120673452248,0.5000117243365167,55.8,18.75,-7.95
0.04589843999999999,0.5126953150000001,0.302246095,0.4999808813143078,0.49999034073705423,0.49999646937345615,-7.2,27.45,16.8,0.313964845,0.497802735,0.9616699200000001,0.500046764177445,0.4999852113016491,0.500042767198925,87.15,-0.45,78.9,0.001953125,0.51611328,0.5329589849999999,0.49990367379505257,0.4999288545328357,0.5000095260070574,56.4,18.3,-7.8
0.046875,0.5100097650000001,0.303222655,0.5000027978500574,0.499986610270311,0.5000508943245869,-7.2,26.7,17.25,0.333740235,0.49584961,0.9714355450000001,0.5000028644343684,0.4999472404420415,0.5000602871630224,87.15,-0.45,78.9,0.01684570500000001,0.521972655,0.52392578,0.499915065122748,0.49991786297280544,0.4999988009588039,54.6,19.35,-9.6
0.04614258000000001,0.5146484400000001,0.29980469,0.499964627062984,0.500010791719831,0.4999986677029155,-7.2,26.7,17.25,0.3125,0.494384765,0.9577636700000001,0.49999453755577355,0.5000207174945535,0.5000710788828533,85.5,-1.5,79.05,0.01489258000000001,0.5183105450000001,0.53173828,0.49989428104388356,0.4999194616944002,0.4999900076409665,56.4,19.05,-7.5
0.03222656499999999,0.513183595,0.29711914,0.4999696899140782,0.5000259135142696,0.499980015281933,-5.7,24.9,16.5,0.311035155,0.475585935,0.9606933599999999,0.5000213835994626,0.49995983081093304,0.5000793391771372,85.65,-0.45,78.15,0.007324220000000025,0.5222167950000001,0.537597655,0.49993118603091696,0.4999339838809744,0.5000162542513238,55.5,20.7,-6.6
0.03930664000000002,0.5163574200000001,0.290283205,0.4999914731939394,0.4999877427271962,0.5000305099261212,-7.65,27.75,16.05,0.31225586,0.498779295,0.9689941400000001,0.5000157878993476,0.4999948039802839,0.5000510275804753,86.7,-0.9,77.7,0.0068359399999999935,0.5197753900000001,0.5295410150000001,0.49993937982815634,0.49993851379578147,0.5000197848778677,55.5,20.7,-6.6
0.04125976500000002,0.509277345,0.295166015,0.4999524364617576,0.5000222496318373,0.4999885420879936,-6.9,27.45,17.25,0.314697265,0.48681640499999995,0.96582031,0.5000216501112393,0.49999553675677033,0.5000726110201372,86.7,-0.9,77.7,0.0048828149999999935,0.5205078150000001,0.5334472650000001,0.49991939511008926,0.49996922356210205,0.5000028644343684,54.75,19.2,-6.9
0.03613281499999999,0.51098633,0.29614258,0.49994710718615304,0.5000039303069426,0.5000002664245103,-6.9,27.45,17.25,0.31713867,0.497802735,0.9665527349999999,0.5000359057860366,0.4999756852945917,0.5000697465857689,85.65,-0.15,78.45,0.0078125,0.5295410150000001,0.53564453,0.4999181293973157,0.4999565666088995,0.5000345069046412,55.2,18.75,-9.0
0.04736327999999997,0.510253905,0.302001955,0.4999675581689298,0.4999760849749904,0.500033973968354,-7.35,27.75,17.4,0.302001955,0.502441405,0.9675292950000001,0.500015388218949,0.4999860773340239,0.5000693468181037,85.5,-0.75,77.55,0.005371095000000025,0.5246582049999999,0.524902345,0.4999004762645965,0.499980015281933,0.5000029976902568,55.2,18.75,-9.0
0.05444335999999998,0.5095214849999999,0.303466795,0.4999440429115854,0.500010791719831,0.500020051302378,-6.0,28.05,16.35,0.31616211,0.497802735,0.9606933599999999,0.5000324418310702,0.49998168067510523,0.5000739433172217,85.5,-0.75,77.55,-0.0009765600000000063,0.524902345,0.53955078,0.4999046064117384,0.5000103920394322,0.5000022649137703,54.45,19.2,-7.65
0.056640625,0.5251464849999999,0.310058595,0.4999565666088995,0.5000147886983509,0.49998720979090905,-6.45,27.45,15.15,0.29663086,0.489990235,0.95800781,0.5000109249757193,0.4999455750488692,0.5000614862042185,86.4,0.15,78.15,0.011230470000000025,0.5241699200000001,0.532714845,0.49988835224768097,0.5000038637226316,0.4999956700126587,54.45,19.2,-7.65
0.048828125,0.52294922,0.30859375,0.49998274654767944,0.49999960031960133,0.5000090597423477,-7.35,28.05,16.65,0.32006836,0.506835935,0.96875,0.5000248476416954,0.49998501146144975,0.5000520934530495,84.75,0.75,78.6,0.015380859999999984,0.5283203150000001,0.5295410150000001,0.4998868866947081,0.5000363721380128,0.500013856081665,57.9,20.1,-7.5
0.05029297000000003,0.5266113299999999,0.306396485,0.49996835761699365,0.5000217832798612,0.5000065949883781,-7.35,28.05,16.65,0.313476565,0.50073242,0.95263672,0.4999984678627162,0.49999660262934453,0.5000684808729953,86.4,2.4,78.45,0.013427734999999984,0.5224609400000001,0.53564453,0.4999235252572312,0.5000427006146141,0.49999080700176385,56.1,20.55,-8.55
0.04516601500000002,0.5185546900000001,0.30151367,0.49995876493835884,0.5000433001352121,0.500015987739547,-5.4,27.9,17.25,0.306152345,0.5390625,0.9592285150000001,0.4999365818908325,0.5000379042752966,0.5001123139444945,86.4,2.4,78.45,0.01049804499999999,0.52734375,0.5290527349999999,0.499935849114346,0.5000169869405438,0.4999992672235135,56.7,20.1,-7.5
0.0390625,0.5222167950000001,0.298095705,0.49995969755504466,0.5000189854298038,0.5000254471622935,-8.1,27.3,18.15,0.302246095,0.5036621099999999,0.958984375,0.5000461646568469,0.49995363550295374,0.5000680811925965,87.3,0.75,79.35,0.012695314999999993,0.5192871099999999,0.5241699200000001,0.49991439893057255,0.5000834694115456,0.4999951370763716,56.25,19.95,-6.9
0.03881835999999998,0.5236816400000001,0.30004883,0.49995963097073365,0.5000141225061755,0.5000149885385503,-7.65,28.8,18.15,0.31591797,0.502685545,0.9765625,0.5000083269658613,0.5000170536121212,0.500071545147563,86.25,0.3,79.05,0.0017089849999999843,0.51904297,0.5417480450000001,0.4998905505771403,0.500066215959225,0.5000316423830063,55.8,19.95,-8.4
0.0390625,0.528808595,0.294921875,0.49992858802105894,0.5000322419908709,0.5000205842386651,-7.65,28.8,18.15,0.297851565,0.5185546900000001,0.95263672,0.5000323085751819,0.500031442542807,0.5000570895452998,85.95,1.2,77.1,-0.0007324199999999905,0.501464845,0.5402832049999999,0.4999186623336029,0.5000434999754114,0.5000124571130031,55.65,21.15,-7.5
0.04638672000000003,0.5354003900000001,0.290527345,0.499979882113311,0.49996902372190266,0.5000614862042185,-8.25,27.45,17.85,0.30102539,0.494384765,0.963867185,0.4999840788447639,0.500019984718067,0.5000564900247018,86.4,1.2,77.7,0.00048827999999997475,0.501220705,0.536621095,0.4999515038450718,0.500051427260874,0.49999213938611486,55.65,21.15,-7.5
0.04370116999999999,0.53515625,0.294677735,0.4999453752086699,0.49999247239493616,0.5000264463632902,-7.2,28.65,15.75,0.311279295,0.48291015499999995,0.990234375,0.49996229556490274,0.5000420344224386,0.5000728108603365,85.5,0.0,78.3,0.003662109999999984,0.49633789,0.5458984400000001,0.49995796557756145,0.5000525597177592,0.49999400461948645,55.65,20.85,-9.3
0.046875,0.5397949200000001,0.294921875,0.49993531626532534,0.500020117886689,0.5000412350616411,-6.3,28.8,17.7,0.301757815,0.49365234500000005,0.970214845,0.5000486959951276,0.5000634846934785,0.5000532924942456,86.25,1.5,79.8,-0.015380859999999984,0.50488281,0.5319824200000001,0.4999751523583046,0.5000623522365933,0.5000377044350973,56.4,20.1,-7.5
0.05590820500000001,0.5354003900000001,0.302246095,0.49996016381975433,0.499986676854622,0.5000289777888374,-7.35,27.3,17.4,0.296875,0.47753906,0.978027345,0.5000037304667432,0.500035506105638,0.5000568231207895,86.25,1.5,79.8,-0.021484375,0.49584961,0.533691405,0.5000139226659761,0.5000419678381276,0.5000263131946683,56.55,21.0,-6.9
0.06469726500000002,0.52685547,0.298095705,0.49992046098266346,0.5000397029243573,0.5000281784280399,-7.35,27.3,17.4,0.294677735,0.493164065,0.979003905,0.5000415681577288,0.500038104115496,0.5000300436614116,85.8,1.5,77.25,-0.0029296850000000065,0.50708008,0.5266113299999999,0.5000118575924052,0.5000502282196779,0.5000444992636747,55.5,20.25,-7.95
0.05200195500000001,0.528808595,0.29736328,0.4999434433037208,0.5000308430222089,0.50000199848926,-7.65,28.5,17.1,0.298339845,0.47705077999999995,0.98779297,0.5000264463632902,0.5000111914002296,0.500028711364327,85.35,0.15,78.9,0.0017089849999999843,0.5119628900000001,0.5334472650000001,0.5000178529729187,0.5000706125308773,0.5000201845582664,56.1,20.1,-7.5
0.03979491999999999,0.525878905,0.291259765,0.4999684242013046,0.5000006661921754,0.5000584219296508,-7.95,29.4,16.5,0.296875,0.49536133,0.959960935,0.5000674150004211,0.4999965359577671,0.49999447088419613,84.75,0.75,77.55,-0.0014648450000000254,0.5183105450000001,0.5283203150000001,0.5000032642020336,0.5001015222246635,0.5000210505033748,55.5,20.7,-7.65
0.03295898499999998,0.5207519549999999,0.290283205,0.49995623351281177,0.5000157213150367,0.5000162542513238,-8.4,29.55,16.05,0.30444336,0.5017089849999999,0.9660644549999999,0.5000172534523206,0.5000184524935167,0.5000178529729187,85.65,0.9,77.55,-0.0017089849999999843,0.5285644549999999,0.5344238299999999,0.5000175865484083,0.5000818040183733,0.5000393032439586,55.5,20.7,-7.65
0.04174804499999999,0.53515625,0.294433595,0.4999498384518995,0.4999760849749904,0.500033507616378,-7.35,28.8,16.35,0.306396485,0.5168457049999999,0.9626464849999999,0.5000361722978134,0.49999260565082454,0.5000007993607974,86.55,0.75,78.9,0.005371095000000025,0.5314941400000001,0.52392578,0.5000263131946683,0.5000744096691978,0.4999500382920989,56.25,20.25,-8.4
0.03808593999999999,0.53173828,0.303222655,0.49999034073705423,0.49997115546705106,0.5000235153446109,-7.95,27.9,16.5,0.30493164,0.5080566400000001,0.9645996099999999,0.5000375045948979,0.5000190521013812,0.5000338407124657,85.35,0.75,77.55,0.013183595000000025,0.5380859400000001,0.5322265650000001,0.5000291776290366,0.5001219732074402,0.5000676148406205,56.25,20.25,-8.4
0.04711914000000002,0.5422363299999999,0.29980469,0.4999600306511324,0.5000141225061755,0.5000193851102025,-7.05,28.05,16.65,0.310791015,0.5146484400000001,0.970703125,0.5000257135868038,0.5000322419908709,0.49999980015980067,85.35,0.9,78.9,0.01245116999999999,0.5439453150000001,0.5324707049999999,0.5000317090545837,0.5000613529483301,0.5000197848778677,55.8,21.0,-9.75
0.04980468999999999,0.5480957049999999,0.298095705,0.4999600972354434,0.5000398361802457,0.5000016653931723,-7.05,28.8,17.1,0.30541992,0.5139160150000001,0.95751953,0.5000043299873413,0.5000399693488676,0.5000178529729187,85.35,0.9,78.9,0.015380859999999984,0.541503905,0.5202636700000001,0.5000227825681245,0.5000800719536236,0.5000205842386651,55.8,19.95,-9.0
0.048828125,0.54638672,0.295166015,0.4999419778380144,0.49998441194085164,0.5000365719782122,-7.35,28.5,16.65,0.310546875,0.5187988299999999,0.9609375,0.499970689115075,0.5000289112045264,0.5000585550982727,86.55,0.75,78.3,0.002197265000000016,0.5427246099999999,0.5339355450000001,0.5000290443731483,0.5001197748779809,0.5000146554424625,55.5,20.7,-7.95
0.05322265499999997,0.537109375,0.287841795,0.49994217767821375,0.5000192519415806,0.5000101921992328,-7.35,28.5,16.65,0.30151367,0.509765625,0.9626464849999999,0.4999906071615645,0.5000233820887224,0.5000143223463748,85.65,1.2,76.65,0.003662109999999984,0.54296875,0.5261230450000001,0.5000061286364019,0.5000949272362856,0.499995336916571,55.65,19.8,-8.85
0.04736327999999997,0.5285644549999999,0.295410155,0.4999568331206763,0.5000074609334864,0.49999646937345615,-7.5,29.7,16.5,0.31152344,0.506835935,0.974121095,0.500064816990563,0.5000476302098198,0.5000093928384355,85.65,2.4,78.15,-0.01098633000000001,0.537597655,0.532714845,0.4999958031812807,0.500068281032796,0.5000033307863445,55.65,19.8,-8.85
0.03784179499999999,0.521972655,0.28833008,0.5000097925188342,0.499991339938051,0.5000359724576141,-7.05,28.5,17.7,0.279541015,0.509765625,0.9714355450000001,0.4999934716831994,0.5000698797543908,0.5000525597177592,85.65,2.4,78.15,-0.00048827999999997475,0.537597655,0.5178222650000001,0.4999988009588039,0.5000567565364785,0.49998687669482134,55.65,19.8,-8.85
0.03735351500000002,0.5224609400000001,0.279296875,0.4999992672235135,0.49998274654767944,0.5000199180464896,-7.35,29.25,17.1,0.28833008,0.51171875,0.9729003900000001,0.4999952036606826,0.5000476967941307,0.5000231155769457,85.05,2.25,77.55,-0.012939454999999952,0.5341796900000001,0.5114746099999999,0.49996782468070655,0.5000392365723811,0.5000407021253541,54.0,19.95,-7.95
0.04614258000000001,0.520996095,0.28125,0.4999984678627162,0.49999540350088195,0.4999961362773684,-7.05,28.05,17.1,0.28808594,0.521484375,0.9719238299999999,0.5000217832798612,0.5000251140662058,0.5000355727772153,86.25,2.55,78.3,-0.017822265000000014,0.529296875,0.5183105450000001,0.49995396859904145,0.500013856081665,0.5000078606138851,54.0,19.95,-7.95
0.04223633000000001,0.53857422,0.28027344,0.49998654368600004,0.4999831462280781,0.5000297105653237,-7.05,28.05,17.7,0.28979492,0.50488281,0.9562988299999999,0.5000397029243573,0.5000597542267353,0.5000401691890669,86.25,2.55,78.3,-0.006591794999999991,0.5314941400000001,0.5129394549999999,0.4999810811545071,0.5000178529729187,0.4999714884758723,56.55,21.0,-8.4
0.04711914000000002,0.5349121099999999,0.275146485,0.5000008660323748,0.5000135229855773,0.500012790209091,-7.05,28.05,17.7,0.287353515,0.51611328,0.956054685,0.5000075276050638,0.500013389729689,0.5000231822485232,85.5,2.25,78.6,-0.0026855449999999906,0.5388183599999999,0.52294922,0.4999467075057544,0.500022715896547,0.5000062618922902,56.25,20.7,-9.0
0.048828125,0.5322265650000001,0.28417969,0.49996189588450396,0.4999812144103955,0.5000216501112393,-6.3,28.8,17.1,0.28540039,0.5158691400000001,0.963378905,0.5000013989686619,0.5000344402330638,0.5000550244717289,85.95,1.65,76.65,-0.011962890000000016,0.5263671900000001,0.5227050799999999,0.49994544179298084,0.5000211171749521,0.5000341738085534,55.35,21.6,-8.25
0.04052734500000003,0.5400390650000001,0.291503905,0.49997928250544654,0.49999127335374005,0.5000063284766012,-7.35,28.8,16.35,0.29248047,0.5178222650000001,0.966796875,0.5000235153446109,0.5000152549630607,0.5000101256149219,85.5,0.75,77.55,-0.0024414049999999746,0.5285644549999999,0.5163574200000001,0.4999769510073652,0.5000645505660527,0.5000143223463748,54.75,19.5,-9.45
0.044921875,0.5388183599999999,0.294433595,0.5000031975304562,0.49999020748116585,0.5000203843984657,-8.1,28.8,16.35,0.291748045,0.51220703,0.975097655,0.49997108879547364,0.5000322419908709,0.500038703636094,85.5,0.75,77.55,-0.005615234999999984,0.5217285150000001,0.5144042950000001,0.4999549012157273,0.5000468974333334,0.49997162173176074,56.25,21.0,-8.7
0.05175781499999999,0.544433595,0.29321289,0.49998427868496326,0.500003464042233,0.5000131898894896,-8.1,28.8,16.35,0.295166015,0.521972655,0.978027345,0.4999636278619872,0.5000151883787497,0.5000721447554275,85.65,1.2,79.2,-0.007324220000000025,0.5300292950000001,0.5197753900000001,0.4999687572973924,0.5000187855896044,0.5000337075438438,56.25,21.45,-9.45
0.04565429499999999,0.5419921900000001,0.294921875,0.49998641043011166,0.49999293874691225,0.5000620191405056,-7.65,28.5,16.65,0.296875,0.5041503900000001,0.9738769549999999,0.4999739533171085,0.5000173867082089,0.500048762666705,85.05,0.0,78.3,-0.007324220000000025,0.5236816400000001,0.525390625,0.49997601839067946,0.5000080604540845,0.5000271125554657,56.25,21.45,-9.45
0.04345702999999997,0.548828125,0.302734375,0.499975951719102,0.4999898078007671,0.5000550244717289,-7.05,27.3,16.65,0.30517578,0.5192871099999999,0.978027345,0.4999810811545071,0.5000288445329489,0.5000489625069043,85.95,1.2,78.45,-0.006103515000000016,0.5197753900000001,0.52294922,0.5000144556022632,0.5000216501112393,0.4999784831446491,56.25,21.0,-8.4
0.04125976500000002,0.54248047,0.297851565,0.4999516371009602,0.4999835459084768,0.5000178529729187,-6.3,28.05,17.4,0.30102539,0.505371095,0.97216797,0.5000001332558884,0.4999958698528581,0.5000548913031069,85.35,0.9,78.15,0.005615234999999984,0.5224609400000001,0.5234375,0.5000075941893748,0.5000398361802457,0.49999473739597294,55.65,19.8,-10.35
