IMU1_AccX,IMU1_AccY,IMU1_AccZ,IMU1_GyrX,IMU1_GyrY,IMU1_GyrZ,IMU1_MagX,IMU1_MagY,IMU1_MagZ,IMU2_AccX,IMU2_AccY,IMU2_AccZ,IMU2_GyrX,IMU2_GyrY,IMU2_GyrZ,IMU2_MagX,IMU2_MagY,IMU2_MagZ,IMU3_AccX,IMU3_AccY,IMU3_AccZ,IMU3_GyrX,IMU3_GyrY,IMU3_GyrZ,IMU3_MagX,IMU3_MagY,IMU3_MagZ
-817.38281,94.23828,-380.85937,0.075275701572665,0.1088499022615791,0.1305666850782942,-7.05,27.75,17.7,-422.36328,-15.625,913.08594,-0.0303767574992605,-0.0082602942838387,0.0002665117767795,85.95,0.9,78.15,-998.53516,16.11328,97.65625,-0.0178529729186499,-0.0365053066347134,0.007860613885132,56.1,19.35,-9.3
-833.00781,122.55859,-380.85937,0.0077274452632048,0.1048529237415869,0.0522267089379027,-5.7,28.2,17.85,-415.03906,-23.92578,927.24609,-0.0462311538914518,0.037970859607613,-0.0018652333716063,85.5,0.3,78.6,-1022.94922,10.25391,79.10156,0.0226493122360556,-0.074209828998472,-0.0369049870334201,56.25,19.5,-7.65
-836.91406,97.65625,-403.32031,0.0170536121212365,0.1510842521659639,0.0838025076332833,-5.7,27.9,18.3,-409.66797,-33.20313,952.63672,-0.0672817445326806,0.0972588216332344,-0.0189188454928429,87.3,1.5,78.6,-1027.83203,17.08984,98.63281,0.0866002704242302,-0.1247044731866956,-0.0598208110462552,55.8,22.2,-6.9
-860.83984,56.64063,-430.66406,0.014522186574144,0.1690703937065411,0.022382800459276,-6.6,26.55,18.15,-419.43359,-42.48047,961.42578,-0.0560903443030425,0.0503614755662963,-0.089797888146809,84.9,-0.15,76.35,-1028.32031,17.08984,97.16797,0.1509510835440367,-0.2579357524340095,0.0034639549664331,54.9,20.1,-6.15
-907.71484,54.19922,-426.75781,-0.0238483534321757,0.2416815011101863,-0.031309286918601,-6.6,26.55,18.15,-407.22656,-32.22656,954.10156,-0.016787100344457,0.0122572728038309,-0.08420218803199,84.9,0.9,78.15,-1024.41406,-6.34766,61.03516,0.1569464640575625,-0.2932420178726028,0.0117244237831971,56.1,21.15,-6.75
-909.66797,20.01953,-422.36328,-0.0049295079393327,0.1626753327943086,-0.0014655529728996,-6.6,26.55,18.15,-413.08594,-26.36719,939.45312,0.013456313999951,-0.0454317930940384,-0.0768744231674918,86.85,1.05,78.0,-1014.16016,13.67187,52.73438,0.1914533686987423,-0.1430902951259795,0.0572893854991626,56.1,21.15,-6.75
-925.78125,22.94922,-433.59375,0.0648836621404404,0.1279019163763492,-0.0662158719584876,-5.7,27.15,18.6,-407.22656,-39.55078,933.10547,0.0186523337160634,0.0353062654385932,-0.132165406673121,86.85,1.05,78.0,-1016.60156,20.50781,67.87109,0.2363521382392217,-0.2267596341373356,0.0325085026476463,55.8,19.95,-8.4
-908.69141,31.25,-429.19922,0.0354394340605204,0.2030444493270871,-0.1032542021467601,-6.15,27.15,17.85,-432.12891,-41.99219,939.45312,0.0151883787496302,0.0830031468358699,-0.1304333419234418,87.45,0.9,78.9,-1030.76172,30.76172,60.05859,0.2278255067115286,-0.146687593247265,0.0341072242424731,55.8,19.95,-8.4
-938.47656,32.22656,-437.98828,0.1059187963157798,0.1434899755246862,-0.0005328490206338,-5.55,27.3,17.1,-424.80469,-44.43359,958.00781,0.0321086477160144,0.0578224090527217,-0.1119141768293056,86.25,0.75,77.25,-1033.20313,26.36719,82.03125,0.2656630231642893,-0.1184425808963904,0.0654165111610742,55.8,20.7,-6.6
-969.72656,25.39063,-481.44531,0.1325650870718277,0.1516171011865978,0.0476967068643514,-6.0,27.75,16.35,-416.50391,-31.25,957.51953,0.0389035635598788,0.0423675185263119,-0.1702694349026612,84.6,-0.15,78.45,-1029.29688,37.10938,70.80078,0.2540719425359445,-0.1112481591867445,0.0173201238980161,56.25,20.25,-6.3
-1016.11328,-8.30078,-484.375,0.114312433754471,0.1529494855375703,-0.0727442760255724,-6.0,27.75,16.35,-405.27344,-13.67187,941.89453,0.0659495347146333,-0.0053291883380394,-0.1694700741052478,84.6,-0.15,78.45,-1014.16016,29.78516,76.17188,0.245411967853399,-0.1318988948963414,0.1029876903699806,56.7,19.8,-8.25
-1029.29688,3.90625,-458.98437,0.2145023613335047,0.0301102457224809,0.0205175670876697,-7.5,26.4,17.55,-411.62109,-9.76562,932.12891,0.0873996312216436,-0.0110582316077108,-0.1975819178341952,84.6,-0.15,78.45,-996.58203,35.64453,70.80078,0.2314226302998889,-0.064750318985588,0.0311761182966739,56.1,20.1,-7.2
-1011.71875,-15.625,-437.01172,0.2195650378947646,-0.006128723668378,0.0302434143444081,-7.2,27.45,16.5,-407.22656,6.34766,932.61719,0.0887320155726161,-0.0370383301882724,-0.2034441297257938,85.05,1.05,78.0,-993.65234,35.64453,68.35938,0.2428805423063064,-0.0166539317225298,0.0301102457224809,56.1,20.1,-7.2
-962.40234,23.92578,-453.61328,0.1725345232058994,-0.0315757986953806,0.0467641774450108,-7.05,28.05,18.15,-392.57812,9.27734,913.57422,0.1167105161467112,-0.041834669505678,-0.176797838969746,85.35,-0.15,79.5,-989.74609,17.57813,48.82813,0.264330813346242,0.041301645952119,0.0440995832759911,56.1,19.35,-6.45
-924.80469,53.71094,-433.59375,0.1512174207878911,-0.068614128883653,-0.0179861415405771,-7.05,28.05,18.15,-406.25,-24.41406,901.36719,0.0876661429984231,-0.0261132672024887,-0.1762649899491121,85.35,-0.15,79.5,-1008.30078,47.85156,79.58984,0.3053659475215814,0.0880658233971298,0.0046631706954784,56.1,19.35,-6.45
-893.06641,57.61719,-442.87109,0.2195650378947646,-0.0812710820861907,0.0241148652089552,-7.05,27.3,18.75,-410.64453,-6.34766,922.36328,0.054091942309509,0.0110582316077108,-0.2046431709219139,86.55,0.3,78.0,-1011.23047,48.33984,96.19141,0.2987043748325695,0.0474303696204971,0.0439662401211387,55.5,19.2,-6.3
-927.73437,47.85156,-460.44922,0.116577347524784,-0.0718115720733066,-0.0262466103573411,-7.05,27.75,17.1,-418.94531,3.90625,933.10547,0.0929953313364626,0.0205175670876697,-0.2356861205966606,84.6,0.15,79.5,-1018.55469,76.66016,104.00391,0.3409387247369543,-0.0831363154577971,-0.0390367321818059,56.25,19.2,-7.95
-931.64062,11.71875,-438.96484,0.0699463387017003,-0.0836691644784309,0.0131899767560967,-6.45,27.15,17.55,-409.66797,22.46094,954.10156,0.0794058487145844,-0.0013323843509724,-0.2098391906380262,84.6,0.45,78.15,-1006.34766,92.77344,86.42578,0.3477334660478934,-0.1216401986189692,0.0397029243572922,56.4,19.35,-6.45
-941.89453,-14.64844,-430.66406,0.1217733672408963,-0.1660061191388146,0.0354394340605204,-6.15,28.65,16.8,-406.25,35.15625,964.84375,0.0282450123508746,-0.0214502710399355,-0.2272924831579695,84.6,0.45,78.15,-1014.64844,86.91406,97.16797,0.350264891594986,-0.0616860444178615,-0.0125237845806105,56.7,20.55,-6.75
-942.38281,-13.18359,-396.48437,0.051827028539196,-0.1000565844241813,0.0015987215948268,-6.15,28.65,16.8,-387.20703,76.66016,969.23828,0.0297105653237742,0.0062618922903052,-0.2157014025296248,85.65,0.15,77.4,-1008.78906,96.67969,80.07813,0.2723245958533012,-0.0720780838500862,-0.0331745202902074,56.7,20.55,-6.75
-909.66797,-14.16016,-366.21094,0.0995237354035474,-0.19132002554389,-0.0471638578437175,-6.45,24.9,16.2,-382.32422,83.49609,950.19531,0.032908183046353,-0.0189188454928429,-0.2271593145360423,85.5,0.3,78.6,-989.25781,104.98047,74.21875,0.2684609604881613,-0.0682144484849463,-0.0034639549664331,56.7,19.35,-7.5
-889.64844,2.92969,-377.92969,0.0904640803222952,-0.1811944978884449,-0.0222496318373489,-6.6,27.75,17.1,-384.76562,75.19531,927.24609,-0.0331745202902074,-0.0170536121212365,-0.1468207618691921,86.25,-0.3,78.3,-970.21484,117.1875,67.38281,0.2595344740288364,-0.0170536121212365,-0.0213169278850831,55.35,18.6,-6.15
-870.60547,11.23047,-359.86328,0.0623522365933478,-0.1299004929028079,-0.0366386497895657,-5.7,27.15,18.9,-379.88281,74.21875,889.16016,0.015055210127703,-0.0450321126953316,-0.0960597804371143,85.5,-1.5,77.25,-977.05078,108.88672,70.3125,0.2356861205966606,0.0480965617959833,-0.0422343499043847,55.35,18.6,-6.15
-883.78906,2.92969,-369.14062,0.0620857248165682,-0.0675482563094601,-0.0903307371674429,-5.7,27.15,18.9,-360.35156,58.59375,905.27344,0.0217166082837898,0.0756753819713717,-0.0871332939777893,85.05,-1.5,79.05,-989.25781,90.82031,74.21875,0.2296907400831349,0.0307764378979672,-0.0166539317225298,56.25,19.5,-6.6
-908.69141,2.92969,-401.85547,0.049162259837251,-0.1059187963157798,0.0259800985805615,-6.0,26.25,17.4,-375.48828,31.73828,933.10547,0.0590214502488418,0.0550244717288496,-0.1071178375118999,85.95,0.15,78.9,-972.16797,103.02734,79.58984,0.2681944487113818,0.1183094122744632,0.0029311059457992,56.7,17.85,-6.15
-942.38281,-7.32422,-407.22656,0.0019984019935335,-0.0996569040254746,-0.0241148652089552,-7.2,25.35,16.5,-296.875,122.07031,932.61719,-0.0347734164179594,0.0433002224785777,0.0103920394322246,85.95,0.15,78.9,-988.28125,91.30859,94.72656,0.1782633919426456,0.1370949146124538,-0.0198513749121835,56.55,18.45,-5.55
-953.61328,7.32422,-421.875,0.0206509102425221,-0.061419532641082,-0.0350397536618137,-6.6,26.55,17.1,-364.25781,-28.32031,905.76172,0.0242480338308824,-0.0985910314512816,-0.0708790426539661,85.5,0.0,77.25,-1006.83594,64.45313,93.26172,0.1332312792473139,0.1738667330239467,-0.0371714988101996,55.8,17.7,-6.6
-958.00781,-10.74219,-405.76172,0.0282450123508746,-0.1550812306859561,0.0122572728038309,-5.7,26.4,17.85,-464.35547,-1.46484,899.90234,-0.1064518198693389,-0.0716784034513795,0.0129234649793172,85.05,-2.25,78.3,-1006.83594,83.49609,92.77344,0.0893982077481023,0.1097826062138449,-0.0171867807431637,56.1,19.35,-8.55
-931.64062,-20.50781,-397.46094,-0.005595700114819,-0.1405590441118121,-0.0102588708102974,-5.7,26.4,17.85,-431.15234,18.06641,934.57031,0.0193185258915496,0.0909969293429291,-0.0394364125805126,85.8,-1.5,77.25,-1003.41797,64.94141,92.28516,0.1055191159170731,0.1160443239712249,-0.0258469299586344,57.45,18.6,-6.75
-928.71094,-5.85937,-391.60156,0.0023980823922402,-0.1228392398150893,0.0385038831611721,-6.3,26.25,18.15,-414.0625,-38.57422,972.65625,-0.0735436368229858,-0.0047963393174056,-0.0345069046411798,85.65,-0.15,78.45,-1034.66797,76.66016,119.14063,0.1159111553492978,0.063018428768834,-0.0365053066347134,57.45,18.6,-6.75
-905.27344,-5.85937,-366.21094,0.0499617951675896,-0.1666723113143009,0.0568897051004559,-6.0,25.8,18.15,-396.97266,15.625,946.77734,-0.0373046674321268,-0.0059953805135257,0.0090596550812521,85.5,-0.3,79.8,-1016.11328,85.44922,107.91016,0.1236386006125027,-0.0342403928644003,-0.0330413516682802,56.7,17.85,-6.75
-880.37109,7.32422,-346.67969,-0.0162542513238231,-0.1091164140383586,0.03064326927604,-5.1,27.45,16.8,-371.58203,-48.82813,966.79687,-0.0608866836204481,-0.0146553551960711,-0.0035972981212855,85.95,-1.2,78.15,-1011.71875,88.37891,108.88672,0.1372282577673061,-0.0656830229378538,-0.0403691165327784,56.7,17.85,-6.75
-884.27734,25.39063,-362.79297,-0.0051960197161123,-0.0652833425391471,-0.015055210127703,-5.1,27.45,16.8,-393.06641,-25.87891,985.83984,-0.0690138092823597,-0.0071944217096458,-0.063018428768834,85.95,-1.2,78.15,-1023.4375,99.60938,118.16406,0.1276355791324949,-0.0847350370526239,-0.0089264864593249,57.0,18.0,-8.4
-908.69141,20.01953,-376.95312,0.0247810573844414,-0.0820704428836041,0.0832694840797242,-6.3,26.55,16.65,-359.86328,-36.13281,960.9375,-0.0700796818565527,-0.0073277648644981,0.0325085026476463,85.95,-1.2,77.7,-1039.0625,64.94141,124.51172,0.0917962901403425,-0.0551578148837019,-0.0460979852695246,56.55,18.45,-5.85
-943.35937,10.25391,-371.09375,0.0169204434993094,-0.0511608363637097,0.0403691165327784,-5.7,26.4,15.75,-361.32812,-37.59766,955.56641,-0.0439662401211387,-0.0218499514386422,-0.0700796818565527,85.05,-0.3,78.0,-995.11719,51.75781,109.375,0.0616860444178615,-0.0448989440734045,-0.0375711792089063,55.8,18.45,-7.65
-934.57031,-9.27734,-365.23437,-0.0458314734927451,-0.0433002224785777,0.0210505906412288,-6.9,26.7,18.3,-361.32812,-25.39063,963.37891,0.0034639549664331,-0.0262466103573411,-0.0175864611418704,86.25,-1.05,77.25,-1001.46484,50.29297,116.21094,0.0862005900255235,-0.0293108849250675,-0.0057288687367461,57.0,18.75,-6.9
-943.35937,7.8125,-361.32812,0.045165455850184,-0.1140459219776914,0.031309286918601,-5.1,26.1,17.25,-364.25781,-23.4375,960.44922,0.0377045223637587,-0.0142556747973644,-0.0526263893366094,86.25,-1.05,77.25,-1008.78906,45.89844,124.02344,0.0691469779042869,-0.0122572728038309,-0.0438330714992115,55.8,17.4,-5.85
-951.66016,0.97656,-366.21094,0.013456313999951,-0.0783399761403914,0.055823832526263,-5.1,26.1,17.25,-375.97656,-40.52734,961.91406,0.0321086477160144,-0.0314426300734534,-0.1181760691196108,85.5,-1.05,78.0,-997.55859,29.78516,105.95703,0.1392266597608396,-0.0606201718436686,0.0119907610270514,55.65,19.05,-7.2
-950.68359,-2.92969,-368.16406,0.0551578148837019,-0.1064518198693389,0.0421010067495324,-6.15,26.1,17.55,-365.23437,-47.85156,952.63672,0.0089264864593249,-0.0335742006889141,-0.0662158719584876,85.05,0.0,78.6,-981.44531,27.34375,107.42188,0.1365620655918199,-0.0862005900255235,-0.0282450123508746,55.65,19.05,-7.2
-929.19922,0.97656,-354.49219,0.0728774446474996,-0.1352296812408474,0.086467101802303,-5.7,24.6,17.55,-348.14453,-14.16016,937.5,0.0576890658978693,-0.015055210127703,-0.0516936853843436,85.05,0.0,78.6,-998.04687,39.0625,138.18359,0.1264363634034496,-0.0373046674321268,-0.0091929982361045,56.1,17.55,-7.2
-927.73437,4.88281,-347.65625,0.0297105653237742,-0.1191087730718766,0.0655498543159266,-5.1,25.65,16.2,-393.55469,0.97656,896.48437,0.0254472495599277,-0.0357059458372999,-0.0760750623700784,84.0,-1.8,79.05,-999.51172,43.45703,132.8125,0.1845252842329509,-0.0851347174513306,0.0500949637895168,57.15,17.1,-8.25
-906.73828,12.69531,-349.60937,0.0474303696204971,-0.1101822866125516,0.057422728654015,-6.6,26.55,16.2,-391.60156,-20.50781,905.27344,-0.0205175670876697,-0.0041301471419193,-0.1067181571131932,84.6,0.15,78.45,-978.02734,37.10938,108.88672,0.1997136629825811,-0.1067181571131932,0.0210505906412288,57.15,17.55,-6.75
-927.24609,21.48438,-351.5625,0.1197749652473628,-0.110981647409965,0.1171101965454179,-6.6,26.55,18.45,-365.23437,-39.55078,940.91797,-0.0385038831611721,0.0053291883380394,-0.0744763407752516,85.05,-1.8,79.05,-979.98047,35.15625,110.83984,0.1604104190239956,-0.1025880099712739,0.0410353087082646,56.4,18.6,-7.2
-913.57422,21.97266,-349.60937,0.0425006871482391,-0.0872664625997164,0.049162259837251,-6.6,26.55,18.45,-355.95703,-33.69141,938.96484,-0.0085268060606182,0.0229158240128351,-0.0780734643636119,85.05,-1.8,79.05,-993.16406,31.73828,119.62891,0.1978484296109748,-0.1313660458757076,0.0173201238980161,56.4,18.6,-7.2
-920.89844,20.99609,-360.35156,0.0676814249313873,-0.1085833904847996,0.0250473946282958,-4.35,24.6,17.25,-382.32422,-40.52734,938.47656,-0.0041301471419193,0.0155880591483369,-0.0879326547752027,85.35,-0.9,78.45,-999.51172,15.625,123.53516,0.1811944978884449,-0.2175666359012311,0.0226493122360556,55.8,18.0,-6.3
-927.73437,9.27734,-375.0,0.1008561197545199,-0.146687593247265,0.0727442760255724,-5.4,26.4,17.25,-368.65234,-42.96875,974.12109,0.0442327518979182,-0.0359724576140795,-0.1164441789028568,87.3,-1.5,78.0,-994.62891,56.15234,102.05078,0.23981626773858,-0.2395497559618005,0.0646171503636608,58.35,17.7,-7.65
-928.22266,-7.8125,-395.01953,0.0495619402359577,-0.1155114749505911,0.0516936853843436,-6.0,25.5,16.65,-401.36719,-35.15625,944.33594,0.0319754790940873,-0.0422343499043847,-0.1052526041402936,85.65,-2.7,78.15,-1012.69531,67.87109,104.49219,0.1874563901787501,-0.207441108245786,0.0259800985805615,58.35,17.7,-7.65
-924.31641,-24.41406,-378.90625,0.0656830229378538,-0.0767412545455646,-0.0039969785199922,-6.0,25.5,16.65,-396.48437,-16.60156,949.70703,0.0676814249313873,-0.0439662401211387,-0.1283017713079811,85.65,-2.7,78.15,-1008.30078,65.91797,90.33203,0.2188988457192784,-0.2067749160702998,0.0738101485997654,55.35,17.1,-6.15
-933.10547,-33.20313,-382.32422,0.1059187963157798,-0.1396263401595463,0.0347734164179594,-4.05,25.35,18.6,-414.0625,-38.57422,944.82422,0.05475795995207,-0.0297105653237742,-0.1080505414641657,87.3,-1.5,78.3,-1006.34766,77.14844,84.47266,0.1560137601052967,-0.1537488463349836,-0.0563568560798221,55.35,17.1,-6.15
-925.78125,-26.36719,-383.30078,0.1083170532409452,-0.1601439072472161,0.0648836621404404,-5.4,25.35,18.3,-400.87891,-24.90234,965.33203,0.0403691165327784,-0.0181194846954295,-0.0778071271197576,85.5,0.3,78.3,-1007.32422,65.91797,91.79688,0.1312327027208552,-0.0791393369378048,-0.0047963393174056,56.1,16.8,-8.25
-922.85156,-10.74219,-386.23047,0.0615528757959344,-0.1075176924435318,0.0130566336012443,-5.4,26.1,17.55,-402.83203,-2.44141,955.56641,0.0772741035661985,-0.0672817445326806,-0.0806048899107045,86.85,-0.3,77.55,-1000.0,77.14844,68.84766,0.1356293616395541,0.0151883787496302,-0.0318423104721601,57.45,17.85,-6.15
-955.56641,13.67187,-383.30078,0.1292343007273217,-0.1654732701181807,0.0787396565390981,-6.0,26.25,17.4,-399.90234,-17.57813,948.24219,0.0436999028772844,-0.0566231933236764,-0.0679479367081668,86.85,-0.3,77.55,-1018.06641,90.33203,120.11719,0.1313660458757076,-0.0991240550048407,-0.0149218669728507,57.3,18.0,-6.3
-948.24219,9.76562,-393.55469,0.1372282577673061,-0.191853049097449,0.1233720888357231,-6.0,26.25,17.4,-397.94922,-1.46484,917.48047,0.0463644970463041,-0.0650168307623675,-0.0940612039106556,85.35,-0.9,78.9,-990.23437,80.07813,88.37891,0.1662726309155942,-0.049162259837251,0.0598208110462552,57.15,16.8,-7.8
-938.47656,18.06641,-385.25391,0.0559571756811154,-0.1318988948963414,0.0624854052152749,-5.7,25.65,18.6,-407.22656,-7.32422,922.36328,0.0463644970463041,-0.03064326927604,-0.0925956509377559,85.65,-2.4,78.15,-993.16406,75.68359,83.00781,0.1501515482136981,-0.0383705400063197,0.0073277648644981,57.15,16.8,-7.8
-913.08594,13.18359,-383.78906,0.0956601000384076,-0.1958498530845161,0.1096492630589925,-5.55,27.0,17.4,-393.55469,-17.57813,927.73437,0.0113245688515652,0.0110582316077108,-0.0927289940926083,85.8,-2.25,78.6,-995.60547,89.35547,83.00781,0.1183094122744632,-0.0433002224785777,0.0309096065198943,56.55,17.7,-6.3
-905.27344,10.25391,-373.53516,0.0616860444178615,-0.1545482071323971,0.0836691644784309,-5.55,26.25,17.4,-395.50781,-4.88281,944.82422,0.0303767574992605,-0.0251807377831481,-0.0804717212887773,86.7,-1.95,78.15,-980.46875,79.58984,72.26563,0.0299770771005538,-0.0330413516682802,0.0325085026476463,56.55,17.7,-6.3
-917.48047,-6.34766,-378.90625,0.0230489926347623,-0.1011224569983742,0.0266462907560478,-5.55,26.25,17.4,-390.625,-12.20703,932.12891,0.0227824808579827,-0.0494287716140306,-0.037970859607613,84.9,-1.95,78.9,-976.5625,87.40234,90.33203,0.0005328490206338,0.0159877395470436,-0.0035972981212855,57.15,17.1,-6.75
-916.99219,-4.88281,-383.78906,0.1095160944370653,-0.1445558480988791,0.0807380585326316,-3.15,27.0,17.7,-399.41406,-11.23047,927.73437,0.0532925815120956,-0.0245145456076619,-0.0983246942074273,86.25,-0.75,78.3,-980.46875,86.91406,62.98828,-0.0417013263508257,0.0374380105869791,-0.0005328490206338,57.45,16.35,-6.45
-920.41016,-7.8125,-370.11719,0.1338974714228001,-0.1672051603349347,0.0602204914449619,-5.1,25.35,17.25,-391.60156,-18.06641,911.13281,0.0119907610270514,0.0106585512090041,-0.0470306892217904,86.25,-0.75,78.3,-966.30859,89.35547,56.15234,-0.073676805444913,0.1542816953556175,-0.0023980823922402,56.1,16.35,-7.2
-916.99219,1.46484,-375.97656,0.0783399761403914,-0.0743429976203992,0.0310429496747467,-5.7,24.6,17.25,-407.71484,-12.69531,916.01562,-0.0058622118915985,0.0258469299586344,-0.0818039311068246,84.45,-1.5,79.8,-1002.92969,70.80078,78.125,-0.1280352595312016,0.1582786738756097,-0.0315757986953806,57.9,17.1,-6.45
-928.22266,2.92969,-383.78906,0.1737335644020195,-0.1291011321053945,0.0093261668580317,-4.2,25.05,18.15,-411.62109,7.32422,930.17578,0.0017320647496791,0.0135896571548034,-0.0115910806283447,85.65,-0.9,78.9,-994.14062,70.80078,75.68359,-0.114312433754471,0.0838025076332833,-0.0623522365933478,58.05,18.45,-5.25
-933.59375,8.78906,-374.02344,0.1733338840033128,-0.0756753819713717,0.0237151848102485,-4.2,25.05,18.15,-410.64453,18.06641,929.19922,-0.0118575924051242,0.0217166082837898,-0.0031976177225788,85.5,-1.5,79.35,-998.53516,70.80078,62.5,-0.1609432680446295,0.0983246942074273,-0.057422728654015,57.15,17.85,-7.5
-940.91797,7.32422,-396.97266,0.1295008125041012,-0.0542251109314362,-0.0277121633302407,-4.2,25.05,17.1,-402.83203,13.18359,935.54687,-0.0105252080541518,0.0222496318373489,0.0042633157638465,85.5,-1.5,79.35,-1009.27734,79.58984,87.40234,-0.1440229990782452,0.0832694840797242,-0.0695466583029936,57.15,17.85,-7.5
-908.20312,14.64844,-374.51172,0.1280352595312016,-0.0807380585326316,-0.0294440535469947,-4.2,24.75,17.4,-397.46094,1.95312,923.82812,-0.0126569532025376,-0.0508943245869302,0.0037304667432126,86.25,-0.75,78.0,-1011.23047,70.3125,101.07422,-0.1029876903699806,0.079272505559732,-0.0779402957416847,58.05,18.45,-7.95
-937.98828,12.69531,-354.98047,0.0943277156874351,-0.0900643999235885,-0.0459648166475974,-4.05,24.9,17.85,-375.97656,-0.48828,937.01172,-0.0226493122360556,-0.0219831200605693,0.0385038831611721,85.35,0.15,78.45,-994.14062,75.68359,94.72656,-0.0778071271197576,0.0563568560798221,-0.0314426300734534,56.55,16.95,-5.85
-936.03516,13.18359,-346.67969,0.0536922619108023,-0.0247810573844414,-0.0289112045263608,-4.05,24.9,17.85,-387.20703,-30.27344,948.73047,-0.0397029243572922,-0.0293108849250675,0.0369049870334201,85.35,0.15,78.45,-983.88672,53.22266,81.54297,-0.1360290420382608,0.1185757495183175,-0.0342403928644003,56.55,16.95,-7.95
-953.125,-4.88281,-351.07422,0.0899310567687362,-0.0506278128101507,0.0599539796681824,-5.25,25.8,17.1,-386.71875,-29.29688,943.35937,-0.0014655529728996,-0.0102588708102974,0.0393032439585855,84.75,-3.0,78.0,-998.04687,35.64453,114.25781,-0.1147121141531777,0.1931852589154963,-0.0526263893366094,57.6,16.2,-6.3
-942.38281,-2.92969,-363.76953,0.0606201718436686,-0.032908183046353,0.0031976177225788,-4.65,25.65,17.25,-391.60156,-51.75781,921.875,0.0105252080541518,-0.0210505906412288,0.0301102457224809,85.8,-1.8,76.95,-998.53516,53.71094,104.00391,-0.11990813386929,0.1834594116587579,-0.0397029243572922,57.6,16.2,-6.3
-957.51953,-30.27344,-343.26172,0.0638177895662474,0.0253139064050753,-0.0444992636746978,-4.5,25.5,18.15,-385.74219,-43.94531,923.82812,0.0087933178373978,-0.029044373148288,0.0363721380127862,84.0,-2.25,78.3,-995.60547,55.17578,103.02734,-0.0997902471803269,0.2151683789760657,-0.0542251109314362,56.7,17.55,-6.75
-954.10156,-14.64844,-322.75391,0.1067181571131932,-0.0333078634450597,0.0690138092823597,-4.05,23.85,17.85,-379.88281,-49.80469,940.42969,0.0289112045263608,0.0138559943986577,-0.023448673033469,84.0,-2.25,78.3,-1005.37109,79.10156,134.27734,-0.1869233666251911,0.2592679622520568,-0.0322419908708668,56.55,16.65,-5.55
-958.98437,-4.39453,-340.33203,0.0528927265804637,-0.0309096065198943,0.0278453319521679,-4.05,23.85,17.85,-360.83984,-32.22656,958.00781,0.015055210127703,-0.0086599746825454,-0.0133231453780239,86.7,-0.9,77.7,-1008.30078,66.89453,136.71875,-0.181327666510372,0.1778637115439389,-0.0523598775598298,56.55,16.65,-5.55
-943.84766,-5.37109,-331.05469,0.0198513749121835,-0.0053291883380394,-0.0067947413109391,-5.1,25.35,17.55,-348.63281,-16.60156,959.47266,0.0291777163031404,-0.006128723668378,-0.0398360929792193,85.05,-2.55,79.35,-989.25781,64.94141,122.07031,-0.1692037368613934,0.1372282577673061,-0.0728774446474996,57.15,17.55,-8.25
-937.01172,6.34766,-312.5,-0.0390367321818059,0.0161209081689708,0.0343737360192527,-5.1,26.1,18.9,-368.16406,-7.8125,952.63672,0.023448673033469,-0.0131899767560967,0.0019984019935335,84.9,-2.7,77.7,-1004.39453,78.61328,118.65234,-0.1686707133078344,0.1630750131930153,-0.0626187483701273,57.15,17.55,-8.25
-951.66016,17.57813,-348.14453,0.0287778613715085,0.0103920394322246,0.0121241041819038,-4.05,26.1,17.55,-359.86328,-3.90625,957.03125,0.063018428768834,0.0030642745677264,-0.0274456515534612,85.5,-2.25,78.3,-1005.85937,62.01172,129.88281,-0.1758653095504054,0.182393539084565,-0.0197182062902563,56.55,16.95,-7.35
-972.16797,25.39063,-341.30859,-0.031309286918601,0.0281118437289474,-0.0103920394322246,-4.05,26.1,17.55,-369.62891,5.85937,939.45312,0.0791393369378048,-0.0089264864593249,0.0253139064050753,85.65,-2.7,78.9,-1012.20703,68.35938,123.53516,-0.1473537854227512,0.0955267568835552,-0.0199847180670358,56.4,18.6,-6.15
-953.61328,-0.48828,-319.33594,-0.0213169278850831,0.0504946441882235,0.0170536121212365,-4.95,26.55,18.15,-352.53906,-3.90625,948.24219,0.0401026047559989,-0.0174532925199432,-0.0138559943986577,85.8,-1.05,78.3,-1010.74219,56.64063,131.83594,-0.1329647674705344,0.1067181571131932,-0.0382373713843925,57.0,18.0,-8.7
-939.45312,14.16016,-328.61328,-0.0222496318373489,0.0506278128101507,0.0058622118915985,-4.5,25.8,19.2,-355.95703,-2.44141,959.96094,0.0282450123508746,-0.0345069046411798,0.0137228257767306,85.8,-1.05,78.3,-1022.46094,62.01172,128.90625,-0.1704027780575135,0.0570230482553083,-0.0214502710399355,56.25,19.2,-7.65
-930.17578,-2.92969,-306.15234,-0.0667488955120467,0.1051194355183664,-0.0511608363637097,-4.35,27.15,18.6,-388.18359,-3.41797,962.89062,0.0810045703094112,-0.0664823837352672,0.0354394340605204,86.7,-1.2,78.15,-1017.08984,61.52344,138.67187,-0.1875895588006773,-0.0033307863445059,-0.0562235129249697,54.6,16.8,-7.8
-905.76172,1.95312,-316.40625,-0.0542251109314362,0.1416247421530798,-0.0616860444178615,-4.65,27.15,18.6,-355.95703,8.78906,977.53906,0.0425006871482391,-0.0992572236267679,0.0054625314928918,85.05,-1.05,78.3,-1014.64844,60.54688,135.25391,-0.2015788963541875,-0.1052526041402936,0.0018652333716063,56.55,18.45,-7.65
-896.48437,1.46484,-319.82422,-0.0083936374386911,0.1566799522807829,-0.0335742006889141,-4.65,26.4,16.8,-375.0,-6.34766,961.91406,-0.0026645941690197,-0.1033873707686873,0.0523598775598298,85.35,-0.45,79.5,-1010.74219,57.61719,124.02344,-0.1910535137671104,-0.1301670046795875,-0.0365053066347134,56.55,18.45,-7.65
-909.17969,-11.23047,-329.58984,-0.0414349891069713,0.2122374475631916,-0.0571562168772355,-4.65,26.4,16.8,-381.83594,3.41797,983.39844,0.0063950609122324,-0.091529778363563,0.0535589187559499,85.35,-0.45,79.5,-1026.85547,63.47656,126.95313,-0.1700030976588069,-0.1586783542743164,-0.0299770771005538,56.55,19.2,-6.9
-949.21875,3.90625,-359.375,-0.0210505906412288,0.2380842029889009,-0.1009892883764471,-5.55,25.5,17.7,-354.98047,-16.11328,1003.90625,-0.031309286918601,-0.0660827033365605,0.032375159492794,84.15,-2.7,79.2,-1023.92578,60.54688,121.58203,-0.1437564873014657,-0.2288912047527963,-0.0034639549664331,55.5,19.5,-6.6
-965.33203,-12.20703,-370.60547,0.0322419908708668,0.1448223598756587,-0.0459648166475974,-4.2,26.55,18.15,-333.98437,-16.11328,975.09766,-0.0419678381276052,-0.0443659205198454,0.0510274932088574,85.5,-1.5,78.0,-999.02344,51.75781,96.67969,-0.1401591891801802,-0.2756553821978072,0.025713586803782,56.4,17.1,-6.75
-971.19141,17.57813,-348.63281,-0.0303767574992605,0.1056524590719255,-0.0911300979648563,-4.95,25.05,18.15,-324.21875,-1.46484,956.54297,-0.0656830229378538,-0.0691469779042869,0.0499617951675896,85.5,-1.5,78.0,-980.95703,54.6875,100.09766,-0.1787964154962047,-0.2344869048676153,-0.0173201238980161,56.55,16.65,-7.35
-937.01172,6.83594,-330.56641,-0.0658161915597809,0.1151117945518844,-0.0417013263508257,-4.95,25.05,18.15,-332.51953,-20.50781,946.28906,-0.0289112045263608,-0.0708790426539661,0.074209828998472,85.5,-1.5,78.0,-983.39844,62.98828,107.91016,-0.1925190667400101,-0.1007227765996675,-0.0119907610270514,56.25,19.2,-4.8
-913.08594,-7.32422,-327.63672,-0.0339738810876208,-0.0042633157638465,-0.0202512298438154,-4.5,25.8,17.7,-319.82422,1.95312,939.45312,-0.0723445956268657,0.0139893375535101,0.0672817445326806,84.15,-0.9,78.45,-959.96094,52.73438,104.49219,-0.1958498530845161,-0.1434899755246862,-0.0289112045263608,56.1,16.8,-5.7
-921.38672,-10.25391,-342.77344,-0.0398360929792193,0.0885988469506889,-0.0860674214035963,-3.75,25.05,17.7,-329.10156,-35.64453,947.75391,0.0073277648644981,-0.0213169278850831,0.0554241521275563,85.65,-1.2,78.9,-945.3125,65.91797,99.60938,-0.1966493884148547,-0.0652833425391471,0.0221164632154217,56.1,16.8,-5.7
-926.75781,-46.38672,-343.75,-0.0398360929792193,0.0983246942074273,-0.1235054319905755,-4.05,25.35,18.6,-333.00781,-38.57422,927.24609,0.0191853572696224,0.0171867807431637,0.0791393369378048,84.75,-1.5,79.35,-954.58984,63.47656,88.37891,-0.1893216235503565,-0.0133231453780239,-0.0314426300734534,57.3,17.4,-5.55
-916.01562,-42.96875,-354.49219,0.0219831200605693,0.0285115241276541,-0.0375711792089063,-6.0,25.8,17.7,-327.63672,-15.625,941.89453,-0.0063950609122324,-0.0041301471419193,0.0516936853843436,84.75,-1.5,79.35,-967.28516,33.20313,103.02734,-0.200779535556774,0.0393032439585855,-0.0109248884528585,57.3,17.4,-5.55
-925.29297,-52.73438,-366.69922,-0.0179861415405771,0.0771409349442713,-0.0776737839649052,-6.0,25.8,17.7,-345.21484,-10.25391,925.29297,-0.0157212277702641,0.0410353087082646,0.057422728654015,84.9,-2.4,78.9,-977.53906,27.83203,98.63281,-0.1496186991930643,0.0543582795533633,-0.0403691165327784,57.0,19.2,-6.6
-930.66406,-38.57422,-351.5625,-0.0390367321818059,0.060753514998521,-0.0646171503636608,-4.95,27.0,18.15,-383.78906,-13.67187,941.89453,0.0114579120064175,0.0314426300734534,0.0876661429984231,85.65,-0.15,78.45,-965.33203,25.39063,105.46875,-0.1806614743348858,0.040235773377926,-0.052493046181757,57.9,17.55,-5.7
-922.36328,-20.01953,-360.83984,0.0174532925199432,0.0266462907560478,-0.0106585512090041,-7.35,25.8,16.35,-384.76562,-14.16016,939.94141,-0.0218499514386422,0.0385038831611721,0.0815375938629702,84.9,-1.65,79.95,-998.04687,17.08984,98.14453,-0.1662726309155942,0.0880658233971298,-0.0551578148837019,57.3,19.2,-6.6
-909.66797,-21.97266,-367.1875,-0.0373046674321268,0.1259035143828157,-0.0011990411961201,-4.95,25.05,16.65,-395.99609,-3.90625,938.96484,0.0046631706954784,0.058088746296576,0.0855343978500373,85.35,-1.65,79.5,-1015.13672,20.50781,101.07422,-0.1032542021467601,0.0722112524720134,-0.0333078634450597,57.45,17.85,-6.6
-931.15234,-24.90234,-385.25391,-0.0259800985805615,0.1163108357480045,-0.0099923590335179,-4.95,25.5,17.7,-409.17969,-21.97266,927.24609,0.0031976177225788,0.0712787230526728,0.1029876903699806,85.5,-2.55,79.05,-1013.67187,33.20313,98.14453,-0.1127137121596442,0.064750318985588,-0.0350397536618137,57.45,17.85,-7.2
-941.89453,-27.83203,-407.71484,0.0130566336012443,0.1187090926731699,0.0667488955120467,-4.95,25.5,17.7,-480.46875,-10.25391,917.48047,0.0326416712695735,0.1561469287272238,0.0923293136939016,85.65,-1.65,78.45,-1053.22266,32.22656,107.91016,-0.0728774446474996,-0.0023980823922402,-0.0158545709251164,57.45,17.85,-7.2
-958.49609,-21.97266,-422.85156,-0.0297105653237742,0.1632081818149425,0.0531592383572432,-5.7,26.7,17.55,-416.50391,-24.41406,937.01172,0.0205175670876697,0.1103154552344788,0.0606201718436686,85.65,-1.65,78.45,-1040.03906,25.39063,100.58594,-0.0706125308771865,-0.0535589187559499,0.0221164632154217,56.55,18.45,-5.55
-994.62891,4.88281,-438.96484,-0.0215834396618626,0.1621424837736748,0.0415681577288985,-6.3,26.25,17.7,-417.48047,-20.99609,964.84375,-0.0049295079393327,0.0739433172216925,0.0602204914449619,84.45,-1.8,79.8,-1052.24609,45.41016,83.98438,-0.0678147680862396,-0.0847350370526239,0.023448673033469,56.55,18.45,-5.55
-987.79297,-8.30078,-430.66406,-0.0215834396618626,0.1308330223221485,0.118842261295097,-6.45,25.35,18.3,-428.71094,-20.99609,964.35547,0.0399694361340717,0.1476202971995308,0.0945942274642146,85.8,-1.8,79.05,-1045.41016,46.38672,90.33203,-0.0799386977352182,-0.0054625314928918,0.0426340303030914,57.9,18.3,-4.65
-973.14453,13.18359,-424.31641,-0.0879326547752027,0.1361623851931132,0.0214502710399355,-6.45,25.35,18.3,-433.10547,-15.625,948.73047,0.0073277648644981,0.064750318985588,0.0554241521275563,85.5,-1.5,79.35,-1028.80859,34.17969,106.44531,-0.0600873228230347,-0.0065284040670847,0.0153215473715574,56.1,18.6,-6.15
-963.37891,13.67187,-406.73828,-0.0756753819713717,0.1249709849634751,0.0409019655534123,-5.55,26.25,17.7,-416.01562,-18.06641,953.125,0.0126569532025376,0.0490290912153239,0.0776737839649052,85.65,-1.65,78.45,-1049.80469,43.45703,109.86328,-0.1197749652473628,-0.0341072242424731,-0.0091929982361045,56.7,18.6,-5.7
-940.42969,30.27344,-406.25,-0.0968591412345277,0.0668820641339739,0.1185757495183175,-6.3,25.5,18.45,-412.59766,-16.11328,960.44922,-0.0117244237831971,0.0386370517830992,0.0944608843093623,84.45,-0.75,79.35,-1040.52734,56.15234,99.60938,-0.1354961930176269,-0.0631515973907612,0.0185191650941362,56.25,19.2,-6.3
-936.52344,31.73828,-394.53125,-0.1520167815853045,0.1196416220925105,0.0349065850398865,-6.0,25.05,16.65,-403.32031,-11.23047,964.84375,0.0007993607974134,0.0442327518979182,0.0744763407752516,86.25,-0.3,78.3,-1020.99609,67.38281,100.09766,-0.1152449631738115,-0.041301645952119,0.006128723668378,56.25,18.0,-5.55
-900.39062,20.50781,-395.99609,-0.165073589719474,0.1228392398150893,0.0634181091675407,-5.4,26.1,17.85,-408.69141,-22.94922,962.89062,0.0149218669728507,0.0014655529728996,0.0662158719584876,86.25,-0.3,78.3,-1032.22656,69.82422,109.86328,-0.1115144964305989,-0.1093829258151382,0.0215834396618626,57.3,18.75,-6.6
-920.41016,11.23047,-407.71484,-0.1485528266188713,0.0671485759107534,0.0334410320669869,-5.4,26.1,17.85,-393.55469,-21.97266,950.68359,0.0527595579585365,0.018385996472209,0.0968591412345277,86.25,-2.25,79.35,-1034.17969,54.19922,116.69922,-0.1267028751802291,-0.0556906639043358,0.045165455850184,57.3,18.75,-6.6
-922.36328,12.69531,-413.08594,-0.1041869060990259,0.1155114749505911,0.0215834396618626,-6.3,26.55,16.65,-413.08594,-46.875,968.26172,0.0122572728038309,-0.0475635382424242,0.0349065850398865,85.8,-1.05,80.4,-1010.74219,69.33594,120.11719,-0.0867336135790826,-0.1709356270781474,0.0122572728038309,57.0,19.95,-5.55
-943.35937,19.04297,-419.43359,-0.1751991173749191,0.1404257009569597,0.0017320647496791,-4.5,25.05,16.65,-397.94922,-19.53125,958.00781,0.0162542513238231,-0.0129234649793172,0.0710122112758932,84.6,-0.45,78.9,-1015.13672,58.59375,138.18359,-0.1244379614099161,-0.1654732701181807,0.0298437339457014,57.15,20.1,-5.7
-942.38281,13.18359,-434.08203,-0.107650861065459,0.0844685252758443,0.0508943245869302,-5.4,25.65,17.55,-387.69531,-5.85937,965.33203,0.0423675185263119,-0.0231821612566894,0.0668820641339739,84.6,-0.45,78.9,-1021.48437,72.26563,145.01953,-0.1662726309155942,-0.1736002212471671,0.054091942309509,56.55,18.75,-5.85
-963.37891,1.95312,-418.94531,-0.1080505414641657,0.0694134896810664,0.0530260697353161,-5.4,25.65,17.55,-391.11328,7.32422,959.47266,-0.0005328490206338,-0.0130566336012443,0.0991240550048407,85.95,-0.9,79.5,-1017.08984,85.44922,150.87891,-0.1318988948963414,-0.2194318692728375,-0.0014655529728996,57.6,18.75,-6.6
-946.28906,6.83594,-412.10937,-0.1417580853079322,0.0286446927495813,-0.0154548905264097,-6.15,26.4,16.5,-385.74219,-4.39453,953.125,0.0231821612566894,-0.0333078634450597,0.0675482563094601,85.65,-0.45,78.15,-1009.27734,98.14453,148.92578,-0.1919862177193762,-0.2113047436109259,0.068081105330094,58.35,18.75,-4.8
-936.03516,2.44141,-405.76172,-0.1060521394706322,0.0174532925199432,0.0113245688515652,-6.3,26.55,17.1,-378.90625,8.30078,968.75,-0.0238483534321757,-0.0082602942838387,0.1271025555789358,85.65,-0.45,78.15,-1004.39453,99.12109,146.97266,-0.2403491167592139,-0.2803185528932856,0.0339738810876208,57.15,19.8,-4.35
-930.66406,15.625,-398.92578,-0.06634921511334,-0.0494287716140306,0.0242480338308824,-5.4,26.7,17.85,-373.04687,14.64844,971.19141,0.0407687969314851,-0.0355727772153728,0.1107151356331855,85.8,-2.25,80.1,-1028.32031,86.42578,147.94922,-0.255404326886917,-0.253805430759165,0.0439662401211387,57.15,19.8,-4.35
-900.87891,14.16016,-381.83594,-0.1113813278086717,-0.0187856768709157,0.0175864611418704,-6.3,25.05,15.6,-374.51172,20.99609,984.86328,-0.0169204434993094,-0.0325085026476463,0.1085833904847996,85.65,-1.2,79.5,-1012.69531,71.77734,157.71484,-0.2295573969282826,-0.2792526803190927,0.0377045223637587,58.05,19.95,-4.8
-899.41406,19.53125,-370.11719,-0.0935283548900217,0.0053291883380394,0.0436999028772844,-6.3,25.05,15.6,-359.86328,10.74219,981.44531,0.0155880591483369,-0.0338407124656936,0.0935283548900217,85.95,-1.95,79.2,-1019.04297,64.45313,163.08594,-0.2729907880287874,-0.2046431709219139,0.004529827540626,58.05,19.95,-4.8
-912.59766,28.80859,-367.1875,-0.0255804181818548,-0.0464976656682313,0.0295773967018471,-4.65,26.4,17.55,-357.91016,29.29688,983.88672,-0.0142556747973644,-0.0603538345998143,0.113246561180278,85.95,-1.95,79.2,-1019.04297,47.85156,162.59766,-0.2929755060958233,-0.2256937615631427,-0.0190520141147701,58.05,19.95,-4.2
-898.92578,32.22656,-378.90625,-0.1155114749505911,-0.0247810573844414,-0.050761155965003,-7.2,24.9,18.9,-350.09766,38.08594,971.67969,-0.0203843984657425,-0.0169204434993094,0.1550812306859561,84.6,-1.2,79.5,-1003.90625,44.43359,159.17969,-0.3021685043319279,-0.218632508475424,0.0103920394322246,59.25,18.3,-3.9
-906.73828,29.29688,-369.14062,-0.0724777642487929,-0.0992572236267679,0.1004564393558132,-5.7,25.35,17.85,-340.82031,-9.27734,970.21484,-0.0126569532025376,-0.0394364125805126,0.0516936853843436,85.8,-1.05,78.3,-982.91016,67.87109,176.26953,-0.2704593624816949,-0.1937182824690554,-0.0243813769857347,57.6,19.95,-2.7
-921.38672,20.99609,-373.53516,-0.0751423584178126,-0.0828698036810175,0.0419678381276052,-5.7,25.35,17.85,-358.88672,92.77344,928.71094,-0.1714686506317065,-0.016787100344457,0.2131699769825322,84.9,-0.45,80.55,-1000.97656,62.01172,164.55078,-0.3052327788996543,-0.1461547442266311,-0.0035972981212855,56.7,19.05,-3.3
-936.52344,12.20703,-378.41797,-0.0755420388165193,-0.1004564393558132,-0.0587549384720623,-5.7,25.35,17.85,-309.57031,20.01953,917.96875,0.0766079113907123,-0.351863787722738,0.0851347174513306,85.95,0.15,78.15,-993.65234,69.33594,150.87891,-0.2625987485965628,-0.1863905176045572,-0.0162542513238231,56.7,19.05,-3.3
-902.83203,41.50391,-354.00391,-0.0114579120064175,-0.1064518198693389,0.0053291883380394,-4.95,26.55,16.65,-332.51953,-23.92578,1001.46484,-0.0840688448771376,-0.2776539587242659,0.1806614743348858,86.25,-0.75,78.3,-971.67969,78.125,167.48047,-0.212503784807046,-0.1898544725709904,0.0074609334864253,58.35,20.7,-3.75
-898.4375,42.96875,-343.26172,-0.0431668793237253,-0.1089830708835063,0.0298437339457014,-5.7,26.4,16.8,-365.72266,21.97266,934.57031,-0.0031976177225788,-0.1513507639427435,0.1200413024912172,85.05,0.3,78.3,-975.09766,74.70703,172.36328,-0.2620658995759289,-0.0855343978500373,-0.0073277648644981,56.55,18.45,-4.2
-902.34375,54.19922,-343.75,-0.0431668793237253,-0.0863337586474507,-0.0399694361340717,-6.3,27.3,18.15,-354.98047,18.06641,914.55078,-0.0699463387017003,-0.2226293124624911,0.1586783542743164,85.05,0.3,78.3,-971.19141,82.03125,168.94531,-0.2675282565358956,-0.1089830708835063,-0.0213169278850831,56.55,18.45,-4.2
-906.73828,47.85156,-328.125,-0.063684446411395,-0.0973919902551615,-0.0213169278850831,-5.4,26.4,18.6,-324.21875,12.69531,943.35937,-0.0991240550048407,-0.1528161423827179,0.1794624331387657,85.05,0.3,78.3,-961.91406,78.125,180.66406,-0.2817841058661853,-0.1019218177957876,-0.031309286918601,57.6,20.25,-2.1
-922.36328,35.64453,-326.66016,-0.0550244717288496,-0.0800720408900706,-0.022382800459276,-5.4,26.4,18.6,-330.56641,10.74219,937.01172,-0.073676805444913,-0.2094395102393195,0.1874563901787501,84.45,-0.75,79.35,-959.96094,85.9375,161.13281,-0.2733904684274942,-0.1235054319905755,-0.0852680606061829,57.6,19.95,-3.45
-932.12891,47.85156,-330.56641,-0.1161776671260773,-0.0835359958565038,-0.0612863640191548,-5.1,25.65,16.8,-312.98828,20.50781,932.12891,-0.0616860444178615,-0.1322985752950481,0.1598775700033617,85.95,-0.15,79.95,-936.03516,78.125,163.08594,-0.2663292153397755,-0.1366952342137471,-0.0608866836204481,57.3,20.7,-3.75
-941.40625,55.17578,-322.26562,-0.0467641774450108,-0.1428239578821251,0.0002665117767795,-4.5,25.8,18.45,-302.24609,8.78906,923.82812,-0.0382373713843925,-0.1851914764084371,0.1624088210175291,84.75,0.0,80.4,-931.64062,94.23828,166.50391,-0.2700596820829882,-0.0169204434993094,-0.0796723604913639,57.15,20.1,-3.6
-926.75781,46.38672,-331.54297,-0.0816707624848974,-0.1180429004976836,0.0604870032217414,-4.35,26.1,17.55,-311.03516,32.71484,916.50391,-0.0756753819713717,-0.2069080846922269,0.1819938586858583,84.75,0.0,80.4,-916.50391,71.77734,150.87891,-0.2661960467178483,0.0415681577288985,-0.0221164632154217,59.1,19.95,-2.7
-915.03906,34.17969,-315.91797,-0.1452220402743654,-0.0666155523571943,-0.0098591904115907,-4.35,26.1,17.55,-272.46094,33.20313,909.66797,-0.0471638578437175,-0.0908637607210019,0.1477534658214579,84.15,-0.45,80.55,-957.03125,73.73047,170.89844,-0.3009692886028826,0.0476967068643514,-0.0109248884528585,58.95,21.15,-2.85
-904.78516,18.55469,-308.59375,-0.0887320155726161,-0.1200413024912172,0.0266462907560478,-5.55,26.25,17.4,-336.42578,0.97656,894.53125,-0.0490290912153239,-0.0151883787496302,0.1726676918278266,84.6,-0.45,79.5,-948.24219,60.54688,143.06641,-0.3020351611770755,0.0527595579585365,-0.0099923590335179,58.95,21.15,-2.85
-902.83203,20.01953,-330.56641,-0.049162259837251,-0.063018428768834,0.0114579120064175,-6.3,25.8,18.15,-317.38281,5.37109,905.27344,-0.0125237845806105,0.0011990411961201,0.158944866051096,84.6,-0.45,79.5,-936.52344,37.10938,133.30078,-0.2827166352855259,0.132165406673121,-0.0498284520127373,57.45,20.55,-3.9
-910.64453,37.10938,-337.40234,-0.0921959705390492,-0.0410353087082646,-0.0090596550812521,-6.0,27.3,17.1,-298.82812,2.44141,926.26953,-0.0074609334864253,-0.023448673033469,0.1526829737607907,84.6,-0.15,79.2,-957.51953,41.50391,147.94922,-0.302301672953855,0.0554241521275563,-0.0341072242424731,57.45,20.55,-3.9
-918.94531,39.0625,-351.5625,-0.0298437339457014,-0.1048529237415869,0.0106585512090041,-4.35,27.9,18.3,-333.49609,-36.13281,938.96484,0.0129234649793172,0.104320074720953,0.1521501247401568,85.35,0.45,80.25,-967.77344,21.48438,141.11328,-0.2757887253526596,0.0147886983509235,-0.0202512298438154,56.55,20.7,-2.7
-925.78125,29.29688,-361.32812,-0.0381042027624654,-0.0695466583029936,0.042900542079871,-4.35,27.9,18.3,-357.42187,21.48438,944.33594,-0.0031976177225788,0.0159877395470436,0.1474869540446784,83.85,-0.9,80.25,-951.17187,32.22656,98.14453,-0.2243613772121702,0.0590214502488418,-0.0439662401211387,58.05,21.75,-4.2
-931.15234,32.71484,-356.44531,-0.0523598775598298,-0.0227824808579827,-0.0233155044115418,-4.95,27.0,18.15,-338.37891,3.90625,977.05078,-0.0389035635598788,-0.0194516945134768,0.1462879128485583,83.85,-0.9,80.25,-959.96094,54.6875,116.69922,-0.232621671496009,0.0999234158022541,-0.054091942309509,57.45,19.8,-2.85
-942.38281,26.85547,-374.02344,-0.0520933657830503,-0.0051960197161123,-0.0307764378979672,-5.4,27.15,18.3,-363.28125,16.60156,944.33594,-0.0335742006889141,-0.0289112045263608,0.1208406632886305,84.9,0.45,78.9,-975.58594,47.36328,98.14453,-0.2410153089347001,0.0951270764848485,-0.0430337107017981,57.9,19.8,-2.85
-937.98828,34.17969,-383.30078,-0.0089264864593249,-0.061419532641082,0.0237151848102485,-6.45,25.65,17.55,-353.02734,-21.97266,941.40625,0.0266462907560478,-0.0115910806283447,0.1428239578821251,85.5,-1.05,79.35,-983.88672,63.96484,90.82031,-0.2486095855759778,0.1458882324498516,-0.0447657754514773,57.9,19.8,-2.85
-948.73047,19.04297,-389.64844,-0.0535589187559499,-0.0281118437289474,0.0071944217096458,-6.45,25.65,17.55,-360.83984,92.77344,908.20312,-0.1413584049092255,0.1746660938213601,0.1581455052536826,85.5,-1.05,79.35,-983.39844,54.19922,80.56641,-0.2953735884880635,0.2923093139203371,-0.0421010067495324,58.5,20.1,-3.6
-940.42969,11.23047,-378.90625,-0.0586217698501351,-0.0431668793237253,0.0289112045263608,-5.25,26.25,19.2,-342.77344,6.83594,917.48047,0.0109248884528585,0.0671485759107534,0.1333644478692411,84.0,-1.05,81.45,-982.91016,52.24609,94.72656,-0.2556708386636965,0.3553277426891711,-0.0099923590335179,58.5,20.1,-3.6
-937.98828,18.55469,-395.99609,-0.0281118437289474,-0.1159111553492978,0.0353062654385932,-6.3,26.55,18.75,-389.64844,-35.15625,934.57031,-0.0730107878023519,0.0198513749121835,0.1546815502872494,83.55,-0.15,81.0,-985.83984,18.06641,79.10156,-0.254338454312724,0.3490658503988659,0.0241148652089552,56.7,21.15,-3.6
-941.89453,29.29688,-392.08984,-0.0367718184114929,-0.0587549384720623,0.0421010067495324,-4.5,27.75,17.7,-372.07031,-73.73047,911.62109,0.0233155044115418,0.0949939078629213,0.0975253334100139,83.85,-0.15,81.0,-971.19141,7.8125,62.98828,-0.2135696573812389,0.4295375716876433,0.0101255276554451,58.35,19.95,-4.2
-933.10547,31.25,-410.15625,-0.0448989440734045,-0.0289112045263608,-0.040235773377926,-4.65,26.7,18.6,-402.83203,-101.5625,928.22266,0.0337075438437664,-0.0013323843509724,0.06634921511334,83.85,-0.15,81.0,-990.72266,-1.95312,85.9375,-0.1271025555789358,0.4421945248901809,0.0542251109314362,58.05,21.0,-4.8
-949.21875,30.76172,-399.41406,-0.0081271256619115,-0.0546247913301429,0.0763415741468579,-4.65,26.7,18.6,-410.64453,-22.94922,901.36719,0.0070612530877186,0.0727442760255724,0.0611531953972277,84.45,0.75,80.1,-976.07422,-40.03906,67.87109,-0.0905972489442224,0.5150719695376805,0.029044373148288,57.3,21.45,-2.7
-966.79687,27.83203,-406.25,-0.0952604196397009,-0.0030642745677264,-0.0211837592631559,-5.55,26.55,18.15,-436.52344,-68.84766,912.10937,0.022382800459276,0.1537488463349836,0.0814042507081179,85.05,0.3,80.4,-980.95703,-36.13281,70.3125,-0.0840688448771376,0.558771872414965,-0.0214502710399355,57.3,21.45,-2.7
-982.42187,26.85547,-402.34375,-0.0866002704242302,-0.0543582795533633,0.0149218669728507,-4.35,27.45,17.55,-415.52734,-49.80469,887.20703,-0.0381042027624654,0.1512174207878911,0.1305666850782942,85.05,0.0,80.1,-990.23437,-25.87891,72.26563,0.0178529729186499,0.5786232473271485,-0.0516936853843436,57.6,21.75,-3.15
-958.49609,22.94922,-403.32031,-0.0571562168772355,-0.0512940049856369,0.0815375938629702,-4.65,26.4,18.6,-391.11328,-9.27734,881.83594,0.0030642745677264,0.2458116482521058,0.0584886012282079,84.0,1.5,79.35,-990.23437,-19.04297,64.45313,0.0283781809728018,0.5708958020639435,-0.0267794593779749,57.3,20.25,-3.75
-945.3125,16.11328,-392.08984,-0.1314992144976347,-0.016787100344457,0.0214502710399355,-4.5,27.3,16.65,-402.83203,-52.73438,919.92187,0.0648836621404404,0.2865804451835909,0.0270459711547545,83.25,0.3,80.1,-997.55859,0.48828,69.82422,0.0542251109314362,0.5980749418406253,-0.0767412545455646,57.3,20.25,-3.75
-938.47656,14.64844,-381.83594,-0.1012558001532266,0.027312482931534,0.043566559722432,-4.5,27.3,16.65,-431.15234,-9.27734,931.64062,0.0375711792089063,0.2831163156842325,0.042900542079871,85.65,0.45,79.5,-997.07031,27.34375,64.45313,0.0747426780191059,0.6093996852251157,-0.0783399761403914,58.2,21.15,-4.95
-935.54687,15.13672,-376.46484,-0.0105252080541518,-0.0205175670876697,0.096459460835821,-3.6,26.7,18.3,-401.85547,-19.04297,927.24609,0.0381042027624654,0.2354196088198811,0.0135896571548034,85.65,0.45,79.5,-1017.08984,36.13281,63.96484,0.1235054319905755,0.6355129524276045,-0.0687472975055802,58.2,21.15,-4.95
-930.66406,18.55469,-379.39453,-0.0583552580733556,0.0631515973907612,0.0795390173365115,-3.75,26.25,17.7,-398.4375,0.0,919.92187,-0.0218499514386422,0.1636080367465744,0.0326416712695735,85.65,-0.9,78.9,-1006.83594,41.99219,72.26563,0.1180429004976836,0.5585053606381855,-0.0941945470655079,56.7,20.85,-6.45
-932.61719,32.71484,-378.90625,-0.0081271256619115,0.0759418937481512,0.0495619402359577,-6.15,27.15,17.85,-413.08594,15.625,928.22266,-0.0034639549664331,0.202511425773528,0.043566559722432,85.35,0.45,79.5,-1027.83203,58.59375,71.28906,0.141091893132446,0.5792894395026348,-0.0498284520127373,55.65,20.85,-5.7
-924.80469,23.4375,-380.37109,0.0259800985805615,0.0210505906412288,0.1313660458757076,-6.15,27.15,17.85,-401.36719,21.97266,951.66016,0.0333078634450597,0.1658729505168874,0.0139893375535101,84.9,0.9,79.5,-1032.71484,62.98828,88.37891,0.1039203943222463,0.5501117231994943,-0.0576890658978693,56.1,19.35,-6.75
