IMU1_AccX,IMU1_AccY,IMU1_AccZ,IMU1_GyrX,IMU1_GyrY,IMU1_GyrZ,IMU1_MagX,IMU1_MagY,IMU1_MagZ,IMU2_AccX,IMU2_AccY,IMU2_AccZ,IMU2_GyrX,IMU2_GyrY,IMU2_GyrZ,IMU2_MagX,IMU2_MagY,IMU2_MagZ,IMU3_AccX,IMU3_AccY,IMU3_AccZ,IMU3_GyrX,IMU3_GyrY,IMU3_GyrZ,IMU3_MagX,IMU3_MagY,IMU3_MagZ
-874.51172,137.69531,-451.66016,-0.4588484566127108,-0.06634921511334,-0.9680582142587928,-9.45,27.75,15.6,-593.75,44.43359,838.86719,0.0552909835056291,0.0073277648644981,-0.0981913510525749,90.9,1.8,69.75,-977.05078,79.10156,221.67969,0.2049096826986934,-0.0766079113907123,-0.0483628990398376,60.3,20.85,1.5
-874.02344,101.5625,-416.99219,-0.5194686284563794,-0.0667488955120467,-0.9883092695696832,-9.45,27.75,15.6,-600.58594,43.94531,828.125,0.080871401687484,-0.0002665117767795,-0.0943277156874351,91.35,0.15,69.15,-979.98047,90.82031,224.12109,0.2158345711515519,-0.0634181091675407,-0.0913966097416358,60.6,21.0,0.6
-853.51562,80.07813,-399.41406,-0.4965528044435443,-0.0784731447623186,-0.9844456342045432,-8.25,28.65,15.75,-589.35547,24.90234,827.14844,0.0984578628293545,0.0523598775598298,-0.140026020558253,91.05,0.9,68.85,-976.07422,75.68359,223.14453,0.1965160452600023,-0.0401026047559989,-0.0098591904115907,58.5,19.35,0.15
-836.42578,51.26953,-388.18359,-0.4540521172953052,-0.0287778613715085,-1.050261825764324,-9.6,26.7,15.75,-573.73047,23.4375,853.51562,0.0812710820861907,0.0584886012282079,-0.1183094122744632,91.05,0.9,68.85,-984.375,71.77734,232.42187,0.2105053828135125,-0.0193185258915496,-0.0042633157638465,60.15,20.7,1.35
-872.55859,38.57422,-422.85156,-0.411018406593507,0.0119907610270514,-0.9332847978408336,-9.45,28.5,16.65,-548.33984,33.20313,922.36328,0.0479632186411309,0.0790061683158777,-0.05475795995207,91.05,0.9,68.85,-985.83984,70.3125,241.21094,0.1446891912537315,-0.0122572728038309,-0.0350397536618137,60.3,20.1,1.5
-915.52734,34.17969,-468.26172,-0.3565267838852912,-0.0584886012282079,-0.8235021916269885,-9.0,27.15,16.8,-544.43359,35.64453,922.36328,0.0286446927495813,0.0390367321818059,-0.0692803210591393,89.85,2.25,69.75,-989.74609,104.00391,250.97656,0.1528161423827179,-0.0106585512090041,-0.0476967068643514,60.3,20.1,1.5
-899.41406,-7.8125,-446.28906,-0.3595910584530177,-0.0269126279999021,-0.7955236910528934,-8.1,27.0,16.65,-540.03906,46.875,857.42187,0.0454317930940384,-0.0109248884528585,-0.0692803210591393,91.65,0.75,68.7,-986.81641,104.49219,257.8125,0.1417580853079322,-0.0066615726890119,-0.0774072721881257,59.25,20.1,0.15
-937.5,-50.29297,-447.26562,-0.3932986022967842,-0.070346019100407,-0.6339142308327776,-8.25,28.95,16.5,-554.19922,38.08594,824.70703,-0.0027979373238721,-0.0639509581881746,-0.0920628019171221,91.35,0.15,70.95,-979.00391,91.79688,258.30078,0.1263031947815224,-0.0480965617959833,-0.0203843984657425,59.1,21.45,1.05
-960.9375,-52.24609,-433.59375,-0.2376845225901941,-0.1244379614099161,-0.5495788741788604,-9.0,26.4,17.55,-560.05859,64.45313,816.89453,0.0377045223637587,-0.0133231453780239,-0.067015232755901,91.35,0.9,69.6,-960.44922,120.11719,266.60156,0.0771409349442713,-0.0479632186411309,-0.0427671989250186,59.1,21.45,1.05
-963.86719,-28.80859,-400.87891,-0.2268928027592628,-0.13776110678794,-0.4922894886796977,-7.65,26.55,15.6,-562.5,47.36328,827.14844,0.0106585512090041,-0.0443659205198454,-0.0390367321818059,90.15,1.5,69.0,-940.42969,101.5625,256.83594,0.0790061683158777,0.0436999028772844,-0.0646171503636608,59.85,21.0,1.05
-911.62109,-13.18359,-365.23437,-0.2244947203670226,-0.1140459219776914,-0.368117864513636,-7.65,26.55,15.6,-543.45703,34.66797,824.21875,-0.0198513749121835,-0.0314426300734534,-0.0126569532025376,90.45,0.3,69.0,-968.26172,97.16797,250.48828,0.096459460835821,0.1322985752950481,-0.0314426300734534,60.75,19.35,0.75
-865.72266,30.76172,-371.58203,-0.1593445464498027,-0.1322985752950481,-0.3794426078981264,-7.65,26.55,15.6,-555.66406,38.57422,829.58984,0.0235820161883213,-0.0166539317225298,0.0166539317225298,90.45,0.3,69.0,-985.35156,85.9375,229.00391,0.0488959225933967,0.1413584049092255,-0.068081105330094,59.1,20.7,2.4
-840.82031,38.57422,-343.26172,-0.1847917960097304,0.0067947413109391,-0.3794426078981264,-7.65,26.55,16.05,-575.68359,41.99219,832.51953,-0.0106585512090041,-0.0325085026476463,0.0085268060606182,90.45,1.5,70.5,-1006.34766,79.10156,216.79687,-0.0005328490206338,0.0787396565390981,0.0,60.0,19.05,0.15
-796.38672,62.5,-362.79297,-0.1449555284975858,0.0863337586474507,-0.3104287986157666,-7.95,26.4,16.8,-579.10156,44.43359,869.14062,0.0175864611418704,-0.0130566336012443,0.063684446411395,91.65,1.8,67.95,-998.04687,73.24219,222.16797,-0.0331745202902074,-0.0133231453780239,-0.0073277648644981,60.0,19.05,0.15
-849.60937,51.26953,-395.99609,-0.0933951862680945,0.1245711300318432,-0.1957166844625889,-7.5,25.35,17.25,-573.24219,45.41016,895.99609,-0.0334410320669869,0.0035972981212855,0.0126569532025376,91.65,1.8,68.7,-1003.41797,69.33594,233.39844,-0.0626187483701273,0.0137228257767306,0.0005328490206338,59.4,20.25,0.3
-919.92187,21.48438,-424.80469,-0.1136462415789847,0.2005130237799945,-0.1754656291516987,-8.25,27.9,17.85,-564.45312,15.625,890.625,-0.0394364125805126,-0.0141225061754373,0.0856677410048896,91.65,1.8,68.7,-995.60547,57.61719,219.72656,-0.0171867807431637,-0.034640073263107,-0.0021317451483858,59.4,20.25,0.3
-956.05469,8.78906,-453.61328,-0.1032542021467601,0.1442895108550248,-0.1236386006125027,-8.25,27.9,17.85,-544.43359,20.99609,878.41797,-0.0213169278850831,-0.0337075438437664,0.025713586803782,91.2,1.5,69.0,-971.67969,60.05859,237.79297,0.0227824808579827,-0.0937948666668012,-0.0393032439585855,59.4,21.45,0.6
-964.35547,38.08594,-449.70703,-0.070346019100407,0.0554241521275563,-0.0302434143444081,-7.05,27.3,17.4,-537.59766,21.97266,827.63672,-0.0335742006889141,0.0007993607974134,0.0460979852695246,89.1,1.8,69.0,-959.96094,56.15234,246.09375,0.0495619402359577,-0.0279785005740951,-0.0085268060606182,58.8,21.0,0.6
-962.89062,72.26563,-447.75391,-0.1514839325646706,-0.0165205885676775,-0.0650168307623675,-7.95,27.15,15.75,-527.34375,31.25,850.09766,-0.0254472495599277,0.0026645941690197,-0.0097258472567384,89.1,1.8,69.0,-977.53906,53.22266,245.60547,0.0350397536618137,0.0363721380127862,-0.0086599746825454,60.15,21.0,-0.3
-974.12109,86.42578,-424.80469,-0.1317657262744143,-0.1414915735311527,0.0198513749121835,-8.55,27.45,16.5,-542.96875,40.52734,850.58594,-0.0407687969314851,0.0174532925199432,0.0508943245869302,90.75,-0.15,67.5,-982.91016,56.15234,246.58203,0.046897346066938,0.0422343499043847,-0.0157212277702641,60.75,18.6,-0.45
-945.3125,88.86719,-430.17578,-0.166805479936228,-0.0901975685455157,-0.0058622118915985,-8.55,27.45,16.5,-562.5,35.64453,825.68359,-0.0319754790940873,0.0189188454928429,0.0230489926347623,90.15,0.3,68.7,-979.49219,61.52344,257.8125,0.0611531953972277,0.0499617951675896,-0.0147886983509235,59.4,20.25,0.6
-907.22656,94.23828,-400.39062,-0.1396263401595463,-0.1350965126189202,0.0811377389313384,-7.5,28.2,16.8,-542.96875,41.99219,816.40625,-0.0303767574992605,-0.0266462907560478,0.0712787230526728,91.95,0.75,68.7,-965.33203,53.71094,254.88281,0.0550244717288496,0.0118575924051242,-0.0550244717288496,58.8,20.25,0.3
-869.14062,122.07031,-392.57812,-0.1606769308007752,-0.0383705400063197,-0.0001331686219271,-6.9,28.2,17.25,-541.01562,44.92188,812.5,0.0155880591483369,-0.0151883787496302,0.0075941021083525,91.95,0.75,68.7,-969.23828,41.99219,230.46875,0.0588882816269146,0.0538254305327295,-0.0221164632154217,58.8,20.25,0.3
-819.82422,108.88672,-372.07031,-0.1581455052536826,-0.0373046674321268,-0.0089264864593249,-7.35,27.3,16.35,-564.94141,19.53125,827.63672,0.0247810573844414,-0.0301102457224809,0.0027979373238721,90.75,0.45,68.85,-960.9375,53.22266,208.98437,0.0997902471803269,0.0996569040254746,-0.032908183046353,58.05,19.95,0.6
-816.89453,122.55859,-333.00781,-0.1099157748357721,0.002264913770313,0.0037304667432126,-8.55,26.4,16.5,-581.54297,28.32031,816.40625,0.0298437339457014,0.0715452348294523,-0.0015987215948268,90.9,0.75,68.4,-983.88672,40.52734,224.60937,0.1252373222073295,0.1416247421530798,-0.0046631706954784,60.0,20.55,0.75
-826.66016,108.88672,-398.92578,-0.1546815502872494,0.0983246942074273,-0.0847350370526239,-8.55,26.4,16.5,-576.66016,9.76562,872.07031,0.0207840788644492,0.0552909835056291,-0.0254472495599277,91.65,1.8,69.45,-981.44531,35.64453,214.84375,0.1590780346730231,0.1380276185647195,-0.0137228257767306,60.0,21.6,0.75
-884.27734,89.84375,-456.05469,-0.1100489434576992,0.0700796818565527,-0.0608866836204481,-8.4,27.75,17.7,-583.49609,30.76172,860.83984,-0.0538254305327295,0.0067947413109391,-0.0007993607974134,91.05,0.9,68.1,-1009.27734,73.24219,198.24219,0.1184425808963904,0.1267028751802291,0.0018652333716063,59.4,20.25,0.6
-927.24609,64.94141,-458.00781,-0.0738101485997654,0.0642174699649541,0.0367718184114929,-6.6,27.3,16.05,-590.33203,22.94922,829.58984,-0.0350397536618137,-0.046897346066938,-0.0419678381276052,91.8,1.2,69.6,-1008.78906,59.08203,216.30859,0.1689372250846139,-0.0018652333716063,-0.0863337586474507,59.4,20.7,0.0
-926.75781,80.56641,-451.17187,-0.1116478395854512,0.0840688448771376,-0.0158545709251164,-7.35,27.3,17.4,-566.89453,22.46094,830.07812,0.0101255276554451,0.0011990411961201,-0.0033307863445059,91.65,0.3,69.45,-972.16797,52.73438,213.37891,0.1318988948963414,-0.023448673033469,-0.0154548905264097,59.4,18.75,0.3
-931.15234,96.19141,-435.54687,-0.0535589187559499,-0.0135896571548034,-0.0504946441882235,-7.35,27.3,17.4,-544.43359,29.29688,833.98437,-0.0193185258915496,0.0070612530877186,-0.0299770771005538,91.65,0.3,69.45,-970.21484,53.22266,214.84375,0.1398928519363259,0.0226493122360556,-0.040235773377926,59.4,18.75,0.3
-911.13281,122.55859,-436.52344,-0.0611531953972277,0.0098591904115907,-0.0456983048708179,-8.4,26.25,16.05,-539.0625,44.43359,848.63281,-0.0039969785199922,0.014522186574144,-0.0235820161883213,90.15,0.75,70.05,-967.28516,70.3125,212.89062,0.1450888716524382,0.0873996312216436,-0.0381042027624654,58.95,19.05,-0.75
-877.44141,141.11328,-445.3125,-0.0624854052152749,0.0018652333716063,-0.0759418937481512,-8.1,28.5,17.1,-670.89844,24.90234,895.50781,0.1854578136522914,-0.2083736376651266,-0.0676814249313873,91.05,1.2,69.6,-979.49219,64.94141,210.9375,0.1550812306859561,0.0206509102425221,-0.0302434143444081,58.95,19.05,-0.75
-862.30469,158.69141,-429.6875,-0.0884655037958365,-0.0421010067495324,-0.0932618431132422,-6.3,27.75,16.05,-514.64844,34.17969,904.78516,0.0494287716140306,-0.0444992636746978,-0.1012558001532266,90.75,0.9,68.85,-989.74609,62.01172,198.24219,0.1289677889505422,0.0466310088230837,-0.0462311538914518,58.95,19.05,-0.75
-867.67578,163.08594,-399.41406,-0.1518836129633773,-0.0106585512090041,-0.1151117945518844,-7.5,27.45,16.5,-516.60156,-62.98828,918.45703,-0.0879326547752027,-0.0528927265804637,-0.0710122112758932,90.3,0.45,70.35,-981.44531,70.80078,229.00391,0.1243047927879889,0.0714118916745999,0.0009327039522657,59.4,19.95,0.3
-865.72266,161.62109,-406.25,-0.1669388230910804,0.0226493122360556,-0.0981913510525749,-7.5,27.45,16.5,-583.00781,-10.25391,830.07812,-0.0091929982361045,-0.0262466103573411,-0.0888651841945432,91.65,2.25,67.95,-1009.27734,83.00781,240.23437,0.0932618431132422,0.1052526041402936,-0.0836691644784309,60.3,20.1,0.15
-865.72266,134.76562,-440.91797,-0.1097826062138449,0.0106585512090041,-0.1192419416938038,-8.4,28.05,15.6,-569.33594,-0.97656,868.65234,0.0369049870334201,0.002264913770313,-0.1233720888357231,91.35,1.65,68.85,-1003.41797,84.96094,244.14062,0.077007591789419,0.0483628990398376,0.022382800459276,60.6,19.5,0.6
-889.16016,105.46875,-438.47656,-0.1340306400447273,0.0222496318373489,-0.1493521874162847,-8.4,28.5,16.65,-574.70703,11.23047,857.91016,0.0598208110462552,-0.0107917198309313,-0.1261700261595952,91.35,1.65,68.85,-976.5625,71.28906,246.58203,0.0811377389313384,0.0365053066347134,-0.027312482931534,59.25,19.05,0.15
-923.82812,86.91406,-433.59375,-0.1205743260447762,0.0311761182966739,-0.1586783542743164,-8.1,28.05,16.35,-568.35937,10.74219,867.67578,0.0463644970463041,-0.060753514998521,-0.1251041535854023,88.65,0.3,70.05,-987.30469,95.21484,205.56641,0.1128468807815713,0.0899310567687362,0.0543582795533633,59.7,19.8,-0.45
-928.22266,83.98438,-445.3125,-0.0281118437289474,-0.0552909835056291,-0.0850015488294034,-8.1,28.05,16.35,-573.24219,31.73828,848.63281,0.0893982077481023,-0.0740764858436197,-0.1295008125041012,90.75,0.15,68.55,-974.60937,99.60938,215.82031,0.1032542021467601,0.054091942309509,-0.0042633157638465,60.0,19.8,1.2
-941.89453,71.77734,-440.42969,0.0195850376683291,-0.0499617951675896,-0.1213736868421896,-7.65,27.75,17.4,-552.73437,37.10938,829.58984,0.0977916706538682,-0.0820704428836041,-0.1159111553492978,90.15,0.3,68.7,-972.16797,97.65625,202.14844,0.1148452827751048,0.0333078634450597,0.0427671989250186,60.0,19.8,1.2
-945.80078,64.45313,-423.33984,0.0293108849250675,-0.0403691165327784,-0.0972588216332344,-8.4,29.25,16.65,-530.76172,50.29297,839.84375,0.0715452348294523,-0.0335742006889141,-0.1843921156110237,90.15,0.3,68.7,-949.70703,73.73047,200.68359,0.1313660458757076,0.1295008125041012,0.0071944217096458,60.0,19.8,0.15
-926.26953,63.96484,-416.99219,0.1324319184499005,-0.1028545217480534,-0.0462311538914518,-9.0,26.4,16.2,-543.94531,24.90234,847.16797,0.0496952833908101,-0.0492956029921034,-0.164540566165915,90.15,0.3,68.7,-961.42578,56.64063,186.52344,0.094860564708069,0.1029876903699806,-0.0563568560798221,59.25,21.15,0.15
-929.6875,60.54688,-402.83203,0.1145789455312505,-0.0676814249313873,-0.1508177403891844,-7.5,27.9,16.8,-529.78516,34.66797,833.98437,0.0967257980796753,-0.032375159492794,-0.1241714496331365,91.65,-0.75,69.0,-949.21875,48.33984,208.49609,0.1160443239712249,0.0679479367081668,-0.0155880591483369,60.15,19.95,-0.3
-912.59766,86.42578,-397.46094,0.110981647409965,-0.0690138092823597,-0.1548147189091766,-7.5,27.9,16.8,-542.96875,16.11328,832.03125,0.0691469779042869,-0.0456983048708179,-0.1716018192536337,90.3,1.2,68.85,-963.86719,37.59766,199.21875,0.1398928519363259,0.1480199775982374,-0.0034639549664331,60.6,20.25,0.6
-910.64453,85.9375,-399.41406,0.1614762915981885,-0.1372282577673061,-0.1251041535854023,-7.5,27.9,17.25,-560.54687,4.88281,837.89062,0.0834028272345766,0.0017320647496791,-0.1336309596460206,90.3,1.2,68.85,-974.12109,46.875,203.125,0.1402925323350325,0.0754088701945922,-0.0478300500192038,59.1,20.7,0.6
-929.19922,77.14844,-406.25,0.0923293136939016,-0.0197182062902563,-0.1139127533557643,-8.55,27.45,17.25,-582.03125,15.625,825.68359,0.0431668793237253,0.0069280844657914,-0.1505512286124048,91.35,-0.45,69.6,-982.91016,58.59375,216.30859,0.1548147189091766,0.0503614755662963,0.0230489926347623,60.3,19.35,0.45
-939.94141,66.89453,-422.36328,0.078606487917171,0.0106585512090041,-0.0969923098564548,-6.9,27.45,16.2,-573.24219,6.34766,843.75,0.0347734164179594,-0.05475795995207,-0.1766646703478188,90.3,0.45,69.6,-999.51172,63.47656,202.14844,0.1333644478692411,0.0624854052152749,-0.05475795995207,60.3,19.35,0.45
-928.22266,93.75,-420.41016,0.1171101965454179,-0.0331745202902074,-0.075275701572665,-6.9,27.45,16.2,-583.49609,22.94922,844.72656,0.1055191159170731,-0.0576890658978693,-0.158944866051096,90.45,-0.3,68.4,-992.67578,72.75391,212.40234,0.1446891912537315,0.1013889687751538,0.0001331686219271,58.8,19.95,0.3
-918.45703,56.15234,-420.41016,0.007860613885132,-0.0222496318373489,-0.122173047639603,-6.9,27.45,16.2,-588.86719,28.80859,833.98437,0.0658161915597809,-0.0450321126953316,-0.1620091406188224,90.45,-0.3,68.4,-1001.46484,89.84375,213.86719,0.1241714496331365,0.080871401687484,-0.0282450123508746,58.8,19.95,0.3
-902.34375,47.36328,-414.55078,0.0358392889921523,0.0554241521275563,-0.1235054319905755,-6.15,27.45,17.85,-577.63672,29.78516,858.88672,0.1040535629441735,-0.0706125308771865,-0.1424242774834185,91.65,-1.8,69.45,-1011.71875,80.56641,215.82031,0.0885988469506889,0.0121241041819038,-0.0178529729186499,60.3,19.8,1.5
-904.29687,65.91797,-435.54687,0.0628850856139816,-0.063684446411395,-0.0640843013430269,-6.9,26.7,15.45,-570.80078,53.22266,880.37109,0.0682144484849463,-0.0249142260063686,-0.140026020558253,90.15,0.0,68.7,-1026.36719,110.35156,219.23828,0.064750318985588,0.0169204434993094,-0.0486294108166172,58.95,20.55,-0.45
-917.96875,79.10156,-434.08203,-0.023981696587028,0.0492956029921034,-0.145621720673072,-7.05,26.55,16.65,-575.68359,64.45313,858.39844,0.0587549384720623,-0.03064326927604,-0.1488193383956508,89.85,-1.05,69.75,-1007.8125,114.74609,219.23828,0.0731439564242791,0.0291777163031404,-0.0202512298438154,59.7,19.05,0.15
-905.76172,66.89453,-416.01562,-0.0511608363637097,-0.0355727772153728,-0.1689372250846139,-7.5,28.2,16.2,-574.70703,54.6875,826.66016,0.0438330714992115,-0.045165455850184,-0.1345634890653612,90.3,0.15,67.8,-1001.95312,131.83594,212.89062,0.0800720408900706,-0.0103920394322246,-0.0279785005740951,60.0,20.55,-0.15
-898.4375,45.89844,-424.80469,-0.0462311538914518,-0.0286446927495813,-0.1574793130781963,-7.5,28.2,16.2,-589.84375,26.85547,850.58594,0.0207840788644492,-0.020117886688963,-0.1047197551196597,90.0,-0.45,68.85,-990.23437,107.91016,207.03125,0.0824701232823108,-0.002264913770313,-0.0237151848102485,59.25,19.8,-0.45
-907.71484,21.48438,-420.41016,-0.0299770771005538,0.0374380105869791,-0.1718683310304132,-7.2,25.65,15.75,-561.52344,35.64453,849.60937,0.018385996472209,-0.0123904414257581,-0.095393588261628,89.25,-0.15,70.65,-1009.27734,108.39844,187.98828,0.0426340303030914,0.0294440535469947,-0.0006661921754862,59.25,19.35,-0.15
-893.06641,24.41406,-416.99219,-0.0552909835056291,0.0587549384720623,-0.1581455052536826,-6.3,26.55,16.35,-579.58984,49.31641,852.53906,-0.0207840788644492,-0.0563568560798221,-0.0860674214035963,89.25,-0.15,70.65,-990.23437,97.65625,189.94141,0.0226493122360556,0.0175864611418704,-0.0939280352887284,59.25,19.35,-0.15
-915.03906,22.94922,-429.6875,-0.0250473946282958,0.0011990411961201,-0.1349631694640679,-5.7,27.15,16.5,-571.28906,38.57422,848.63281,0.0309096065198943,-0.06634921511334,-0.0912634411197086,90.0,1.2,68.85,-978.02734,93.75,202.63672,0.0054625314928918,0.0063950609122324,-0.041301645952119,59.4,19.5,-0.15
-927.73437,12.69531,-407.71484,-0.0051960197161123,-0.037970859607613,-0.0723445956268657,-5.7,27.15,16.5,-544.43359,62.5,827.63672,-0.0270459711547545,-0.0796723604913639,-0.050228132411444,90.15,-0.3,70.05,-970.70312,87.40234,204.10156,0.0059953805135257,0.0241148652089552,-0.0378376909856858,61.65,17.7,0.0
-887.20703,37.59766,-395.99609,-0.0764747427687851,-0.0319754790940873,-0.1301670046795875,-7.35,26.55,15.3,-525.87891,76.66016,827.63672,0.0037304667432126,-0.0776737839649052,0.0051960197161123,90.3,-1.2,68.55,-955.07812,101.07422,173.33984,-0.079272505559732,-0.0397029243572922,-0.0699463387017003,61.65,17.7,-1.05
-888.67187,23.4375,-367.67578,-0.0698131700797731,-0.0393032439585855,-0.0772741035661985,-6.9,26.7,17.25,-531.25,49.31641,826.17187,-0.031309286918601,-0.0667488955120467,-0.0066615726890119,89.85,-0.3,70.05,-965.33203,84.96094,196.77734,-0.0503614755662963,-0.0879326547752027,-0.0119907610270514,60.75,19.35,-0.75
-872.55859,32.71484,-393.55469,-0.0398360929792193,0.0082602942838387,-0.074209828998472,-6.9,26.7,16.8,-527.83203,49.80469,840.82031,-0.0131899767560967,-0.0568897051004559,-0.0262466103573411,90.3,0.9,69.15,-960.9375,83.49609,202.63672,-0.0598208110462552,-0.0730107878023519,-0.0747426780191059,60.15,18.45,0.0
-892.08984,24.41406,-397.46094,-0.0963261176809686,0.0506278128101507,-0.1189754299170242,-7.65,27.3,16.05,-536.13281,34.17969,846.67969,-0.0847350370526239,-0.0238483534321757,0.023448673033469,91.65,-0.3,70.5,-967.77344,100.58594,208.98437,-0.0688804661275074,-0.0494287716140306,-0.055823832526263,60.15,18.0,0.3
-891.11328,23.4375,-403.80859,-0.03064326927604,0.058088746296576,-0.08420218803199,-7.65,27.3,16.05,-534.66797,27.83203,839.84375,-0.0819372742616769,-0.0247810573844414,-0.0066615726890119,91.65,-0.3,70.5,-973.14453,99.60938,208.49609,-0.1803951370910315,-0.0198513749121835,-0.0812710820861907,59.85,18.45,-0.6
-903.80859,34.17969,-396.48437,-0.077540615342978,0.0862005900255235,-0.0723445956268657,-7.65,28.5,16.65,-549.80469,8.30078,867.67578,-0.095393588261628,-0.0794058487145844,0.0385038831611721,91.65,-1.8,70.5,-985.83984,74.70703,234.86328,-0.1605435876459228,-0.0588882816269146,-0.0539585991546566,59.85,18.45,-0.6
-897.46094,44.43359,-373.04687,-0.1153783063286639,0.1501515482136981,-0.1161776671260773,-7.65,27.0,16.35,-561.03516,13.18359,883.78906,-0.0896645449919567,-0.0263797789792682,0.0436999028772844,90.0,0.15,70.65,-977.05078,61.52344,217.28516,-0.1957166844625889,-0.0197182062902563,-0.0235820161883213,59.25,20.55,0.15
-898.4375,31.25,-351.5625,-0.0848683802074762,0.1770643507465255,-0.0992572236267679,-7.65,26.55,16.65,-546.875,9.76562,880.37109,-0.0535589187559499,-0.0470306892217904,0.0510274932088574,91.8,-0.9,68.55,-987.79297,45.89844,225.09766,-0.1834594116587579,-0.0810045703094112,-0.0407687969314851,59.25,20.55,0.15
-866.21094,63.47656,-393.06641,-0.113246561180278,0.1450888716524382,-0.1052526041402936,-7.65,26.55,16.65,-532.22656,-1.95312,852.53906,-0.051827028539196,-0.0758085505932989,0.0021317451483858,91.8,-0.9,68.55,-989.25781,34.66797,241.69922,-0.1771975193684527,-0.1653399269633284,-0.0222496318373489,60.3,19.05,-0.75
-885.74219,31.25,-400.39062,-0.1608100994227023,0.1570796326794896,-0.1505512286124048,-7.95,26.1,16.2,-526.36719,-9.27734,841.30859,-0.0325085026476463,-0.0911300979648563,0.0127901218244648,91.65,-0.75,68.4,-970.70312,51.26953,231.44531,-0.1227058966602369,-0.1326982556937548,-0.023981696587028,59.85,19.5,-0.3
-925.78125,35.15625,-423.82812,-0.1526829737607907,0.1360290420382608,-0.1023216727274195,-6.15,26.4,15.75,-542.96875,-21.97266,854.00391,-0.032908183046353,-0.0739433172216925,0.0776737839649052,89.85,-1.5,69.45,-962.40234,54.6875,224.12109,-0.1139127533557643,-0.0592879620256213,-0.0740764858436197,61.2,19.95,-1.05
-910.64453,40.03906,-416.01562,-0.1396263401595463,0.1056524590719255,-0.1361623851931132,-9.6,26.7,16.5,-550.78125,-12.20703,891.11328,-0.0536922619108023,-0.0277121633302407,0.054091942309509,89.85,-1.5,69.45,-979.00391,53.71094,234.86328,-0.143356806902759,-0.0735436368229858,0.0387702204050264,60.3,19.35,0.45
-933.59375,32.22656,-447.75391,-0.1937182824690554,0.1326982556937548,-0.1449555284975858,-7.2,28.95,16.2,-550.78125,-38.08594,916.99219,-0.0279785005740951,-0.0302434143444081,0.0206509102425221,91.2,-1.05,70.8,-985.83984,52.73438,268.06641,-0.1837259234355374,-0.0466310088230837,-0.0766079113907123,60.6,19.95,0.0
-954.58984,14.64844,-483.39844,-0.1136462415789847,0.0381042027624654,-0.0908637607210019,-7.2,28.95,16.2,-544.43359,-20.50781,905.76172,-0.0751423584178126,-0.0823369546603836,0.0415681577288985,89.4,0.75,70.5,-973.63281,67.87109,257.32422,-0.2003798551580673,-0.0715452348294523,-0.0293108849250675,60.15,19.2,-0.3
-971.19141,23.92578,-460.9375,-0.1040535629441735,-0.0283781809728018,-0.073676805444913,-8.55,27.45,16.8,-527.83203,-33.20313,878.90625,-0.0343737360192527,-0.0254472495599277,-0.014522186574144,91.35,-1.65,70.35,-984.86328,72.75391,250.48828,-0.2142358495567251,-0.0309096065198943,-0.0640843013430269,60.15,19.2,-0.3
-965.82031,15.625,-446.28906,-0.1151117945518844,-0.0334410320669869,-0.1546815502872494,-7.95,26.1,15.75,-526.85547,-20.50781,921.38672,-0.0077274452632048,-0.0121241041819038,0.0361056262360067,91.35,-1.65,70.35,-976.07422,76.66016,241.69922,-0.2510076679682181,-0.0768744231674918,-0.0253139064050753,59.25,19.35,0.45
-960.9375,7.32422,-426.26953,-0.0590214502488418,-0.1528161423827179,-0.1444226794769519,-7.95,27.45,16.5,-487.79297,-26.36719,919.92187,0.0059953805135257,-0.0506278128101507,0.0478300500192038,91.35,-1.65,70.35,-954.58984,74.70703,258.30078,-0.1751991173749191,-0.0835359958565038,0.0091929982361045,59.1,19.2,0.6
-945.3125,3.41797,-427.73437,-0.0676814249313873,-0.1933186020703487,-0.1045865864977326,-7.95,27.45,16.5,-517.08984,-20.01953,834.96094,-0.0147886983509235,-0.0807380585326316,0.034640073263107,90.0,-0.45,70.95,-969.23828,64.45313,233.88672,-0.2458116482521058,-0.0107917198309313,-0.0081271256619115,59.85,18.45,-0.3
-900.39062,-17.57813,-401.36719,-0.1457548892949992,-0.141091893132446,-0.1008561197545199,-6.6,27.0,16.65,-536.13281,-10.25391,778.80859,0.0106585512090041,-0.0099923590335179,0.0695466583029936,90.3,-1.65,69.15,-969.72656,64.45313,226.5625,-0.1941179628677621,0.0103920394322246,-0.0166539317225298,60.0,19.05,1.2
-893.06641,-9.27734,-422.85156,-0.0205175670876697,-0.215301722130918,-0.0824701232823108,-7.35,28.05,16.35,-557.61719,2.92969,834.47266,0.0158545709251164,0.0357059458372999,0.0820704428836041,91.2,-0.3,69.45,-963.37891,51.26953,225.58594,-0.225960098806997,0.0027979373238721,-0.013456313999951,60.3,19.8,0.45
-901.36719,-26.85547,-431.15234,-0.0101255276554451,-0.1654732701181807,-0.0782068075184643,-7.5,27.45,16.8,-553.22266,0.97656,874.51172,0.0293108849250675,0.0462311538914518,0.0279785005740951,90.45,0.3,70.5,-989.74609,60.54688,219.72656,-0.1726676918278266,0.0515605167624164,0.0006661921754862,61.05,18.6,0.15
-906.25,-31.25,-454.10156,-0.0466310088230837,-0.18625734898263,-0.1204409828899239,-7.5,26.7,16.5,-563.47656,-4.39453,881.34766,-0.0278453319521679,0.0768744231674918,0.0764747427687851,89.4,-0.3,70.8,-988.28125,66.40625,205.56641,-0.1890551117735769,-0.0057288687367461,0.0283781809728018,61.05,18.6,0.15
-899.41406,-20.50781,-440.42969,0.018385996472209,-0.203577298347721,-0.0679479367081668,-7.5,26.7,16.5,-595.21484,13.67187,829.58984,0.0135896571548034,-0.0071944217096458,0.0311761182966739,91.05,-1.2,70.65,-1009.27734,50.29297,223.14453,-0.1430902951259795,-0.023448673033469,-0.0341072242424731,59.25,20.55,0.45
-874.02344,0.97656,-429.6875,0.0098591904115907,-0.1128468807815713,-0.0499617951675896,-6.6,27.75,17.4,-591.79687,10.74219,862.30469,0.0294440535469947,-0.0117244237831971,0.0884655037958365,91.05,-1.2,70.65,-1011.23047,54.19922,203.125,-0.1562802718820762,-0.0083936374386911,0.0583552580733556,59.25,20.55,0.45
-884.76562,15.13672,-395.50781,-0.043566559722432,-0.0365053066347134,-0.0315757986953806,-7.2,27.15,16.5,-572.75391,2.92969,857.42187,-0.0070612530877186,-0.0599539796681824,0.0824701232823108,90.45,-0.3,71.25,-1001.95312,39.0625,202.63672,-0.1376279381660128,-0.0654165111610742,0.0090596550812521,59.25,20.55,0.45
-877.44141,21.97266,-380.37109,0.0370383301882724,-0.03064326927604,-0.0170536121212365,-5.55,27.75,18.15,-579.58984,-5.85937,865.72266,0.0019984019935335,-0.0583552580733556,0.0598208110462552,90.45,0.0,70.8,-1016.11328,37.59766,209.47266,-0.1569464640575625,-0.1428239578821251,0.0278453319521679,60.15,19.5,0.0
-860.83984,41.99219,-378.90625,0.0270459711547545,0.0246477142295891,-0.0013323843509724,-5.55,27.75,18.15,-562.5,2.92969,843.75,0.0013323843509724,-0.0550244717288496,0.0917962901403425,91.35,-0.45,69.9,-1011.23047,16.11328,212.89062,-0.1853246450303643,-0.087532974376496,0.0285115241276541,59.85,19.95,0.6
-892.57812,38.08594,-395.99609,-0.0115910806283447,0.1681378642872005,-0.0219831200605693,-5.55,27.75,18.15,-546.38672,-1.46484,876.95312,-0.0143890179522168,-0.0019984019935335,0.0885988469506889,90.9,1.5,70.5,-987.30469,23.92578,224.60937,-0.1540153581117632,-0.0387702204050264,0.0700796818565527,60.9,19.2,0.0
-936.03516,9.27734,-414.55078,0.0066615726890119,0.0850015488294034,-0.0062618922903052,-7.05,25.8,17.7,-553.22266,-11.23047,890.625,-0.0255804181818548,-0.0205175670876697,0.0706125308771865,91.95,-0.3,70.8,-1005.37109,32.71484,222.16797,-0.1882557509761635,-0.0382373713843925,0.0419678381276052,60.0,19.35,0.75
-987.79297,-3.90625,-422.85156,0.0299770771005538,0.0448989440734045,-0.0105252080541518,-6.45,26.7,16.8,-539.55078,-22.46094,873.53516,-0.0259800985805615,-0.0122572728038309,0.0945942274642146,91.95,-1.05,71.25,-985.83984,37.10938,230.95703,-0.158944866051096,-0.1385604675853534,0.0217166082837898,61.05,18.6,0.45
-1029.78516,17.08984,-425.78125,-0.0800720408900706,-0.0081271256619115,0.0191853572696224,-7.95,26.1,16.8,-524.90234,-3.90625,847.16797,0.0157212277702641,-0.0165205885676775,0.1148452827751048,91.95,-1.05,71.25,-950.68359,29.29688,241.21094,-0.132165406673121,-0.0973919902551615,-0.0046631706954784,59.85,18.75,1.65
-1003.90625,7.32422,-376.46484,-0.0139893375535101,-0.0896645449919567,0.0627519169920545,-6.9,27.45,15.75,-511.23047,-3.90625,847.16797,0.002264913770313,-0.0539585991546566,0.0944608843093623,91.35,-0.45,70.65,-949.70703,50.78125,250.97656,-0.0710122112758932,-0.0706125308771865,0.0590214502488418,59.85,18.75,1.65
-945.80078,27.83203,-397.46094,-0.0085268060606182,-0.1536156777130565,0.0401026047559989,-6.9,27.45,15.75,-512.69531,17.57813,822.26562,0.0031976177225788,-0.0319754790940873,0.042900542079871,90.9,-1.05,70.5,-928.22266,56.15234,230.46875,-0.077540615342978,-0.0005328490206338,0.040235773377926,61.65,21.0,2.1
-908.20312,16.11328,-366.21094,-0.0940612039106556,-0.0903307371674429,0.0622190679714206,-7.5,27.15,16.2,-510.25391,38.57422,816.40625,-0.0403691165327784,0.0542251109314362,0.074209828998472,90.45,-0.3,70.8,-940.91797,70.80078,244.14062,-0.1213736868421896,0.1015221373970809,0.0732771250462063,61.65,21.0,2.1
-888.67187,45.89844,-391.11328,-0.1267028751802291,-0.032908183046353,0.05475795995207,-7.5,25.65,17.55,-536.13281,40.03906,839.35547,0.0037304667432126,0.0568897051004559,0.1135130729570576,90.45,-0.3,70.8,-954.10156,70.80078,220.21484,-0.08420218803199,0.0887320155726161,0.027312482931534,59.7,19.05,1.5
-875.0,34.66797,-415.03906,-0.0866002704242302,-0.0642174699649541,0.0656830229378538,-7.35,27.3,17.4,-522.94922,59.57031,854.49219,-0.0113245688515652,0.1027213531261262,0.1398928519363259,91.05,0.45,70.65,-971.19141,73.24219,229.49219,-0.1243047927879889,0.1179097318757565,0.0147886983509235,59.85,19.5,1.35
-908.20312,30.27344,-399.41406,-0.1248376418086228,-0.0082602942838387,-0.0066615726890119,-7.35,27.3,17.4,-571.77734,34.17969,870.60547,-0.052493046181757,0.0498284520127373,0.1309663654770009,91.35,-1.2,70.35,-985.83984,88.37891,220.21484,-0.1324319184499005,0.0399694361340717,0.0438330714992115,61.05,20.1,0.45
-933.59375,5.37109,-395.99609,-0.1027213531261262,0.0147886983509235,0.0213169278850831,-6.9,27.15,17.55,-542.96875,26.85547,910.15625,0.0081271256619115,0.0341072242424731,0.0810045703094112,91.35,-1.2,70.35,-994.14062,83.49609,243.16406,-0.1553475679298105,-0.0287778613715085,0.0615528757959344,59.7,19.35,0.15
-943.84766,25.39063,-404.29687,-0.070346019100407,-0.0642174699649541,0.0258469299586344,-7.35,25.5,16.05,-551.26953,2.44141,911.62109,0.016787100344457,-0.0129234649793172,0.1334976164911682,89.4,0.3,70.8,-991.21094,58.59375,250.97656,-0.0969923098564548,-0.0815375938629702,-0.0019984019935335,59.7,19.35,0.15
-936.52344,37.59766,-410.15625,-0.0925956509377559,-0.0249142260063686,-0.0452986244721112,-7.5,27.45,17.25,-549.31641,-0.97656,878.90625,0.03064326927604,0.0054625314928918,0.1260366830047429,90.3,0.45,70.65,-1003.41797,63.47656,255.85937,-0.1528161423827179,-0.0913966097416358,0.0510274932088574,60.15,20.25,1.65
-931.64062,54.6875,-398.4375,-0.064750318985588,-0.0586217698501351,-0.0079939570399844,-8.1,27.3,16.65,-553.71094,6.34766,894.53125,-0.0149218669728507,-0.0365053066347134,0.1525498051388636,90.3,-0.9,70.65,-991.21094,51.75781,261.23047,-0.1584120170304621,-0.0652833425391471,0.0699463387017003,60.15,20.25,1.65
-931.15234,55.17578,-404.78516,-0.0101255276554451,-0.0787396565390981,0.0711455544307456,-8.1,27.3,16.65,-528.32031,16.60156,867.1875,-0.0225161436141284,-0.0119907610270514,0.1620091406188224,90.3,-0.9,70.65,-1005.37109,52.73438,278.80859,-0.1590780346730231,-0.0464976656682313,0.0740764858436197,59.25,19.8,1.5
-921.875,56.15234,-402.83203,-0.0844685252758443,-0.0475635382424242,0.0391699008037331,-7.2,27.9,16.8,-540.03906,12.20703,843.26172,-0.0166539317225298,-0.0327748398915007,0.1686707133078344,90.9,1.05,71.55,-990.72266,44.92188,258.30078,-0.1770643507465255,-0.0209172474863764,0.0542251109314362,59.25,21.6,0.75
-918.45703,23.92578,-395.99609,-0.1044532433428802,-0.0097258472567384,0.0142556747973644,-7.95,27.15,16.2,-552.24609,-1.95312,825.19531,-0.0178529729186499,-0.0267794593779749,0.1708024584562202,91.2,0.3,70.05,-979.49219,43.45703,262.20703,-0.192918921671642,0.0013323843509724,0.0570230482553083,60.9,21.45,1.05
-935.05859,24.41406,-390.625,-0.0417013263508257,-0.0397029243572922,0.077540615342978,-6.6,27.3,17.4,-547.36328,14.64844,856.44531,-0.0219831200605693,0.0035972981212855,0.1593445464498027,91.2,0.3,70.05,-968.26172,51.75781,249.51172,-0.1430902951259795,0.0266462907560478,0.0981913510525749,59.1,21.45,-0.6
-928.22266,14.64844,-403.32031,-0.0610198522423753,-0.036238969390859,0.0599539796681824,-6.6,27.3,17.4,-530.27344,19.04297,868.16406,-0.0209172474863764,0.0684807857288007,0.1382939558085739,90.3,0.9,72.0,-980.46875,50.29297,235.83984,-0.128834620328615,0.0688804661275074,0.1068515002680456,60.0,20.85,1.5
-912.10937,21.48438,-412.59766,-0.0442327518979182,-0.0592879620256213,0.0748760211739583,-6.0,25.8,16.05,-550.29297,16.11328,878.90625,-0.0191853572696224,0.0678147680862396,0.1605435876459228,89.4,0.75,70.05,-964.35547,75.68359,213.86719,-0.150018379591771,0.0350397536618137,0.0370383301882724,60.3,20.85,1.5
-908.20312,44.92188,-410.15625,-0.0173201238980161,-0.0679479367081668,0.0784731447623186,-6.3,26.25,16.65,-562.5,18.06641,849.12109,-0.0425006871482391,0.0315757986953806,0.1458882324498516,90.75,0.9,70.65,-983.39844,70.80078,227.53906,-0.2027779375503076,0.0102588708102974,0.0594211306475485,60.3,20.85,1.5
-900.87891,39.0625,-414.55078,-0.0251807377831481,0.0126569532025376,0.0586217698501351,-5.25,26.25,17.1,-572.75391,17.08984,840.33203,-0.0552909835056291,0.0562235129249697,0.140026020558253,90.75,0.9,70.65,-982.42187,73.73047,229.49219,-0.1646737347878422,0.0265129476011954,0.0235820161883213,60.3,20.85,1.5
-898.4375,47.36328,-407.71484,-0.0245145456076619,0.0718115720733066,0.0510274932088574,-6.6,27.3,15.6,-564.94141,23.92578,879.39453,-0.0464976656682313,0.0383705400063197,0.1754656291516987,90.3,1.2,69.9,-988.28125,76.66016,224.60937,-0.2239616968134635,0.0195850376683291,0.0331745202902074,61.05,20.55,0.75
-895.01953,60.54688,-407.71484,0.0107917198309313,0.0371714988101996,0.1068515002680456,-6.6,27.3,15.6,-556.64062,26.36719,873.04687,-0.032908183046353,0.0291777163031404,0.1537488463349836,89.85,0.75,70.5,-993.16406,71.28906,229.00391,-0.1641408857672083,0.0498284520127373,0.0281118437289474,59.7,21.6,1.2
-876.95312,77.14844,-395.50781,-0.0422343499043847,0.1025880099712739,0.0835359958565038,-6.3,28.05,16.65,-554.6875,16.60156,838.37891,-0.0274456515534612,-0.0187856768709157,0.1464210814704855,91.65,1.8,69.45,-982.42187,86.42578,240.23437,-0.212503784807046,0.0330413516682802,0.0427671989250186,59.4,20.25,1.35
-855.46875,76.66016,-381.83594,-0.0117244237831971,0.1469541050240445,0.0430337107017981,-6.15,27.45,17.25,-523.92578,17.08984,859.86328,-0.0330413516682802,-0.0298437339457014,0.1922527294961557,91.65,1.8,69.45,-975.09766,65.42969,230.46875,-0.1806614743348858,-0.0185191650941362,0.0603538345998143,58.5,21.9,0.75
-833.98437,99.12109,-387.20703,-0.0536922619108023,0.095393588261628,0.0911300979648563,-5.55,26.55,17.7,-540.03906,38.08594,833.00781,0.0046631706954784,-0.0017320647496791,0.1569464640575625,91.05,1.95,71.7,-962.89062,62.01172,234.375,-0.1713353074768541,0.0578224090527217,0.0730107878023519,59.85,22.2,1.65
-829.10156,78.125,-363.76953,-0.1301670046795875,0.1937182824690554,0.0350397536618137,-5.55,26.55,17.7,-523.4375,32.22656,859.86328,-0.0089264864593249,-0.0510274932088574,0.1406922127337393,89.1,-0.75,70.8,-968.75,32.22656,199.70703,-0.20411032190128,0.0730107878023519,0.0464976656682313,59.7,21.6,1.8
-833.98437,92.77344,-355.46875,-0.1641408857672083,0.1841256038342442,-0.0138559943986577,-7.2,27.45,15.45,-530.27344,0.48828,868.16406,-0.0343737360192527,-0.0037304667432126,0.1476202971995308,90.3,0.9,71.4,-948.73047,26.85547,208.49609,-0.2001133433812878,0.1440229990782452,0.0231821612566894,59.7,21.6,1.8
-837.89062,100.09766,-375.97656,-0.0836691644784309,0.1725345232058994,0.0169204434993094,-6.9,26.1,17.25,-556.15234,4.88281,887.69531,-0.0265129476011954,0.0373046674321268,0.1244379614099161,90.3,0.9,71.4,-973.63281,20.01953,199.21875,-0.1803951370910315,0.1356293616395541,0.0997902471803269,59.7,22.35,1.5
-900.39062,64.94141,-409.66797,-0.1244379614099161,0.1994471512058016,-0.0037304667432126,-9.3,26.7,17.55,-520.01953,-11.71875,903.80859,-0.013456313999951,0.0198513749121835,0.128834620328615,90.0,0.9,70.35,-988.76953,21.48438,229.98047,-0.1817273469090787,0.0355727772153728,0.0603538345998143,59.7,22.35,1.5
-946.28906,53.71094,-437.98828,-0.143356806902759,0.1586783542743164,-0.0245145456076619,-7.05,27.75,17.4,-528.32031,-9.76562,830.56641,-0.0552909835056291,0.0143890179522168,0.0668820641339739,91.8,1.2,69.9,-957.51953,22.94922,250.97656,-0.1159111553492978,0.0301102457224809,0.0802052095119978,60.3,21.6,1.2
-979.49219,57.12891,-465.82031,-0.0907304175661496,0.069680001457846,0.0739433172216925,-7.05,27.75,17.4,-537.10937,24.90234,837.89062,-0.0103920394322246,-0.0113245688515652,0.0687472975055802,90.45,1.5,70.05,-961.91406,45.41016,257.8125,-0.1197749652473628,0.0488959225933967,0.0496952833908101,58.35,21.0,1.05
-1001.95312,60.05859,-459.47266,-0.1009892883764471,0.0066615726890119,-0.0455651362488907,-6.15,26.7,16.8,-535.15625,-1.46484,837.40234,0.0219831200605693,0.0488959225933967,0.0768744231674918,89.85,0.75,70.5,-963.37891,39.55078,248.53516,-0.0568897051004559,0.087532974376496,0.086467101802303,58.8,20.25,1.65
-1014.64844,67.87109,-458.98437,-0.0819372742616769,-0.0242480338308824,0.0133231453780239,-7.95,26.7,15.45,-524.41406,28.32031,857.91016,0.0130566336012443,0.1031210335248329,0.073676805444913,91.2,-0.3,70.5,-966.30859,46.875,241.69922,-0.0762082309920056,0.1441561677001724,0.0423675185263119,59.1,22.5,0.6
-1009.76562,68.84766,-441.89453,-0.0001331686219271,-0.1604104190239956,0.0644839817417337,-7.65,27.3,15.6,-505.37109,47.36328,855.95703,-0.004529827540626,0.032375159492794,0.0483628990398376,90.75,1.65,69.9,-964.84375,62.98828,257.8125,-0.0684807857288007,0.1998468316045083,0.046897346066938,60.75,21.15,1.5
-969.23828,81.05469,-422.36328,-0.0542251109314362,-0.2049096826986934,0.0618192130397887,-7.65,27.3,15.6,-509.27734,48.33984,851.07422,-0.0433002224785777,0.050228132411444,0.080871401687484,90.75,1.65,69.9,-964.84375,62.98828,252.92969,-0.0592879620256213,0.1657396073620351,0.015055210127703,60.3,21.6,1.5
-922.36328,71.77734,-372.55859,-0.0780734643636119,-0.1263031947815224,0.0401026047559989,-7.65,27.3,15.6,-528.80859,53.71094,854.00391,0.0359724576140795,0.0013323843509724,0.0815375938629702,90.3,1.2,70.65,-986.81641,81.54297,243.65234,-0.0572893854991626,0.1592113778278755,0.0003996803987067,60.3,21.6,1.5
-871.09375,72.75391,-344.23828,-0.049162259837251,-0.0959264372822619,0.091529778363563,-6.3,28.05,16.35,-548.82812,43.94531,851.07422,-0.0025314255470925,0.04849624219469,0.0572893854991626,90.3,0.9,70.95,-974.12109,75.68359,243.65234,-0.0077274452632048,0.113246561180278,0.0342403928644003,60.9,21.75,1.65
-838.37891,75.19531,-331.05469,-0.0039969785199922,-0.0798055291132911,0.0985910314512816,-6.6,28.05,16.35,-570.3125,40.52734,848.14453,-0.0229158240128351,0.0086599746825454,0.1035207139235396,90.0,1.2,69.6,-983.39844,63.47656,227.05078,-0.0113245688515652,0.1244379614099161,0.0830031468358699,59.4,22.2,1.65
-848.14453,68.35938,-374.51172,-0.032908183046353,0.0707458740320389,0.03064326927604,-8.25,28.65,16.5,-578.125,21.48438,860.35156,-0.0051960197161123,0.0354394340605204,0.1001899275790336,90.0,1.2,69.6,-994.14062,71.28906,236.32812,-0.0550244717288496,0.1268362183350815,0.1152449631738115,60.15,21.45,1.05
-966.79687,66.89453,-430.17578,0.0391699008037331,-0.0011990411961201,0.1357627047944065,-6.6,28.5,17.7,-557.61719,20.50781,856.44531,0.0448989440734045,0.0170536121212365,0.1048529237415869,90.9,1.8,69.45,-998.04687,64.94141,249.02344,-0.0327748398915007,0.0877993116203503,0.0490290912153239,60.0,21.15,0.45
-1009.27734,88.37891,-454.10156,0.077540615342978,0.0149218669728507,0.1750657742200668,-6.6,28.5,17.7,-574.21875,25.39063,872.55859,0.0359724576140795,0.0642174699649541,0.0458314734927451,89.55,0.15,69.6,-998.04687,46.875,240.72266,-0.0314426300734534,0.1028545217480534,0.0672817445326806,59.7,21.15,2.25
-1017.08984,56.64063,-456.05469,0.1029876903699806,-0.0350397536618137,0.0999234158022541,-7.2,27.15,17.25,-562.01172,-6.34766,869.62891,0.041301645952119,0.0018652333716063,0.0694134896810664,89.55,0.15,69.6,-999.02344,49.80469,222.16797,-0.0566231933236764,0.0692803210591393,0.0317089673173077,59.1,21.0,1.05
-957.51953,72.75391,-445.3125,0.0602204914449619,-0.1330979360924615,0.1629418445710882,-8.4,28.5,17.1,-558.59375,2.92969,842.28516,0.0626187483701273,0.0535589187559499,0.0397029243572922,90.75,0.9,69.9,-994.14062,44.43359,239.25781,-0.0342403928644003,0.0037304667432126,-0.0011990411961201,59.1,21.0,1.05
-890.625,83.00781,-387.20703,0.0748760211739583,-0.1520167815853045,0.1160443239712249,-6.6,27.75,16.05,-571.28906,30.27344,838.37891,0.075275701572665,0.0660827033365605,0.0118575924051242,89.1,0.3,71.25,-996.09375,39.55078,249.51172,-0.0099923590335179,0.0307764378979672,0.1103154552344788,59.1,21.0,1.05
-821.28906,95.70313,-350.58594,0.0458314734927451,-0.049162259837251,0.0764747427687851,-6.6,27.75,16.05,-542.48047,20.99609,872.55859,0.1099157748357721,0.1105819670112583,0.0863337586474507,90.45,1.05,71.25,-1010.25391,41.01563,227.05078,-0.0019984019935335,0.0381042027624654,0.0711455544307456,59.25,21.6,1.8
-825.68359,114.25781,-369.14062,0.1257703457608885,0.0027979373238721,0.1139127533557643,-8.25,28.95,17.85,-539.0625,48.33984,917.48047,0.0928621627145355,0.0560903443030425,0.0146553551960711,90.45,1.05,71.25,-998.04687,55.66406,211.91406,-0.0331745202902074,0.0459648166475974,0.107650861065459,59.25,21.6,1.8
-882.8125,131.83594,-379.88281,0.1237717692344298,0.0858009096268168,0.0824701232823108,-6.9,27.45,16.2,-549.31641,50.29297,864.25781,0.0812710820861907,0.0326416712695735,0.0262466103573411,90.3,1.2,69.6,-1000.48828,54.19922,235.35156,-0.0206509102425221,-0.0275788201753884,0.0750091897958855,58.95,21.9,0.75
-924.31641,123.04688,-393.06641,0.098724374606134,0.1385604675853534,0.04849624219469,-7.65,28.05,16.05,-554.6875,58.10547,864.74609,0.0510274932088574,0.0378376909856858,-0.0065284040670847,90.3,0.9,69.9,-980.46875,84.96094,249.02344,-0.0385038831611721,0.0303767574992605,0.0961929490590414,59.4,21.0,1.35
-925.78125,137.69531,-390.625,0.0675482563094601,0.0692803210591393,0.0714118916745999,-7.35,28.8,17.4,-451.66016,52.73438,913.08594,-0.0121241041819038,-0.2968391414609632,0.0179861415405771,90.3,0.9,69.9,-963.37891,99.60938,232.91016,-0.0197182062902563,0.0480965617959833,0.0302434143444081,59.25,23.1,0.15
-907.22656,126.46484,-403.80859,0.0382373713843925,0.0643506385868813,0.0578224090527217,-7.35,28.8,17.4,-523.92578,82.51953,829.58984,-0.0094593354799588,-0.0333078634450597,0.0198513749121835,90.3,1.95,70.35,-959.47266,104.00391,233.88672,0.0031976177225788,0.0818039311068246,0.0345069046411798,60.0,23.1,1.2
-912.59766,106.44531,-382.32422,-0.0365053066347134,0.0975253334100139,0.0226493122360556,-8.1,27.75,17.7,-527.83203,59.57031,795.89844,0.0261132672024887,-0.0343737360192527,0.0142556747973644,91.05,1.65,68.55,-941.40625,106.44531,219.23828,-0.0117244237831971,0.1207074946667034,0.0299770771005538,59.7,21.9,1.2
-895.01953,104.49219,-415.52734,0.0151883787496302,0.0779402957416847,0.0543582795533633,-7.95,28.2,17.55,-515.13672,62.98828,859.375,-0.002264913770313,0.0423675185263119,0.0572893854991626,89.4,1.05,70.8,-954.58984,108.39844,211.42578,0.0209172474863764,0.1049862668964393,0.0263797789792682,60.3,23.1,2.25
-879.88281,91.30859,-382.32422,0.0330413516682802,0.0646171503636608,-0.0135896571548034,-8.1,27.3,17.1,-516.11328,55.66406,849.60937,0.0333078634450597,-0.0281118437289474,-0.0315757986953806,89.4,1.05,70.8,-953.125,86.91406,199.70703,0.0038636353651398,0.1502848913685505,0.0038636353651398,60.3,23.1,2.25
-846.67969,82.03125,-373.53516,-0.0333078634450597,0.1472204422678988,-0.0699463387017003,-8.1,27.3,17.1,-537.59766,28.32031,855.46875,0.070346019100407,-0.0070612530877186,0.0443659205198454,90.3,1.2,70.95,-961.91406,58.10547,200.68359,0.007860613885132,0.0939280352887284,0.0173201238980161,60.15,21.75,0.3
-835.44922,59.57031,-398.4375,0.0570230482553083,0.1432236382808319,-0.0122572728038309,-8.4,27.0,16.65,-545.41016,36.62109,847.16797,0.0194516945134768,-0.0486294108166172,0.0397029243572922,90.75,0.9,70.35,-971.67969,44.92188,208.00781,-0.0163874199457503,0.0728774446474996,0.0519601971611231,58.95,22.35,0.45
-834.96094,60.05859,-413.57422,0.0049295079393327,0.1762649899491121,-0.0129234649793172,-6.6,27.75,16.65,-556.15234,26.36719,852.05078,0.0151883787496302,0.0075941021083525,0.0065284040670847,90.3,1.65,70.65,-983.39844,25.87891,212.40234,0.0011990411961201,0.0251807377831481,0.0436999028772844,59.25,23.85,0.75
-865.23437,62.98828,-414.55078,-0.0472970264656447,0.2404824599140662,-0.0474303696204971,-6.9,28.65,15.15,-575.68359,19.53125,838.86719,0.0282450123508746,0.0246477142295891,0.0118575924051242,92.1,1.2,70.65,-997.55859,39.55078,208.00781,0.0301102457224809,0.0211837592631559,0.0706125308771865,58.8,22.2,1.05
-878.90625,60.05859,-429.6875,0.0087933178373978,0.1593445464498027,-0.0397029243572922,-7.35,27.3,16.65,-571.77734,38.08594,852.53906,0.0093261668580317,0.0482297304179105,-0.0182526533173567,90.45,1.05,70.65,-987.30469,47.85156,209.47266,0.0776737839649052,0.0062618922903052,0.03064326927604,58.95,22.65,0.75
-909.17969,79.10156,-449.70703,-0.0515605167624164,0.1585451856523893,-0.0186523337160634,-7.35,27.3,16.65,-577.63672,48.33984,888.67187,-0.0010658725741929,0.0550244717288496,0.0002665117767795,90.75,1.05,70.5,-987.79297,57.12891,188.96484,0.0570230482553083,-0.013456313999951,-0.0217166082837898,60.15,21.0,1.05
-954.58984,98.14453,-498.04687,-0.0977916706538682,0.1164441789028568,-0.0079939570399844,-7.5,27.45,16.2,-570.3125,47.36328,901.36719,-0.0321086477160144,0.0389035635598788,0.0194516945134768,90.75,1.2,69.15,-1007.32422,69.82422,198.24219,0.1025880099712739,0.0247810573844414,0.025713586803782,60.15,21.0,1.05
-953.125,95.21484,-513.18359,-0.0499617951675896,0.0399694361340717,-0.0006661921754862,-7.05,28.8,16.65,-552.73437,27.34375,866.21094,0.0089264864593249,0.0314426300734534,-0.0003996803987067,90.75,1.2,69.15,-1009.76562,70.80078,210.9375,0.1195084534705833,0.0146553551960711,0.0174532925199432,59.4,22.2,0.6
-934.57031,103.51563,-472.65625,-0.095393588261628,0.0219831200605693,0.0178529729186499,-8.7,29.25,16.35,-576.17187,58.10547,818.84766,0.0353062654385932,0.0559571756811154,0.0159877395470436,90.0,1.2,70.65,-985.35156,73.73047,213.86719,0.0913966097416358,0.0342403928644003,0.0245145456076619,59.4,22.2,0.6
-894.53125,104.49219,-467.77344,-0.1388269793621329,0.0389035635598788,0.0034639549664331,-7.5,27.15,15.75,-574.21875,30.76172,822.26562,-0.0433002224785777,0.0635512777894679,-0.0230489926347623,90.9,2.55,70.8,-979.00391,87.89063,201.17187,0.132165406673121,0.0206509102425221,0.0219831200605693,60.3,22.35,0.15
