IMU1_AccX,IMU1_AccY,IMU1_AccZ,IMU1_GyrX,IMU1_GyrY,IMU1_GyrZ,IMU1_MagX,IMU1_MagY,IMU1_MagZ,IMU2_AccX,IMU2_AccY,IMU2_AccZ,IMU2_GyrX,IMU2_GyrY,IMU2_GyrZ,IMU2_MagX,IMU2_MagY,IMU2_MagZ,IMU3_AccX,IMU3_AccY,IMU3_AccZ,IMU3_GyrX,IMU3_GyrY,IMU3_GyrZ,IMU3_MagX,IMU3_MagY,IMU3_MagZ
0.04321289000000002,0.5234375,0.29663086,0.5000131233051787,0.5000210505033748,0.49996642571204464,-7.05,28.8,17.1,0.21215820500000002,0.5341796900000001,0.9162597650000001,0.4999892082801691,0.4999880758232839,0.4999792159211356,90.0,-0.15,68.85,0.007568359999999984,0.55908203,0.5876464849999999,0.5000021983294594,0.5000405688694657,0.49998634375853424,59.1,21.0,-3.15
0.04028320500000001,0.529785155,0.305908205,0.5000341072242425,0.5000029311059457,0.5000140559218645,-7.05,28.8,16.65,0.21411133000000002,0.5222167950000001,0.924804685,0.4999792159211356,0.4999636944462982,0.5000077940295742,90.45,-0.75,68.4,0.004638669999999991,0.5576171900000001,0.58300781,0.4999895413762568,0.5000087932305709,0.4999843453565407,59.7,21.6,-2.85
0.04125976500000002,0.52685547,0.30883789,0.5000515605167625,0.49999913396762513,0.5000163874199458,-7.05,28.8,16.65,0.220703125,0.5244140650000001,0.9162597650000001,0.49998014853782136,0.5000063950609122,0.5000249142260064,90.45,-0.75,68.4,0.012207029999999975,0.55908203,0.580078125,0.4999938047792871,0.5000083269658613,0.4999922725547368,57.9,20.55,-2.55
0.04711914000000002,0.5263671900000001,0.302001955,0.50001945178178,0.5000167205160335,0.49997275418864584,-7.35,27.3,16.65,0.21533202999999998,0.5266113299999999,0.9172363299999999,0.4999617626286156,0.4999774839436523,0.500006661572689,92.55,0.15,68.85,0.0078125,0.5529785150000001,0.580078125,0.49998747630268586,0.5000082602942838,0.5000147220267734,60.3,21.15,-2.55
0.04614258000000001,0.52685547,0.297851565,0.5000389701478708,0.49999813476662835,0.5000225160563477,-7.95,28.95,16.8,0.22583008000000002,0.5166015650000001,0.920898435,0.4999802151221323,0.500007327677598,0.5000136562414658,91.35,-0.15,67.5,0.00903320500000001,0.55859375,0.58300781,0.4999701561787878,0.5000070612530877,0.49997615164656783,60.15,20.25,-3.75
0.04199218999999999,0.52392578,0.30029297,0.5000253805779825,0.4999962695332568,0.5000014655529729,-8.25,27.45,17.25,0.22167968999999998,0.5234375,0.920898435,0.4999630283413891,0.49999886754311484,0.5000218499514386,92.1,0.45,68.1,0.02221679499999999,0.5451660150000001,0.57910156,0.49996542651104786,0.500030776437898,0.4999677580091291,60.15,20.25,-3.75
0.04443359500000003,0.525878905,0.30371094,0.50001072513552,0.5000267128750671,0.4999888085997704,-8.25,27.45,17.25,0.22290039,0.5173339849999999,0.9162597650000001,0.499977950208362,0.5000121906884929,0.5000331079359792,92.1,0.45,68.1,0.018066404999999976,0.549316405,0.5773925799999999,0.4999719548278485,0.500024048280898,0.4999734203808214,57.9,20.55,-2.55
0.04907226500000002,0.5217285150000001,0.29980469,0.5000229157367464,0.49997082237096335,0.5000269792995773,-7.2,27.9,16.2,0.22216797000000002,0.509765625,0.91503906,0.4999836791643652,0.5000117243365167,0.5000357726174147,91.2,-1.5,67.95,0.011230470000000025,0.5461425799999999,0.57910156,0.4999606967560414,0.5000241148652089,0.4999617626286156,57.9,20.55,-2.55
0.04907226500000002,0.5314941400000001,0.29345703,0.5000072610932871,0.4999682243611053,0.5000222496318373,-6.9,27.15,17.25,0.21777343999999998,0.5056152349999999,0.9265136700000001,0.4999840788447639,0.4999887419281929,0.500018052813118,90.9,-0.3,67.2,0.010253904999999975,0.5485839849999999,0.57470703,0.4999689571375917,0.4999774172720749,0.49998507813302717,57.6,21.45,-1.65
0.04443359500000003,0.5266113299999999,0.298095705,0.4999986010313381,0.5000055957001148,0.49998201377119295,-7.05,29.25,17.7,0.208984375,0.51123047,0.9172363299999999,0.499973287124933,0.4999938047792871,0.4999907404174529,90.9,-0.3,67.2,0.012207029999999975,0.5476074200000001,0.5686035150000001,0.4999688904660143,0.5000106584639425,0.4999540351833524,59.1,21.75,-1.35
0.04785156499999999,0.5361328150000001,0.30126953,0.5000181194846954,0.49998634375853424,0.5000239150250096,-6.6,28.05,16.35,0.209228515,0.505859375,0.9206542950000001,0.4999875428869968,0.49998427868496326,0.500009259582547,90.75,0.15,67.8,-0.00048827999999997475,0.5390625,0.581054685,0.49999140660962843,0.49998927486448,0.499997934926429,58.35,21.75,-1.65
0.05761718999999999,0.537597655,0.30541992,0.5000007327764865,0.49998261329179106,0.5000177863886077,-6.6,28.05,16.35,0.205322265,0.51171875,0.9147949200000001,0.49997635148676717,0.4999832794839665,0.5000130566336013,91.65,0.75,69.45,0.005371095000000025,0.544433595,0.584472655,0.4999539020147305,0.49997475267790586,0.4999816140907943,58.8,21.0,-1.65
0.05249023499999998,0.5466308599999999,0.30151367,0.49997022285036524,0.500006728157,0.4999880758232839,-7.95,28.65,17.85,0.21435547000000002,0.514160155,0.9157714849999999,0.4999788828250478,0.49997994869762197,0.5000061286364019,91.8,-0.15,69.6,0.007568359999999984,0.5417480450000001,0.583984375,0.4999652266708485,0.49997735068776394,0.4999642940541627,58.35,19.95,-2.4
0.05102539000000002,0.544433595,0.299072265,0.49999886754311484,0.5000198514621786,0.5000055957001148,-6.9,29.4,15.45,0.20825195500000002,0.50732422,0.92138672,0.49999247239493616,0.4999927389067129,0.5000056622844258,91.8,-0.15,69.6,0.006103515000000016,0.5322265650000001,0.57861328,0.4999813476662839,0.49999094025765234,0.4999576324814737,57.0,19.95,-2.1
0.04638672000000003,0.5407714849999999,0.29296875,0.49999213938611486,0.5000317090545837,0.49999353826751036,-7.95,28.65,17.85,0.21484375,0.498779295,0.9196777349999999,0.49998427868496326,0.5000041968187193,0.5000324418310702,91.8,-0.15,69.6,0.0034179700000000254,0.54248047,0.59423828,0.49997994869762197,0.49998014853782136,0.4999778170397401,57.0,19.95,-2.1
0.03930664000000002,0.5349121099999999,0.28442383,0.4999677580091291,0.5000154548032599,0.5000193185258915,-7.95,28.65,17.85,0.21337890499999998,0.5002441400000001,0.92285156,0.5000023981696587,0.499975352198504,0.500017919644496,91.35,0.9,69.15,0.003662109999999984,0.540527345,0.587890625,0.4999996669039123,0.49997242109255813,0.49999766841465226,59.1,19.95,-2.1
0.03173827999999997,0.533691405,0.28564453,0.49998867534388197,0.5000079938697736,0.5000045964991181,-6.6,28.5,15.6,0.209228515,0.505859375,0.91894531,0.49999753524603036,0.4999895413762568,0.5000079272854626,91.95,0.3,69.45,0.006347654999999975,0.5432128900000001,0.583984375,0.4999982680225168,0.499984611781051,0.49998634375853424,59.1,19.95,-2.1
0.0390625,0.5322265650000001,0.28588867,0.4999966692136555,0.5000111914002296,0.5000020650735709,-7.2,28.65,16.5,0.21728515499999998,0.5095214849999999,0.9143066400000001,0.500000599520598,0.4999914731939394,0.4999963361175678,91.2,0.3,69.0,0.001953125,0.5520019549999999,0.58300781,0.4999776171122743,0.49996729174441945,0.499973287124933,59.1,19.95,-2.1
0.03808593999999999,0.529785155,0.28173828,0.49998174734668266,0.5000381707870735,0.49998927486448,-7.05,28.8,17.1,0.20947265499999998,0.506347655,0.913085935,0.5000043966589187,0.49998507813302717,0.5000100589433445,91.65,0.75,68.4,0.00903320500000001,0.5517578150000001,0.595703125,0.4999684242013046,0.4999453752086699,0.5000050627638277,57.9,20.55,-3.3
0.03955077999999997,0.5295410150000001,0.294189455,0.5000277787476413,0.5000091929982361,0.4999966692136555,-7.35,28.8,17.7,0.205322265,0.5173339849999999,0.9133300799999999,0.4999944042998852,0.4999904073213652,0.49999267232240197,91.95,0.3,68.7,0.006103515000000016,0.5588378900000001,0.5817871099999999,0.4999549012157273,0.49998674352619943,0.4999848782928278,58.05,21.0,-1.35
0.03979491999999999,0.5285644549999999,0.298828125,0.5000272458113542,0.5000018652333716,0.4999729540288453,-7.35,28.8,17.7,0.20996093999999998,0.51513672,0.9196777349999999,0.5000004663519761,0.5000087932305709,0.5000241814495199,92.85,0.15,69.15,-0.0012207050000000094,0.55908203,0.576660155,0.4999614962041053,0.4999642940541627,0.4999673583287304,59.4,21.75,-2.7
0.03173827999999997,0.5368652349999999,0.29760742,0.5000181194846954,0.5000157213150367,0.4999352495937479,-7.5,28.2,15.75,0.21533202999999998,0.51953125,0.9211425799999999,0.4999963361175678,0.4999934716831994,0.49998867534388197,92.85,0.15,69.15,0.003662109999999984,0.5546875,0.580566405,0.4999403790291531,0.4999654930953588,0.499975951719102,59.1,19.95,-1.65
0.04443359500000003,0.5400390650000001,0.29614258,0.5000233155044115,0.49999813476662835,0.49997262102002393,-7.65,28.8,16.65,0.220458985,0.5192871099999999,0.9255371099999999,0.5000241814495199,0.49999673579796644,0.4999964027891452,92.4,-1.8,68.7,0.008056640000000016,0.5537109400000001,0.592285155,0.4999517702695821,0.4999425773586124,0.49996988975427753,58.95,21.15,-2.25
0.04077148499999998,0.5319824200000001,0.282226565,0.500019984718067,0.5000043299873413,0.4999676248405072,-7.2,29.7,17.55,0.21923827999999998,0.520996095,0.931152345,0.5000101921992328,0.5000116577522058,0.5000135229855773,91.05,-1.65,68.55,0.00903320500000001,0.5510253900000001,0.5915527349999999,0.4999570329608756,0.4999864770144226,0.4999928054910239,59.1,21.45,-2.4
0.04248047000000003,0.53125,0.287109375,0.49999886754311484,0.4999832794839665,0.49997055585918654,-7.2,29.7,17.55,0.21557616999999998,0.52392578,0.9211425799999999,0.49999187287433805,0.5000014655529729,0.500008660061949,92.7,0.75,69.75,0.006591794999999991,0.55078125,0.59033203,0.4999543682794401,0.4999859440781355,0.499975885134791,59.1,21.45,-2.4
0.04199218999999999,0.5283203150000001,0.28564453,0.4999877427271962,0.5000075276050638,0.499928521436748,-7.35,27.75,15.6,0.21142577999999998,0.5168457049999999,0.9123535150000001,0.4999930053312232,0.49998887518408136,0.4999885420879936,90.45,-0.75,69.0,0.0017089849999999843,0.5517578150000001,0.583984375,0.49993451681726153,0.49996835761699365,0.49999553675677033,58.05,20.7,-2.4
0.05346679499999999,0.5263671900000001,0.294433595,0.500016054323858,0.49996855745719304,0.5000005329362871,-7.5,28.2,16.2,0.21166991999999998,0.5163574200000001,0.9201660150000001,0.5000040635628309,0.4999914731939394,0.5000275122358644,91.8,-0.9,68.55,0.002197265000000016,0.5490722650000001,0.600585935,0.4999227924807448,0.4999677580091291,0.49999127335374005,58.2,20.55,-1.5
0.05786133000000001,0.5205078150000001,0.30004883,0.4999956700126587,0.49999726873425354,0.4999792159211356,-6.45,28.2,16.2,0.21459961,0.5144042950000001,0.9260253900000001,0.5000033307863445,0.4999934716831994,0.50002617993878,89.55,-0.45,68.85,0.006103515000000016,0.5500488299999999,0.60107422,0.4999165305884545,0.5000234486730334,0.49995669986478786,58.35,22.5,-1.65
0.05786133000000001,0.5283203150000001,0.30371094,0.49999726873425354,0.49997868298484843,0.4999791493368246,-8.55,27.15,16.5,0.213134765,0.5192871099999999,0.92529297,0.4999832794839665,0.4999895413762568,0.5000007327764865,89.55,-0.45,68.85,0.004150390000000016,0.5549316400000001,0.5983886700000001,0.49992305899252154,0.5000143889306857,0.49997768378385166,58.5,20.85,-1.8
0.06616210999999998,0.5341796900000001,0.30834961,0.5000168537719218,0.4999951370763716,0.5000054624442265,-8.55,27.15,16.5,0.22241211,0.5202636700000001,0.9260253900000001,0.4999852113016491,0.4999861439183349,0.5000193185258915,91.65,0.0,69.45,-0.0034179700000000254,0.5490722650000001,0.599121095,0.499937181498697,0.4999725543484465,0.4999868101105104,58.8,19.5,-1.65
0.05249023499999998,0.537597655,0.30371094,0.49998947470467936,0.5000047963393174,0.499988608759571,-7.5,27.45,17.55,0.21484375,0.5178222650000001,0.9296875,0.49997401990141943,0.4999792159211356,0.5000322419908709,93.0,-1.5,68.7,0.004394529999999975,0.552246095,0.599121095,0.4999181293973157,0.4999462411537783,0.49997155514744973,58.8,21.0,-2.1
0.03588866999999999,0.5322265650000001,0.298828125,0.49997335370924395,0.500015987739547,0.499981947186882,-8.1,28.05,15.6,0.21850586,0.521484375,0.9309082049999999,0.4999856110693143,0.4999878759830846,0.5000185191650941,91.2,0.0,69.45,0.0078125,0.5466308599999999,0.596679685,0.49992345867292026,0.4999990007990032,0.499979882113311,58.8,21.0,-2.1
0.03735351500000002,0.5329589849999999,0.29589844,0.49998601074971294,0.49997868298484843,0.4999951370763716,-7.35,27.3,16.35,0.21606445500000002,0.5163574200000001,0.91796875,0.4999593644589569,0.5000017319774832,0.5000218499514386,91.2,0.0,69.45,0.013183595000000025,0.5427246099999999,0.59082031,0.4999229923209441,0.4999832128996555,0.4999658261914466,58.95,20.85,-2.25
0.03955077999999997,0.52001953,0.290039065,0.49996156278841625,0.49999960031960133,0.5000123905286922,-7.35,27.3,16.35,0.22241211,0.525390625,0.9240722650000001,0.4999707556993859,0.49998840891937163,0.5000187190052935,92.1,-0.45,69.6,0.008789064999999993,0.546875,0.60253906,0.4999038736352519,0.49998234686728066,0.49998740963110844,58.95,20.85,-2.25
0.04223633000000001,0.5241699200000001,0.30004883,0.49997635148676717,0.49998081472999684,0.4999858109095136,-7.05,27.3,16.35,0.21826172000000002,0.51611328,0.92529297,0.4999798154417336,0.49998307964376715,0.5000251807377831,91.8,1.2,68.85,0.014160154999999975,0.5485839849999999,0.604003905,0.49990294101856614,0.4999748192622168,0.49995916461875756,58.35,21.0,-1.35
0.04589843999999999,0.5234375,0.30126953,0.49998960796056774,0.49996729174441945,0.49998900843996974,-7.05,28.8,16.35,0.21606445500000002,0.517578125,0.921875,0.49997248776413555,0.49999660262934453,0.500058155417874,91.8,1.2,68.85,0.005859375,0.5419921900000001,0.6015625,0.49990800386966033,0.49999453755577355,0.4999794157613349,57.15,21.6,-1.2
0.05151366999999999,0.52783203,0.302978515,0.4999650934149601,0.49997348696513233,0.4999502381322982,-7.2,28.2,15.75,0.21875,0.5163574200000001,0.9313964849999999,0.49997155514744973,0.49998674352619943,0.5000279119162632,91.2,0.75,69.45,0.005859375,0.54248047,0.59814453,0.4998966125419648,0.49995356891864273,0.4999661592875343,58.2,19.05,-1.5
0.05444335999999998,0.5314941400000001,0.299560545,0.49998720979090905,0.49998734304679743,0.49999573659696966,-7.5,27.15,16.2,0.17431640499999998,0.528808595,0.8918457049999999,0.49994484227238273,0.49979695555067294,0.5000492289314147,91.65,-0.75,70.05,-0.0007324199999999905,0.545410155,0.6066894549999999,0.49991573122765703,0.4999699563385885,0.49998234686728066,59.1,21.0,-1.65
0.05639648499999998,0.5275878900000001,0.30029297,0.5000014655529729,0.49997215466804784,0.5000051294354051,-7.95,28.2,16.2,0.19946289,0.515625,0.92919922,0.4999499050362105,0.49997495251810525,0.5000512940049857,91.05,-1.65,68.85,0.007568359999999984,0.54345703,0.61279297,0.49990920291085644,0.4999493055156124,0.4999509043244737,58.5,21.6,-1.2
0.05029297000000003,0.5319824200000001,0.29370117,0.4999907404174529,0.49999353826751036,0.4999859440781355,-7.95,28.2,16.2,0.20776366999999998,0.51171875,0.89941406,0.499971288635673,0.4999723545082472,0.5000365719782122,91.05,-1.65,68.85,0.00390625,0.5446777349999999,0.6037597650000001,0.4999319854789809,0.4999737534769091,0.499991339938051,58.35,20.7,-1.05
0.04858398499999998,0.5302734400000001,0.3046875,0.49997961560153426,0.49998261329179106,0.5000217166955503,-6.0,27.75,15.6,0.21899414,0.513183595,0.9270019549999999,0.4999739533171085,0.4999634280217879,0.5000223162161483,91.2,0.0,69.0,0.0031738300000000094,0.5390625,0.6071777349999999,0.4999209272473732,0.49998168067510523,0.4999583652579601,58.35,20.7,-1.05
0.04614258000000001,0.52685547,0.29370117,0.49997288744453433,0.5000059953805135,0.499984678365362,-7.05,27.75,16.35,0.22021484500000002,0.50830078,0.9294433599999999,0.49997408648573044,0.49996749158461884,0.5000368384027225,91.2,-0.75,70.5,0.006103515000000016,0.5407714849999999,0.6042480450000001,0.49994044561346407,0.4999602970756427,0.4999670919042201,58.35,20.7,-1.05
0.04516601500000002,0.5256347650000001,0.298828125,0.5000053958599154,0.49998068147410846,0.49999600302148,-8.25,26.4,17.25,0.21606445500000002,0.50488281,0.916503905,0.4999774172720749,0.4999644938943621,0.500058155417874,91.05,0.45,69.15,0.0031738300000000094,0.5368652349999999,0.5998535150000001,0.4999559670883015,0.49997615164656783,0.4999746860935949,60.15,20.25,-1.05
0.04125976500000002,0.5285644549999999,0.293945315,0.5000016653931723,0.49998760947130777,0.4999788828250478,-8.25,26.4,17.25,0.21923827999999998,0.50317383,0.9230957049999999,0.49998454519674007,0.49998641043011166,0.5000406355410432,90.75,-0.15,69.6,0.010253904999999975,0.5222167950000001,0.6071777349999999,0.4999682243611053,0.4999924058106252,0.49999153977825034,59.4,20.7,-0.3
0.04077148499999998,0.53125,0.29321289,0.49997548545439235,0.49998927486448,0.49998401226045297,-6.15,27.15,15.75,0.22387695500000002,0.505859375,0.9265136700000001,0.49998747630268586,0.49998414551634135,0.5000088599021484,91.05,0.15,68.55,-0.0007324199999999905,0.52685547,0.60498047,0.4999540351833524,0.4999876761428852,0.4999822136113923,58.35,19.95,-1.65
0.04125976500000002,0.529785155,0.30029297,0.4999968690538548,0.4999543682794401,0.5000254471622935,-7.05,28.5,16.05,0.216552735,0.5041503900000001,0.9274902349999999,0.49998987438507814,0.49999660262934453,0.5000197182062902,92.55,0.45,67.8,0.006591794999999991,0.52001953,0.5964355450000001,0.4999597641393556,0.5000065949883781,0.4999689571375917,58.95,20.85,-0.15
0.04956054499999999,0.53076172,0.30493164,0.4999796822731117,0.4999503713881866,0.5000326416712696,-7.05,28.5,16.65,0.21508789,0.49853515499999995,0.9221191400000001,0.4999961362773684,0.499993271843,0.5000277120760638,92.55,0.45,67.8,0.007080080000000009,0.5266113299999999,0.59375,0.4999606967560414,0.500012790209091,0.4999746860935949,59.25,20.85,-1.2
0.04760741999999999,0.5339355450000001,0.29589844,0.49994877257932535,0.4999894081203684,0.49998934153605745,-6.9,27.9,17.25,0.21582031499999998,0.49462890499999995,0.9191894549999999,0.49999527033226004,0.49998740963110844,0.5000203843984657,90.45,-1.05,70.05,0.006347654999999975,0.5251464849999999,0.588378905,0.49998101457019617,0.4999818139309936,0.499980015281933,59.7,21.15,0.15
0.05053710999999998,0.524902345,0.29638672,0.4999826799633685,0.49996609261595687,0.5000209173347528,-6.9,27.9,17.25,0.21875,0.502685545,0.923339845,0.49998034837802074,0.49998601074971294,0.5000189188454929,90.9,0.75,70.8,0.0078125,0.5246582049999999,0.5891113299999999,0.4999818139309936,0.49996749158461884,0.4999858109095136,59.7,21.15,0.15
0.04907226500000002,0.5402832049999999,0.297851565,0.5000041968187193,0.49998081472999684,0.500028777948638,-6.45,28.2,16.5,0.21142577999999998,0.502929685,0.916503905,0.4999729540288453,0.50000872664626,0.5000236485132329,91.65,-0.3,69.75,0.008056640000000016,0.53466797,0.5944824200000001,0.49995689970498725,0.49997648465538913,0.49998994105665556,58.2,20.55,-0.45
0.03784179499999999,0.53955078,0.301757815,0.4999611631080176,0.5000149885385503,0.49999020748116585,-6.9,27.15,16.8,0.21801758000000002,0.502441405,0.9182128900000001,0.499971288635673,0.4999856776536252,0.5000295107251244,91.65,-0.3,69.75,0.007324220000000025,0.53466797,0.5871582049999999,0.49996782468070655,0.5000039969785199,0.5000029976902568,58.2,20.55,-0.45
0.03735351500000002,0.5397949200000001,0.30541992,0.500006728157,0.4999812809947065,0.5000161875797464,-5.55,28.8,17.7,0.21582031499999998,0.5126953150000001,0.928710935,0.49999780167054064,0.500012790209091,0.49998727637522006,91.65,-0.3,69.75,0.006591794999999991,0.5407714849999999,0.5803222650000001,0.49994817305872724,0.5000231822485232,0.49997248776413555,57.9,22.65,-0.75
0.023925779999999976,0.53466797,0.29638672,0.49999267232240197,0.4999592312030685,0.5000152549630607,-5.55,28.8,17.7,0.22509765499999998,0.50708008,0.9240722650000001,0.5000025314255471,0.5000035306265439,0.5000148552826619,90.3,0.9,69.6,0.00903320500000001,0.5458984400000001,0.5876464849999999,0.49993957966835567,0.5000053292756045,0.49999247239493616,60.9,20.7,-1.65
0.031005859999999986,0.537109375,0.29321289,0.4999545015353285,0.4999708889552743,0.5000021983294594,-5.7,28.65,16.2,0.22290039,0.509277345,0.919921875,0.49998794256739554,0.5000207840788644,0.5000156546434593,89.85,0.75,69.45,0.013916015000000016,0.544433595,0.5935058599999999,0.4999257901710015,0.499991339938051,0.49998547781342584,59.4,21.0,-0.6
0.027832029999999976,0.53466797,0.29638672,0.49997788362405104,0.4999517702695821,0.49999393794790903,-6.45,27.45,18.3,0.224853515,0.509033205,0.9245605450000001,0.49998887518408136,0.500009326166858,0.5000011990411961,89.85,0.75,69.45,0.015136720000000025,0.5441894549999999,0.5925292950000001,0.49993191880740345,0.5000282450123509,0.49999213938611486,61.05,20.55,-1.2
0.03125,0.5373535150000001,0.296875,0.49999034073705423,0.49993844712420404,0.4999904073213652,-6.45,27.9,16.5,0.22509765499999998,0.5036621099999999,0.915527345,0.499979882113311,0.5000101921992328,0.5000204509827767,91.8,0.9,68.85,0.008789064999999993,0.5490722650000001,0.5861816400000001,0.4999319854789809,0.5000098591031451,0.4999861439183349,60.15,20.25,-1.35
0.04125976500000002,0.5302734400000001,0.298583985,0.49996542651104786,0.49996662555224397,0.4999630283413891,-7.95,28.2,18.3,0.21386718999999998,0.506591795,0.9147949200000001,0.4999840788447639,0.49994364314392015,0.5000335742879554,91.8,-0.15,69.15,0.008056640000000016,0.541015625,0.588867185,0.4999220597042583,0.4999861439183349,0.49998727637522006,59.25,21.15,-0.15
0.04199218999999999,0.5334472650000001,0.303222655,0.500007327677598,0.4999835459084768,0.5000011990411961,-7.95,28.2,18.3,0.21582031499999998,0.50708008,0.9250488299999999,0.500018585749405,0.49996662555224397,0.499997335405831,90.15,1.05,68.7,0.012207029999999975,0.5417480450000001,0.59033203,0.49990760410199514,0.4999944042998852,0.5000186523337161,59.25,21.15,-0.15
0.03393554499999999,0.5263671900000001,0.30371094,0.5000228491524354,0.4999858109095136,0.49997415315730787,-6.15,28.2,16.8,0.209228515,0.50073242,0.9147949200000001,0.5000158544836586,0.49998987438507814,0.5000055957001148,90.15,1.05,68.7,0.004638669999999991,0.5358886700000001,0.5920410150000001,0.49990553902842416,0.49999293874691225,0.5000103254551213,59.25,21.15,-0.45
0.03662109500000003,0.5217285150000001,0.30444336,0.49998927486448,0.49998687669482134,0.49996129636390596,-6.9,28.95,18.6,0.22583008000000002,0.509277345,0.92285156,0.5000102587835439,0.5000083269658613,0.5000191186856922,91.8,1.2,69.6,0.004638669999999991,0.5393066400000001,0.5925292950000001,0.4999030742744545,0.49999913396762513,0.5000118575924052,59.25,21.15,-0.45
0.029296875,0.5224609400000001,0.29760742,0.49999786834211807,0.5000149885385503,0.4999611631080176,-6.45,28.95,17.25,0.21435547000000002,0.502441405,0.9255371099999999,0.500009259582547,0.5000161875797464,0.5000136562414658,91.2,-0.75,69.45,0.004638669999999991,0.5302734400000001,0.600585935,0.49990880323045767,0.5000046630834291,0.5000039969785199,58.35,20.7,-1.05
0.02270508000000001,0.515625,0.29199219,0.5000345069046412,0.49999247239493616,0.5000184524935167,-6.45,28.95,17.25,0.21997070500000002,0.5036621099999999,0.92675781,0.49999920063920256,0.5000117243365167,0.5000143889306857,90.75,0.45,69.15,0.0048828149999999935,0.532714845,0.603515625,0.49990713783728546,0.500017519876831,0.5000121240169154,57.45,20.1,-0.45
0.02734375,0.5119628900000001,0.29272461,0.49998427868496326,0.5000010658725742,0.4999984678627162,-6.9,28.65,16.8,0.22412109500000002,0.501464845,0.932617185,0.5000113912404289,0.5000027312657465,0.500020051302378,91.2,0.0,70.05,0.0012207050000000094,0.5393066400000001,0.5915527349999999,0.49991679710023124,0.49999267232240197,0.5000209173347528,59.7,21.9,-1.2
0.028320314999999995,0.5185546900000001,0.28930664,0.5000077940295742,0.500009259582547,0.5000049295952058,-6.45,29.7,16.2,0.21484375,0.50317383,0.924316405,0.5000012657127736,0.49999500382048323,0.5000373047546985,91.05,-0.45,70.35,0.0024414049999999746,0.5373535150000001,0.6062011700000001,0.4999038736352519,0.5000130566336013,0.5000095260070574,60.0,19.8,-0.75
0.03417968999999999,0.517578125,0.29223633,0.5000329080957798,0.49996336143747694,0.5000582220894514,-6.9,28.2,15.75,0.21142577999999998,0.5061035150000001,0.9152832049999999,0.50000199848926,0.4999717549876492,0.5000335742879554,89.85,0.3,70.8,0.005371095000000025,0.5358886700000001,0.606933595,0.4999070045813971,0.5000249808975838,0.49999660262934453,60.0,19.8,-0.75
0.04028320500000001,0.521972655,0.291015625,0.50000872664626,0.5000205176543542,0.5000151883787497,-6.15,27.9,16.5,0.20410156499999998,0.51171875,0.92578125,0.5000091929982361,0.5000119908482935,0.5000372381703876,89.85,0.3,70.8,-0.0012207050000000094,0.537597655,0.6076660150000001,0.4999025413381674,0.5000317090545837,0.5000123238571148,59.25,21.15,-0.45
0.04028320500000001,0.5227050799999999,0.299072265,0.5000085268060606,0.5000074609334864,0.5000003330960877,-6.15,27.9,16.5,0.20678711,0.51123047,0.9357910150000001,0.5000191852700031,0.49997095562685173,0.5000325084153812,90.45,1.05,69.75,-0.0048828100000000065,0.537597655,0.6091308599999999,0.49990174197737003,0.5000510275804753,0.49999140660962843,59.25,21.15,-0.45
0.04663085999999998,0.533203125,0.305908205,0.5000237151848103,0.5000245811299187,0.5000023315853478,-6.6,27.75,16.05,0.21923827999999998,0.5119628900000001,0.9274902349999999,0.5000020650735709,0.4999775505279633,0.5000453652087831,90.9,1.05,68.4,-0.00048827999999997475,0.5290527349999999,0.60644531,0.4999042733156506,0.49999400461948645,0.4999948039802839,59.25,21.15,-0.45
0.05493164000000002,0.5314941400000001,0.31665039,0.5000010658725742,0.5000140559218645,0.5000069279971994,-6.9,27.9,17.55,0.21801758000000002,0.5158691400000001,0.92675781,0.4999930053312232,0.4999502381322982,0.500050827740276,91.65,0.3,69.75,0.009765625,0.5368652349999999,0.606933595,0.4999094027510558,0.49999034073705423,0.49997668449558846,60.15,22.2,0.6
0.05517577999999997,0.5329589849999999,0.30810547,0.4999742197416188,0.4999997335754897,0.5000166539317226,-5.7,28.2,16.8,0.228271485,0.5166015650000001,0.9299316400000001,0.5000172534523206,0.49994137823014984,0.5000492955157256,91.05,0.45,69.9,0.011230470000000025,0.53466797,0.61035156,0.4999275222357512,0.4999658261914466,0.4999984678627162,58.8,21.45,-0.6
0.03833008000000001,0.533691405,0.3046875,0.5000125236973141,0.500002598009858,0.5000263797789792,-5.7,28.2,16.8,0.22680664,0.5153808599999999,0.92626953,0.5000010658725742,0.4999776171122743,0.5000492289314147,91.05,0.15,68.85,0.012207029999999975,0.529296875,0.604492185,0.4999270558837751,0.500036105626236,0.5000165206758341,58.05,19.95,-0.6
0.0234375,0.5380859400000001,0.30541992,0.4999815475064833,0.5000145221865742,0.49999447088419613,-6.9,28.2,16.5,0.22998047000000002,0.524902345,0.92675781,0.5000132564738006,0.499968624041504,0.5000408353812424,91.8,-0.15,69.9,0.01049804499999999,0.5383300799999999,0.595703125,0.4999281883406603,0.5000411018057528,0.5000149218669728,59.25,20.85,-0.45
0.03344726500000002,0.5344238299999999,0.311035155,0.49999453755577355,0.5000067948285775,0.5000119908482935,-8.1,27.75,16.65,0.236572265,0.5283203150000001,0.9289550799999999,0.5000197182062902,0.5000139892502871,0.5000390367321818,91.8,-0.15,69.9,0.011474609999999984,0.53466797,0.5949707049999999,0.4999205941512854,0.5000241148652089,0.5000213835994626,60.15,21.0,-0.3
0.03759765499999997,0.536621095,0.307373045,0.5000024647539697,0.4999720880837369,0.5000136562414658,-6.6,26.55,16.65,0.22802734500000002,0.5168457049999999,0.927734375,0.49999593643716905,0.49999800151074,0.5000291110447257,91.2,0.0,69.0,0.016601564999999995,0.536621095,0.6086425799999999,0.49992345867292026,0.5000273789799761,0.5000123238571148,58.8,22.5,-0.6
0.044921875,0.5222167950000001,0.310302735,0.4999760849749904,0.5000003996803987,0.5000023315853478,-6.3,28.5,17.7,0.22607422000000002,0.5197753900000001,0.90625,0.5000095260070574,0.5000369716586108,0.500044099583276,90.45,0.75,69.75,0.013427734999999984,0.5300292950000001,0.599121095,0.4999189954296906,0.5000497618677018,0.49999980015980067,58.8,22.5,-0.6
0.05200195500000001,0.53076172,0.314941405,0.49998174734668266,0.5000296439810128,0.4999902741527433,-6.3,28.5,17.7,0.2265625,0.517089845,0.924316405,0.4999831462280781,0.5000518935255837,0.500042767198925,90.45,-0.3,70.5,0.02026366999999999,0.537109375,0.5959472650000001,0.49992079399148476,0.5000570229609889,0.4999990673833142,57.45,20.55,-0.45
0.05810547000000003,0.5266113299999999,0.31542969,0.4999776171122743,0.5000167205160335,0.5000110582316077,-6.3,28.5,17.7,0.23461914,0.5185546900000001,0.924804685,0.4999836791643652,0.4999944042998852,0.5000268461309554,90.45,-0.3,70.5,0.009765625,0.5373535150000001,0.6022949200000001,0.49993385071235247,0.500024647801496,0.5000135895698883,57.45,20.55,-0.45
0.05151366999999999,0.5334472650000001,0.322265625,0.49997841656033815,0.5000335742879554,0.5000111248159187,-8.1,27.75,17.7,0.22753906499999998,0.51513672,0.936035155,0.49998727637522006,0.5000101256149219,0.5000592212904482,91.65,0.75,70.5,0.007080080000000009,0.529296875,0.5979003900000001,0.4999337174564641,0.5000337075438438,0.5000105918796316,59.4,22.2,-0.3
0.05053710999999998,0.5339355450000001,0.313720705,0.4999614962041053,0.5000403690292663,0.4999916730341387,-7.2,28.2,17.55,0.23046875,0.5146484400000001,0.9191894549999999,0.4999943377155742,0.4999897412164561,0.5000501615481006,92.4,0.3,70.05,0.00854491999999999,0.5349121099999999,0.6032714849999999,0.49992499081020414,0.5000500949637895,0.5000239150250096,59.1,21.45,0.3
0.04907226500000002,0.537109375,0.31298828,0.4999764180710781,0.5000233820887224,0.5000117910080942,-6.9,28.2,17.55,0.22509765499999998,0.521484375,0.93017578,0.49998987438507814,0.5000152549630607,0.5000542251109314,92.4,0.3,70.05,0.00903320500000001,0.5314941400000001,0.6081542950000001,0.4999243246180286,0.5000356393615264,0.50000199848926,59.1,21.45,-1.05
0.03735351500000002,0.53564453,0.30517578,0.49994057886935245,0.5000349065850399,0.5000076607736857,-6.9,28.2,17.55,0.22949218999999998,0.521972655,0.9270019549999999,0.4999854111418484,0.5000127236247799,0.5000830030595694,90.75,-0.15,69.6,0.011230470000000025,0.5305175799999999,0.5998535150000001,0.49994024577326474,0.500034840000729,0.49999746857445293,57.6,22.2,-1.35
0.04418945500000001,0.5302734400000001,0.302978515,0.4999431102948996,0.5000068614128884,0.5000149218669728,-6.3,28.5,16.35,0.22729491999999998,0.52001953,0.921875,0.49997655132696656,0.5000091929982361,0.5000567565364785,91.8,0.9,70.65,0.009521484999999984,0.5246582049999999,0.606933595,0.49993724808300793,0.5000292443006141,0.49999333842731103,59.85,21.45,-0.3
0.04614258000000001,0.537109375,0.302978515,0.49995929787464594,0.5000025314255471,0.5000271125554657,-6.9,27.15,17.25,0.224609375,0.520996095,0.9167480450000001,0.4999832128996555,0.5000113912404289,0.5000545582070192,91.2,-0.3,70.5,0.010009765000000016,0.5222167950000001,0.60888672,0.4999367818182983,0.5000408353812424,0.5000161875797464,59.25,21.6,-1.5
0.04711914000000002,0.54248047,0.305664065,0.4999241914494067,0.5000217166955503,0.5000190521013812,-7.95,28.95,15.45,0.23071289,0.5251464849999999,0.93066406,0.499997934926429,0.5000169203562328,0.5000317756388947,91.2,-0.3,70.5,0.0012207050000000094,0.5192871099999999,0.6032714849999999,0.4999713553072504,0.500058155417874,0.5000119908482935,59.25,21.6,-1.5
0.05419922000000003,0.537597655,0.302734375,0.49994390965569696,0.5000318422232056,0.49998960796056774,-7.65,28.5,16.35,0.224365235,0.51513672,0.9296875,0.4999962029489458,0.5000409019655534,0.5000500949637895,91.05,0.15,69.15,-0.008056640000000016,0.5183105450000001,0.599609375,0.499986610270311,0.5000506279000766,0.499991339938051,59.25,22.65,-0.75
0.05639648499999998,0.54296875,0.302978515,0.4999279219161499,0.4999998667441116,0.4999922725547368,-7.65,28.5,16.35,0.21630859500000002,0.5158691400000001,0.9201660150000001,0.49998674352619943,0.5000252473220941,0.5000350398409282,92.55,0.45,69.9,0.001953125,0.5241699200000001,0.6027832049999999,0.49999540350088195,0.5000338407124657,0.5000049295952058,59.7,22.35,-1.2
0.06567383000000002,0.5419921900000001,0.297851565,0.499926456363177,0.5000024647539697,0.4999862771742233,-7.05,28.05,18.45,0.220703125,0.517578125,0.92675781,0.49997994869762197,0.5000296439810128,0.5000492289314147,91.05,0.9,68.85,0.0007324199999999905,0.5295410150000001,0.6008300799999999,0.5000003330960877,0.5000396362527799,0.4999942710439968,60.3,21.9,-0.15
0.04565429499999999,0.5422363299999999,0.295410155,0.49991040195205255,0.5000288445329489,0.49997934917702397,-6.3,28.5,16.65,0.21582031499999998,0.5183105450000001,0.9377441400000001,0.49998780931150716,0.5000359057860366,0.5000385704674721,91.05,0.9,68.85,0.01049804499999999,0.5295410150000001,0.5954589849999999,0.5000001998401994,0.500056090344303,0.50000472966774,58.8,22.5,-1.65
0.04931640499999997,0.5349121099999999,0.30029297,0.4999533024068659,0.4999864770144226,0.5000062618922902,-7.65,29.55,18.45,0.22387695500000002,0.521972655,0.9348144549999999,0.49998454519674007,0.5000368384027225,0.5000468974333334,91.65,-0.75,70.5,0.0029296899999999935,0.5361328150000001,0.59765625,0.4999970023097432,0.5000411684773302,0.500003464042233,59.1,21.45,-1.35
0.046875,0.5400390650000001,0.286865235,0.49993724808300793,0.4999756852945917,0.5000123238571148,-7.65,29.55,18.45,0.224365235,0.5197753900000001,0.9140625,0.4999890750242807,0.5000245145456076,0.5000437664871883,90.9,0.75,69.75,-0.0007324199999999905,0.5400390650000001,0.59423828,0.49999753524603036,0.5000327082555805,0.4999980681823174,59.4,22.2,-0.3
0.05175781499999999,0.53857422,0.28857422,0.4999195283659777,0.49998361258005425,0.5000167205160335,-6.9,30.15,16.2,0.217041015,0.51074219,0.9216308599999999,0.4999885420879936,0.499986610270311,0.5000517603569617,91.2,0.3,70.5,0.005371095000000025,0.53466797,0.587402345,0.49999127335374005,0.5000359057860366,0.49999353826751036,59.4,22.2,-0.3
0.06396484500000002,0.5441894549999999,0.28125,0.4999490390911021,0.49997022285036524,0.5000001998401994,-5.55,28.5,15.3,0.21630859500000002,0.515625,0.91503906,0.49998414551634135,0.4999996669039123,0.5000794058487146,91.2,0.3,70.5,0.009765625,0.537597655,0.58251953,0.5000023315853478,0.5000295107251244,0.5000015988088613,59.4,22.2,-0.3
0.06762695500000002,0.548828125,0.27368164,0.49994610798515626,0.4999856776536252,0.5000375045948979,-7.65,29.25,17.4,0.20434570500000002,0.51098633,0.8996582049999999,0.5000021983294594,0.4999812144103955,0.5000491623471037,91.05,1.2,69.15,0.010009765000000016,0.53857422,0.58691406,0.4999961362773684,0.50002145027104,0.49998101457019617,59.1,22.5,-1.65
0.06323241999999998,0.540527345,0.27294922,0.4999354494339473,0.500024048280898,0.5000187190052935,-6.3,27.3,16.35,0.20776366999999998,0.5134277349999999,0.90332031,0.5000079938697736,0.4999904739929426,0.5000480298902186,90.45,1.8,69.0,0.0007324199999999905,0.5373535150000001,0.58544922,0.49998334606827743,0.49999746857445293,0.49999487056459485,59.1,22.5,-1.65
0.056640625,0.524902345,0.290039065,0.4999717549876492,0.5000249142260064,0.5000315092143844,-6.3,27.3,16.35,0.20556640499999998,0.52685547,0.9338378900000001,0.5000315757986954,0.49997202141215946,0.5000249142260064,90.75,1.95,69.15,0.0029296899999999935,0.5349121099999999,0.5798339849999999,0.4999534356627543,0.49999187287433805,0.49996902372190266,59.1,22.5,-1.05
0.05737304499999999,0.53466797,0.309814455,0.4999808813143078,0.5000235819289219,0.49999094025765234,-6.15,29.4,16.8,0.20825195500000002,0.5187988299999999,0.9411621099999999,0.5000177863886077,0.4999449088566937,0.500039569668469,90.75,0.9,69.6,0.007080080000000009,0.52734375,0.5900878900000001,0.4999636944462982,0.4999966692136555,0.4999813476662839,58.2,21.9,-1.5
0.06591797000000002,0.53515625,0.317871095,0.49996642571204464,0.5000623522365933,0.49997142189156135,-7.35,28.8,18.45,0.2109375,0.5017089849999999,0.92675781,0.5000146554424625,0.49992319216114345,0.5000361722978134,91.65,1.05,70.5,0.005371095000000025,0.5244140650000001,0.595703125,0.49995743264127435,0.49994923893130144,0.49996122969232853,58.35,20.25,-1.35
0.0703125,0.5397949200000001,0.30908203,0.49997721743187556,0.5000640842140766,0.4999818139309936,-7.5,30.9,17.85,0.21142577999999998,0.513671875,0.9304199200000001,0.5000017319774832,0.4999277886602615,0.5000263131946683,91.05,1.2,70.35,0.0024414049999999746,0.5163574200000001,0.60546875,0.49994024577326474,0.49994604131357884,0.4999764180710781,58.5,22.65,-1.5
0.046875,0.556640625,0.303222655,0.4999794157613349,0.5000901308969681,0.5000164540915232,-7.5,30.9,17.85,0.21777343999999998,0.5095214849999999,0.94628906,0.49998654368600004,0.4999316523828931,0.5000173867082089,91.05,1.2,70.35,0.017822265000000014,0.5241699200000001,0.60498047,0.49996542651104786,0.49998141425059495,0.4999932051714226,60.0,21.6,-0.45
0.019042970000000024,0.5666503900000001,0.298339845,0.4999816140907943,0.5000943277156874,0.5000080604540845,-6.6,29.85,17.7,0.22583008000000002,0.51098633,0.920410155,0.49999233922631425,0.49993245174369055,0.5000063284766012,90.9,0.75,70.5,0.016601564999999995,0.5246582049999999,0.6071777349999999,0.500000066584311,0.5000235819289219,0.49999726873425354,58.35,21.45,-1.35
0.008300779999999975,0.5690917950000001,0.295166015,0.50002145027104,0.500060153907134,0.5000239816093206,-7.2,30.45,16.2,0.24121093999999998,0.5144042950000001,0.91113281,0.5000167205160335,0.4999440429115854,0.4999912067694291,90.45,1.5,70.8,0.01440429499999999,0.5270996099999999,0.607910155,0.5000059953805135,0.500022715896547,0.5000291110447257,58.35,21.45,-1.35
0.005615234999999984,0.5676269549999999,0.28491211,0.4999940712037974,0.5000263797789792,0.500024714385807,-8.55,29.7,16.8,0.24072265499999998,0.518066405,0.9143066400000001,0.500031442542807,0.4999694900738788,0.5000023315853478,92.1,1.2,70.65,0.005371095000000025,0.5217285150000001,0.6027832049999999,0.5000038637226316,0.5000269792995773,0.5000007327764865,58.5,21.9,0.75
0.020996095000000024,0.576660155,0.291503905,0.49996988975427753,0.500033441032067,0.500000599520598,-6.9,29.4,16.2,0.232177735,0.5153808599999999,0.904296875,0.500009259582547,0.4999687572973924,0.49999367152339874,92.1,1.2,70.65,0.013671875,0.5197753900000001,0.5979003900000001,0.5000049295952058,0.500039569668469,0.5000321753192934,59.1,22.5,-0.6
0.025634765000000014,0.5705566400000001,0.28466797,0.4999682243611053,0.5000173867082089,0.5000114579120064,-6.9,29.4,16.2,0.21557616999999998,0.502441405,0.90332031,0.5000201845582664,0.5000020650735709,0.5000035972108549,90.9,1.8,70.05,0.01098633000000001,0.5217285150000001,0.5900878900000001,0.5000271125554657,0.5000404357008437,0.5000346401605296,59.7,22.35,-1.2
0.029296875,0.5615234400000001,0.283935545,0.4999849448771388,0.5000098591031451,0.5000119241767161,-6.15,27.9,15.75,0.217041015,0.50317383,0.9172363299999999,0.5000028644343684,0.5000054624442265,0.4999628285011898,89.85,1.8,69.45,0.0009765649999999937,0.529785155,0.588867185,0.5000349065850399,0.5000526929736476,0.5000125903688916,59.1,20.25,-0.6
0.03833008000000001,0.5446777349999999,0.28125,0.49998241345159167,0.500011258071807,0.49996855745719304,-7.5,28.95,16.5,0.20751952999999998,0.502441405,0.9211425799999999,0.5000142557620638,0.49997775036816267,0.49997288744453433,89.85,1.8,69.45,-0.0017089849999999843,0.52294922,0.5822753900000001,0.5000407687969315,0.49999820135093936,0.5000566232805902,59.4,21.75,-1.05
0.04370116999999999,0.5380859400000001,0.287109375,0.4999937381077097,0.5000011990411961,0.49998840891937163,-8.25,28.95,17.25,0.208740235,0.505859375,0.90722656,0.5000446991038741,0.5000125903688916,0.49995110416467303,91.8,1.2,69.9,0.0068359399999999935,0.5280761700000001,0.5808105450000001,0.5000680811925965,0.49999753524603036,0.5000030643618342,59.25,20.85,-1.2
0.05810547000000003,0.5197753900000001,0.290527345,0.500003464042233,0.49998547781342584,0.4999906071615645,-8.25,28.95,17.25,0.20581054499999998,0.51074219,0.90576172,0.5000268461309554,0.5000131233051787,0.49996962324250077,90.0,1.65,71.7,0.0078125,0.5329589849999999,0.5729980450000001,0.5000725444358263,0.4999676914248182,0.5000223162161483,59.25,20.85,-1.2
0.06372070500000002,0.5166015650000001,0.28930664,0.5000327082555805,0.5000035972108549,0.4999253904906028,-6.9,28.65,17.85,0.21435547000000002,0.517089845,0.9094238299999999,0.5000335742879554,0.5000262465230909,0.49998441194085164,90.9,2.25,69.75,0.0009765649999999937,0.54296875,0.5788574200000001,0.5000578223217863,0.4999744862533956,0.5000272458113542,59.1,22.95,0.0
0.07250976500000002,0.525878905,0.306152345,0.5000405022851547,0.5000002664245103,0.4999856110693143,-7.05,29.85,17.4,0.22412109500000002,0.5275878900000001,0.93017578,0.5000183859092058,0.5000308430222089,0.5000003996803987,90.9,2.25,69.75,0.002197265000000016,0.540527345,0.57910156,0.500067481584732,0.49996975649838915,0.5000166539317226,59.1,22.95,0.0
0.06909179499999998,0.521972655,0.298583985,0.5000538254305328,0.49998947470467936,0.5000105918796316,-7.2,28.65,18.3,0.22534179499999998,0.5163574200000001,0.93701172,0.5000211171749521,0.5000377044350973,0.49999127335374005,91.05,1.2,70.65,-0.002197265000000016,0.5485839849999999,0.57861328,0.5000604870032217,0.4999581654177608,0.4999995336480239,60.0,20.55,-0.75
0.05688476500000002,0.5234375,0.291015625,0.5000375045948979,0.5000225827279251,0.4999954701724594,-8.4,28.8,17.7,0.228515625,0.5207519549999999,0.939453125,0.5000369716586108,0.5000429004548135,0.49997961560153426,89.85,1.05,69.75,0.00903320500000001,0.5422363299999999,0.592773435,0.5000429004548135,0.49997735068776394,0.5000168537719218,59.4,21.0,-0.6
0.03784179499999999,0.5378417950000001,0.28051758,0.5000472971137321,0.49997681775147684,0.5000383706272727,-8.4,28.8,17.7,0.224853515,0.5207519549999999,0.93408203,0.5000315757986954,0.500038037531185,0.4999840788447639,91.8,0.45,69.6,0.007324220000000025,0.545410155,0.59814453,0.5000590880345598,0.49996849078561556,0.500028711364327,57.45,21.6,-0.75
0.030273439999999995,0.5300292950000001,0.27758789,0.5000377044350973,0.499971222051362,0.5000433001352121,-8.4,28.8,17.7,0.21728515499999998,0.53125,0.9211425799999999,0.5000024647539697,0.5000499617079011,0.49998307964376715,90.9,1.8,69.0,0.013671875,0.544921875,0.60498047,0.5000587549384721,0.4999934716831994,0.4999811477388181,59.25,21.9,-1.2
0.03198241999999999,0.541503905,0.28027344,0.5000081937099728,0.4999788828250478,0.5000188522611819,-8.4,29.55,16.35,0.22192383000000002,0.529785155,0.92236328,0.5000209839190638,0.5000357059458373,0.49998401226045297,89.55,1.65,70.95,0.00854491999999999,0.54345703,0.6022949200000001,0.5000675482563095,0.5000255137466044,0.5000209839190638,59.25,21.9,-1.2
0.03759765499999997,0.5339355450000001,0.290771485,0.5000273123956651,0.4999366485624099,0.5000425673587257,-6.45,28.95,16.2,0.213134765,0.52734375,0.93408203,0.5000289777888374,0.5000498951235901,0.5000118575924052,90.15,1.5,70.5,-0.0048828100000000065,0.5383300799999999,0.59082031,0.5000657496072488,0.5000260466828915,0.5000149885385503,58.2,22.35,-0.45
0.05078125,0.541015625,0.29589844,0.5000102587835439,0.49993071976620734,0.5000279785878405,-7.5,30.45,17.25,0.220458985,0.52294922,0.93017578,0.5000255804181818,0.5000347067448405,0.5000077940295742,90.15,1.5,70.5,0.00048827999999997475,0.5412597650000001,0.595703125,0.5000472304421547,0.5000081271256619,0.5000054624442265,59.25,22.35,-0.15
0.05053710999999998,0.54638672,0.298828125,0.4999802817937098,0.4999548346314163,0.500015321634638,-7.5,30.45,17.25,0.21630859500000002,0.5192871099999999,0.92236328,0.5000080604540845,0.5000333077761786,0.5000007327764865,91.8,1.2,68.85,0.004638669999999991,0.5341796900000001,0.596679685,0.5000604870032217,0.5000136562414658,0.5000035972108549,59.25,22.35,-0.15
0.05102539000000002,0.5388183599999999,0.301757815,0.4999982680225168,0.4999396462526666,0.5000343736487528,-7.65,29.25,15.3,0.20996093999999998,0.5283203150000001,0.9140625,0.5000125903688916,0.500042101094016,0.49999313858711164,91.8,-0.15,71.4,-0.0014648450000000254,0.532714845,0.5900878900000001,0.5000784732320288,0.5000217832798612,0.5000115244963174,59.1,21.0,-0.3
0.05688476500000002,0.5388183599999999,0.307373045,0.49998867534388197,0.4999504379724976,0.500048229730418,-5.7,28.95,17.55,0.21386718999999998,0.532714845,0.9328613299999999,0.4999997335754897,0.5000439663273876,0.5000074609334864,91.95,1.8,70.8,-0.0026855449999999906,0.5432128900000001,0.6042480450000001,0.5000853346449172,0.5000063950609122,0.49999980015980067,59.1,21.0,-0.3
0.05224609500000003,0.532714845,0.30053711,0.4999569662892982,0.4999851447173381,0.5000009992009967,-7.65,29.25,17.4,0.220458985,0.5285644549999999,0.92578125,0.5000019318176826,0.5000304433418102,0.5000078606138851,91.95,1.8,70.8,0.003662109999999984,0.5344238299999999,0.603027345,0.500062218980705,0.4999962029489458,0.4999937381077097,59.4,22.2,-0.6
0.03686523499999998,0.54638672,0.313964845,0.49998534455753746,0.4999624288207911,0.500002598009858,-8.1,28.5,17.4,0.220458985,0.5305175799999999,0.9338378900000001,0.49998427868496326,0.500037438010587,0.5000147886983509,91.95,1.8,70.8,0.01098633000000001,0.53955078,0.6052246099999999,0.5000731439564243,0.5000015988088613,0.5000183193248948,59.1,22.2,0.0
0.04296875,0.55810547,0.309570315,0.49999114009785167,0.49995017154798727,0.5000479632186411,-8.1,28.5,17.4,0.23559570500000002,0.5212402349999999,0.9382324200000001,0.49999307200280063,0.5000154548032599,0.5000162542513238,91.8,1.95,70.95,0.010742189999999993,0.5427246099999999,0.6071777349999999,0.5000513606765631,0.5000295107251244,0.499984611781051,59.85,22.2,0.0
0.04565429499999999,0.5461425799999999,0.301757815,0.4999570329608756,0.4999713553072504,0.5000069279971994,-7.05,28.05,16.05,0.23144531499999998,0.515625,0.921875,0.49997721743187556,0.5000076607736857,0.500042634030303,91.05,0.45,68.1,0.015869140000000014,0.5354003900000001,0.5993652349999999,0.5000759418064817,0.5000389701478708,0.4999716884033381,58.8,22.5,-1.05
0.04370116999999999,0.5495605450000001,0.30053711,0.499952569717646,0.4999694234023014,0.4999586983540479,-7.35,29.55,17.1,0.228271485,0.5166015650000001,0.919921875,0.4999812809947065,0.500020117886689,0.5000347067448405,91.05,0.45,68.1,0.007324220000000025,0.5283203150000001,0.5964355450000001,0.5000987909589171,0.5000129900492903,0.49997934917702397,58.8,22.5,-1.05
0.041015625,0.55419922,0.29711914,0.49997401990141943,0.49997355363670976,0.5000163208356349,-7.5,28.65,16.8,0.23046875,0.5187988299999999,0.9172363299999999,0.49999367152339874,0.5000143223463748,0.5000295107251244,89.55,2.7,68.55,0.01831054499999999,0.525878905,0.6008300799999999,0.5000801386252011,0.4999889417683923,0.4999997335754897,59.1,20.7,-1.35
0.041015625,0.5417480450000001,0.302246095,0.4999354494339473,0.5,0.4999862105899123,-7.5,28.65,16.8,0.23486327999999998,0.5100097650000001,0.9299316400000001,0.5000076607736857,0.5000050627638277,0.5000145888581515,91.05,0.9,69.6,0.019287109999999986,0.5124511700000001,0.6018066400000001,0.5000852679733397,0.500007327677598,0.5000004663519761,59.1,20.7,-1.35
0.04663085999999998,0.552734375,0.3046875,0.4999580321618724,0.50000472966774,0.49997035601898715,-8.1,29.55,17.7,0.209228515,0.5002441400000001,0.924804685,0.5000172534523206,0.5000155214748374,0.4999936049390878,90.3,2.7,69.9,0.01245116999999999,0.5178222650000001,0.595214845,0.5000925957382042,0.5000243147054083,0.49998601074971294,58.5,21.15,-0.45
0.04858398499999998,0.5466308599999999,0.307128905,0.49995623351281177,0.5000273123956651,0.5000019318176826,-7.05,29.85,15.6,0.22558593999999998,0.506347655,0.9274902349999999,0.49999420445968584,0.5000342403928644,0.5000095926786348,90.3,2.7,69.9,0.004394529999999975,0.5148925799999999,0.5954589849999999,0.5001097825189473,0.5000003330960877,0.4999766179112775,58.35,21.75,-1.35
0.05541991999999999,0.552734375,0.309814455,0.4999391133163796,0.5000436332312999,0.4999704892748756,-7.65,29.55,16.65,0.21435547000000002,0.5075683599999999,0.939453125,0.5000068614128884,0.5000225827279251,0.4999782167201388,91.65,0.75,68.4,0.009521484999999984,0.5227050799999999,0.6047363299999999,0.5001020551609506,0.49996056358741947,0.4999928054910239,59.4,21.45,-0.3
0.04296875,0.55029297,0.314941405,0.49994144490172726,0.5000416347420399,0.49999833460682774,-7.35,28.5,17.4,0.21533202999999998,0.49511719,0.9372558599999999,0.4999970688940542,0.4999871432065981,0.4999726876043349,91.8,0.9,69.6,0.0078125,0.5300292950000001,0.61035156,0.5001008560324881,0.4999844785251626,0.4999855443977368,59.25,21.6,-1.2
0.05126952999999997,0.5498046900000001,0.30004883,0.49996382770218656,0.500033441032067,0.5000235819289219,-7.35,28.5,17.4,0.17041015499999998,0.51098633,0.874023435,0.4999986010313381,0.5000728774446475,0.4999816140907943,91.35,0.15,69.6,0.002197265000000016,0.5427246099999999,0.5988769549999999,0.5001158445710383,0.4999918062900271,0.4999884755036826,60.0,22.35,-1.5
0.05371093999999999,0.5505371099999999,0.30541992,0.49996416079827427,0.5000701462661675,0.4999852779732265,-6.6,29.25,16.05,0.21728515499999998,0.49633789,0.94140625,0.5000363721380128,0.5000335742879554,0.49994424275178473,91.2,2.55,69.45,0.0024414049999999746,0.5471191400000001,0.603027345,0.50008953137637,0.4999684242013046,0.49999646937345615,59.4,21.0,-2.4
0.03198241999999999,0.5458984400000001,0.30786133,0.49997854972896005,0.5000615528757959,0.5000099923590335,-8.25,29.7,17.85,0.21630859500000002,0.50854492,0.9572753900000001,0.5000140559218645,0.5000279119162632,0.499971222051362,90.75,1.95,67.8,0.00903320500000001,0.556640625,0.6042480450000001,0.5000953935882616,0.49997615164656783,0.5000123905286922,59.4,21.0,-2.4
0.03051758000000001,0.548339845,0.298095705,0.5000327082555805,0.5000362388821243,0.5000359057860366,-6.45,29.7,18.3,0.21752929499999998,0.510498045,0.9235839849999999,0.5000341072242425,0.499997401990142,0.4999538353431531,89.85,2.25,68.7,0.0017089849999999843,0.5534667950000001,0.6057128900000001,0.5000830696438804,0.5000005329362871,0.5000353062654386,57.3,20.25,-1.05
0.03808593999999999,0.548339845,0.302490235,0.5000106584639425,0.5000442994234754,0.4999857442379362,-6.45,29.7,18.3,0.216552735,0.513671875,0.927246095,0.5000262465230909,0.499975951719102,0.4999488391636363,89.85,2.25,68.7,0.005126955000000009,0.5485839849999999,0.5998535150000001,0.500071411978941,0.500002664594169,0.50001072513552,57.3,20.25,-1.05
0.04663085999999998,0.5576171900000001,0.303222655,0.5000245145456076,0.5000181194846954,0.5000017319774832,-7.2,29.7,16.8,0.21606445500000002,0.5192871099999999,0.9221191400000001,0.5000495620275024,0.4999868101105104,0.4999656929355582,89.4,1.8,69.45,0.004150390000000016,0.536621095,0.5998535150000001,0.5000768744231675,0.5000328415114689,0.5000095260070574,58.8,20.7,-2.7
0.04272460999999998,0.5559082049999999,0.29736328,0.500040036020445,0.50000472966774,0.5000045964991181,-6.3,28.8,18.15,0.22192383000000002,0.5166015650000001,0.92138672,0.5000378376909856,0.5000035972108549,0.49993065318189633,91.35,1.95,68.1,0.004638669999999991,0.5456542950000001,0.596679685,0.5000729441162249,0.5000281784280399,0.5000213835994626,58.95,20.85,-1.5
0.04809570500000001,0.5554199200000001,0.30541992,0.5000331079359792,0.500018585749405,0.49996322818158856,-7.2,28.95,17.25,0.22119140499999998,0.5178222650000001,0.92529297,0.5000369716586108,0.5000205842386651,0.49993791427518347,90.15,1.8,69.45,0.008789064999999993,0.5412597650000001,0.5935058599999999,0.5000760083907927,0.500012790209091,0.5000162542513238,58.95,20.85,-1.5
0.04418945500000001,0.55810547,0.294921875,0.5000477633784418,0.5000116577522058,0.49998547781342584,-7.35,30.6,17.4,0.21899414,0.5119628900000001,0.91894531,0.5000440329116985,0.5000378376909856,0.49995516772750404,90.3,0.15,70.35,0.011474609999999984,0.541503905,0.59863281,0.5000776737839648,0.5000013322970845,0.5000217832798612,58.95,21.9,-3.3
0.03515625,0.5617675799999999,0.294921875,0.5000729441162249,0.4999792159211356,0.49998987438507814,-7.35,30.6,17.4,0.21997070500000002,0.5187988299999999,0.9187011700000001,0.5000289112045264,0.5000505612284992,0.4999302534142312,91.95,1.05,69.0,0.01489258000000001,0.5388183599999999,0.592285155,0.5000664823837353,0.5000120574326045,0.5000209173347528,59.1,22.2,-1.65
0.03149414000000002,0.55029297,0.28417969,0.5000632181817017,0.49998401226045297,0.49997688442305427,-7.35,29.85,17.7,0.220458985,0.5192871099999999,0.92675781,0.500047430282354,0.5000303100859218,0.49993957966835567,90.75,0.15,68.85,0.01049804499999999,0.5397949200000001,0.5900878900000001,0.5000987243746061,0.5000295773094354,0.49999680246954387,58.95,21.15,-1.2
0.04150390499999997,0.5397949200000001,0.290039065,0.5000606868434211,0.4999750191024162,0.49997508577399363,-8.1,29.85,16.65,0.20849609500000002,0.525878905,0.91894531,0.5000470972735328,0.5000366385625231,0.49993125270249444,90.75,0.15,68.85,0.007324220000000025,0.5402832049999999,0.5871582049999999,0.5000784732320288,0.5000385704674721,0.5000131233051787,57.9,22.35,-0.75
0.04443359500000003,0.544433595,0.28833008,0.5000586217698502,0.4999440429115854,0.5000132564738006,-7.65,28.8,16.65,0.20654297000000002,0.5305175799999999,0.92236328,0.5000401691890669,0.5000217166955503,0.4999564333530111,90.9,0.75,67.65,-0.01049804499999999,0.5422363299999999,0.60107422,0.5000805383055997,0.5000005329362871,0.5000169869405438,57.9,22.35,-0.75
0.05053710999999998,0.533203125,0.28051758,0.5000654165111611,0.4999780168799394,0.4999622289805918,-7.65,28.8,16.65,0.20678711,0.5339355450000001,0.9191894549999999,0.5000363055537018,0.500024780970118,0.49994544179298084,91.65,2.25,68.7,0.008056640000000016,0.5517578150000001,0.5988769549999999,0.5000636845336779,0.5000392365723811,0.4999894081203684,58.5,22.35,-2.55
0.04711914000000002,0.5319824200000001,0.28076172,0.5000520934530495,0.49996209572470335,0.500013856081665,-6.9,29.7,15.45,0.193603515,0.533203125,0.91503906,0.5000208506631754,0.5000241148652089,0.4999628285011898,91.95,-0.75,69.45,0.0017089849999999843,0.560058595,0.588378905,0.5000734103809346,0.5000616194601069,0.4999754188700814,59.1,20.7,-0.3
0.04394531499999999,0.5334472650000001,0.286132815,0.5000875995586875,0.4999569662892982,0.4999912067694291,-7.65,28.5,17.7,0.20336914,0.5295410150000001,0.92138672,0.5000301769172999,0.5000236485132329,0.4999584984265821,91.95,-0.75,69.45,-0.0034179700000000254,0.55078125,0.595703125,0.5000658828631372,0.5000363721380128,0.5000045964991181,59.25,22.35,-2.25
0.03662109500000003,0.541015625,0.28955078,0.5000981248540081,0.49994650766555504,0.4999980681823174,-7.05,27.75,17.4,0.205078125,0.529296875,0.9230957049999999,0.5000137228257767,0.5000095260070574,0.49994977178032207,92.1,0.9,69.15,-0.0012207050000000094,0.5510253900000001,0.595214845,0.5000903974087448,0.5000218499514386,0.5000087932305709,60.3,20.1,-1.5
0.03295898499999998,0.546875,0.29272461,0.500040102604756,0.49996609261595687,0.49996749158461884,-7.05,28.5,17.1,0.20971679499999998,0.5302734400000001,0.920410155,0.5000174532925199,0.500026646290756,0.49995236979018015,91.2,0.3,67.95,-0.0012207050000000094,0.5534667950000001,0.595703125,0.500082203698772,0.5000285781084386,0.5000068614128884,58.8,19.95,-1.05
0.04003906499999999,0.546875,0.291259765,0.5000586883541611,0.4999419778380144,0.5000032642020336,-7.05,28.5,17.1,0.20605468999999998,0.53125,0.9240722650000001,0.5000269792995773,0.5000168537719218,0.49994684076164275,91.2,0.3,67.95,0.004150390000000016,0.54296875,0.5915527349999999,0.5000764080711914,0.5000640842140766,0.4999783498887607,58.95,21.15,-1.2
