IMU1_AccX,IMU1_AccY,IMU1_AccZ,IMU1_GyrX,IMU1_GyrY,IMU1_GyrZ,IMU1_MagX,IMU1_MagY,IMU1_MagZ,IMU2_AccX,IMU2_AccY,IMU2_AccZ,IMU2_GyrX,IMU2_GyrY,IMU2_GyrZ,IMU2_MagX,IMU2_MagY,IMU2_MagZ,IMU3_AccX,IMU3_AccY,IMU3_AccZ,IMU3_GyrX,IMU3_GyrY,IMU3_GyrZ,IMU3_MagX,IMU3_MagY,IMU3_MagZ
0.017333984999999986,0.5124511700000001,0.30541992,0.49992499081020414,0.49998900843996974,0.4999744862533956,-7.65,27.75,16.65,0.22558593999999998,0.49853515499999995,0.9201660150000001,0.4999840788447639,0.5000115910806283,0.5000466309215567,91.65,-1.8,68.4,-0.00048827999999997475,0.52734375,0.62109375,0.49988475494955975,0.49999054057725356,0.49993991267717697,59.4,20.25,-0.3
0.024414064999999995,0.513671875,0.30053711,0.49989827793513714,0.49999993341568905,0.49992345867292026,-7.2,26.7,16.5,0.23510741999999998,0.498779295,0.928710935,0.49997388664553105,0.5000344402330638,0.5000472304421547,92.85,-0.9,68.1,0.019287109999999986,0.5173339849999999,0.612304685,0.4998891516084784,0.5000028644343684,0.49996189588450396,59.85,19.2,0.6
0.05126952999999997,0.5148925799999999,0.29272461,0.4999006761047958,0.4999922725547368,0.49997908266524715,-6.0,28.05,17.1,0.23046875,0.497802735,0.919433595,0.49997961560153426,0.5000518935255837,0.5000212503435741,92.85,-0.9,68.1,0.012695314999999993,0.5212402349999999,0.615234375,0.4999006761047958,0.4999952036606826,0.4999477733783286,60.3,19.35,-1.2
0.052734375,0.50463867,0.287109375,0.4998960796056778,0.4999620290531259,0.4999864770144226,-6.0,28.05,17.1,0.23510741999999998,0.489990235,0.92675781,0.499980015281933,0.5000517603569617,0.5000513606765631,91.95,-0.75,70.5,0.017089845000000024,0.518066405,0.615234375,0.4999145321864609,0.4999658261914466,0.499963894373764,59.4,21.0,-0.3
0.04809570500000001,0.5148925799999999,0.28442383,0.499893081915421,0.5000262465230909,0.4999357159457241,-7.35,27.75,15.6,0.224609375,0.50073242,0.931152345,0.49996502683064914,0.5000510275804753,0.500044832272496,91.65,-1.5,69.0,0.019287109999999986,0.5139160150000001,0.607421875,0.49992725572397445,0.4999855443977368,0.4999499050362105,59.85,21.45,0.0
0.04150390499999997,0.50341797,0.282470705,0.49988235677990106,0.4999880091517065,0.4999495053558118,-7.05,28.5,16.65,0.21752929499999998,0.48120117,0.9289550799999999,0.49996356127767627,0.5000301769172999,0.5000586883541611,90.75,-1.65,67.05,0.011474609999999984,0.5166015650000001,0.6062011700000001,0.4999215934395486,0.4999970688940542,0.4999844785251626,59.85,21.45,0.0
0.027587890000000014,0.497070315,0.28198242,0.49992932079754543,0.4999565666088995,0.4999767511671659,-7.05,28.05,16.65,0.21630859500000002,0.477783205,0.9343261700000001,0.4999940712037974,0.5000606868434211,0.5000456983048708,91.05,-0.9,69.15,0.003662109999999984,0.5251464849999999,0.6096191400000001,0.49991266695308934,0.5000162542513238,0.4999744862533956,58.2,18.6,1.2
0.025634765000000014,0.501464845,0.28540039,0.49992239280034606,0.4999780168799394,0.49997894949662525,-7.05,27.3,16.35,0.2109375,0.48364258,0.9338378900000001,0.4999808813143078,0.5000304433418102,0.5000204509827767,90.3,-0.45,68.1,0.0031738300000000094,0.5224609400000001,0.6120605450000001,0.4999429104547002,0.4999988009588039,0.4999455750488692,58.2,18.6,1.2
0.03442383000000001,0.494873045,0.28808594,0.49993724808300793,0.4999636944462982,0.4999887419281929,-7.05,27.3,16.35,0.212890625,0.478515625,0.9323730450000001,0.4999954701724594,0.5000311761182967,0.5000460979852696,91.8,-0.9,69.15,0.005371095000000025,0.524902345,0.6091308599999999,0.4999396462526666,0.500005196019716,0.5000210505033748,60.75,18.6,0.45
0.03173827999999997,0.506347655,0.28564453,0.4999769510073652,0.4999194616944002,0.500016054323858,-6.9,27.9,16.2,0.21459961,0.47729492,0.9255371099999999,0.5000137894100877,0.5000446991038741,0.5000506279000766,91.8,-0.9,69.15,0.007324220000000025,0.5275878900000001,0.611816405,0.4999574992255853,0.4999970688940542,0.49999313858711164,60.0,19.8,0.75
0.041015625,0.508789065,0.278564455,0.4999522366215582,0.4999576324814737,0.5000028644343684,-6.9,27.45,16.2,0.22387695500000002,0.48852539,0.9328613299999999,0.5000164540915232,0.500031442542807,0.5000213170151515,91.95,-1.8,68.7,0.003662109999999984,0.51953125,0.6218261700000001,0.49996296175707816,0.4999891416958581,0.5000132564738006,57.6,21.0,1.35
0.04345702999999997,0.5124511700000001,0.282226565,0.4999498384518995,0.49994410949589635,0.49997408648573044,-7.95,28.65,17.25,0.21997070500000002,0.48388672000000005,0.9216308599999999,0.5000212503435741,0.5000161875797464,0.5000608866836205,90.3,-0.45,68.85,0.015380859999999984,0.52392578,0.6169433599999999,0.4999634280217879,0.500015388218949,0.49999094025765234,58.95,20.1,0.15
0.04956054499999999,0.5095214849999999,0.275146485,0.49995610034418986,0.4999073376774848,0.5000027978500574,-7.95,28.65,17.25,0.22973633000000002,0.48754883,0.908203125,0.500062218980705,0.5000095926786348,0.500018585749405,91.95,-1.05,69.75,0.01245116999999999,0.50390625,0.6052246099999999,0.4999421110066363,0.5000778736241643,0.49999766841465226,58.95,20.1,0.15
0.05761718999999999,0.5192871099999999,0.264160155,0.4999495053558118,0.49993378404077504,0.4999984678627162,-6.45,28.65,16.5,0.22363281499999998,0.47680664,0.916015625,0.500064883574874,0.500022049791638,0.5000088599021484,91.95,-1.05,69.75,0.017089845000000024,0.508789065,0.6018066400000001,0.4999604303315311,0.5000774739437656,0.4999861439183349,59.7,20.85,0.15
0.06030273499999998,0.5275878900000001,0.27807617,0.49994097854975117,0.4999302534142312,0.5000309096065199,-6.9,28.2,18.3,0.22192383000000002,0.48974609500000005,0.93847656,0.5000510941647862,0.49999527033226004,0.5000375045948979,91.95,-2.55,69.0,0.013671875,0.498046875,0.6086425799999999,0.4999517702695821,0.5000903974087448,0.5000071278373986,59.7,20.85,0.15
0.05444335999999998,0.5126953150000001,0.30151367,0.4999650934149601,0.49990680474119775,0.5000566232805902,-7.5,28.95,15.75,0.21533202999999998,0.47802734500000005,0.9460449200000001,0.500039569668469,0.5000049961795168,0.5000147886983509,91.05,-0.45,68.85,0.007568359999999984,0.50463867,0.60595703,0.49996249540510207,0.50008480170863,0.5000024647539697,60.15,19.5,0.0
0.05200195500000001,0.486572265,0.30786133,0.4999270558837751,0.4998998767439984,0.5000108583041419,-7.2,28.2,15.45,0.21899414,0.487304685,0.9401855450000001,0.5000407687969315,0.49996902372190266,0.499997934926429,91.05,-0.45,68.85,0.003662109999999984,0.51171875,0.5944824200000001,0.4999707556993859,0.5000832694840798,0.49999213938611486,61.05,19.8,-0.15
0.05981445500000001,0.49511719,0.291259765,0.4999405122850415,0.4999222595444577,0.499995336916571,-7.2,28.2,15.45,0.19799804499999998,0.5017089849999999,0.90722656,0.500026113354469,0.49997355363670976,0.4999880091517065,91.05,-0.9,68.55,0.004638669999999991,0.5148925799999999,0.6013183599999999,0.4999854111418484,0.5000470972735328,0.500013389729689,57.6,19.95,-1.05
0.06152343999999999,0.5224609400000001,0.299072265,0.4999570329608756,0.49994863932343697,0.5000375045948979,-7.65,28.05,16.65,0.193115235,0.505371095,0.9191894549999999,0.5000257802583812,0.5000010658725742,0.5000343070644419,90.45,-0.3,69.0,-0.0031738300000000094,0.5185546900000001,0.6101074200000001,0.49997262102002393,0.5000458315607592,0.5000371714988102,60.3,20.85,-0.75
0.03881835999999998,0.5485839849999999,0.322021485,0.49996489357476076,0.49998174734668266,0.5000156546434593,-8.55,28.2,15.75,0.20605468999999998,0.50097656,0.931640625,0.5000432335509012,0.5000007327764865,0.5000219831200605,91.8,0.15,68.1,-0.005126955000000009,0.5207519549999999,0.6174316400000001,0.49998827566348325,0.5000303100859218,0.5000392365723811,58.35,21.0,0.3
0.04736327999999997,0.540527345,0.338378905,0.49997248776413555,0.5000007993607974,0.5000404357008437,-7.05,28.05,17.1,0.22802734500000002,0.498046875,0.91796875,0.500044765688185,0.4999670919042201,0.4999937381077097,91.8,0.15,68.1,-0.001953125,0.5363769549999999,0.62207031,0.49995590041672405,0.5000329080957798,0.500013856081665,58.2,19.8,37.65
0.05834960999999998,0.529785155,0.341308595,0.49998274654767944,0.5000099923590335,0.5000169869405438,-7.05,28.05,17.1,0.23364258000000002,0.49853515499999995,0.8986816400000001,0.500062218980705,0.499955234311815,0.500015321634638,91.8,0.15,68.1,0.011962890000000016,0.533691405,0.6257324200000001,0.49997355363670976,0.5000480298902186,0.5000195183660909,58.2,19.8,-0.75
0.06982422000000002,0.5295410150000001,0.338134765,0.4999473070263524,0.5000452986244721,0.5000106584639425,-6.3,28.05,16.05,0.23510741999999998,0.5126953150000001,0.895996095,0.5000564234403908,0.4999824801231691,0.5000184524935167,93.9,-1.65,69.6,0.01879883000000001,0.509277345,0.6115722650000001,0.49996129636390596,0.5000452320401612,0.5000407021253541,58.2,19.8,-0.75
0.06518554499999998,0.52001953,0.32861328,0.49996436063847366,0.5000629517571914,0.500002598009858,-6.6,27.75,16.05,0.23315429499999998,0.5139160150000001,0.91357422,0.5000462312411579,0.4999861439183349,0.5000212503435741,91.8,-0.15,68.85,0.013183595000000025,0.514160155,0.6008300799999999,0.49995303598235563,0.5000528928138469,0.5000379709468741,60.15,21.75,-0.6
0.060546875,0.51074219,0.302490235,0.4999835459084768,0.5000576224815869,0.5000259135142696,-7.05,28.5,16.35,0.2265625,0.5061035150000001,0.90625,0.5000345734889522,0.5000279785878405,0.5000207840788644,91.8,-0.15,68.85,0.015869140000000014,0.513183595,0.60205078,0.499977950208362,0.5000647504062521,0.5000359057860366,60.15,21.75,-0.6
0.03002929499999999,0.513183595,0.280029295,0.49997062253076396,0.5000786730722281,0.5000094594227464,-6.15,27.45,17.25,0.216552735,0.51513672,0.9079589849999999,0.5000069279971994,0.5000271125554657,0.5000369716586108,91.35,-1.95,68.85,0.019287109999999986,0.508789065,0.6018066400000001,0.499984678365362,0.500053425750134,0.500050827740276,60.3,19.8,-0.75
0.010742189999999993,0.5227050799999999,0.27001953,0.49999173970571614,0.5000506279000766,0.5000337741281548,-6.15,27.45,17.25,0.20336914,0.506591795,0.9230957049999999,0.5000072610932871,0.5000310428624083,0.500010791719831,92.1,-0.45,69.6,0.0068359399999999935,0.5285644549999999,0.604492185,0.5,0.5000676148406205,0.5000411018057528,59.4,20.7,-2.1
0.014160154999999975,0.528808595,0.275634765,0.5000131898894896,0.5000077274452632,0.5000196516219793,-7.95,30.15,16.5,0.20190429499999998,0.49951172000000005,0.92675781,0.5000267128750671,0.5000248476416954,0.5000169203562328,91.35,-0.45,69.15,-0.00854491999999999,0.5261230450000001,0.58691406,0.49999114009785167,0.5000329747673573,0.5000438330714992,58.95,19.8,-0.45
0.03393554499999999,0.5302734400000001,0.28588867,0.4999796822731117,0.49997928250544654,0.5000524931334482,-7.05,28.5,17.1,0.189208985,0.50488281,0.9084472650000001,0.5000282450123509,0.4999965359577671,0.5000345069046412,91.35,-0.45,69.15,-0.0009765600000000063,0.529785155,0.5930175799999999,0.49997455283770653,0.500019984718067,0.5000496286118133,59.1,21.0,0.3
0.05444335999999998,0.5358886700000001,0.27807617,0.499975285614193,0.5000002664245103,0.500016054323858,-7.95,27.45,15.45,0.1953125,0.5153808599999999,0.905273435,0.5000184524935167,0.4999956033410813,0.5000257802583812,91.35,-0.9,68.55,0.007324220000000025,0.5319824200000001,0.5886230450000001,0.4999650934149601,0.49998507813302717,0.5000530260697353,59.1,21.0,0.3
0.06079101500000002,0.5134277349999999,0.27368164,0.49998501146144975,0.4999877427271962,0.5000490290912153,-7.95,27.45,15.45,0.193603515,0.50854492,0.91503906,0.5000101256149219,0.5000147886983509,0.500024647801496,91.95,1.05,69.45,-0.0026855449999999906,0.5368652349999999,0.58984375,0.499966558967933,0.5000007993607974,0.5000562901845024,60.3,20.1,-1.2
0.0625,0.50073242,0.27661133,0.49997441958181815,0.49999213938611486,0.5000541585266205,-6.6,28.05,17.4,0.19604491999999998,0.5166015650000001,0.92578125,0.4999814808349059,0.5000122572728039,0.5000221829602599,90.3,-1.2,68.85,-0.004638669999999991,0.537597655,0.59033203,0.49995456811963945,0.49998994105665556,0.5000523598775598,60.3,20.1,-1.2
0.03955077999999997,0.494384765,0.262939455,0.4999722879239362,0.49999813476662835,0.5000145221865742,-7.65,28.5,17.7,0.19189452999999998,0.51953125,0.90673828,0.4999902741527433,0.49999453755577355,0.5000289777888374,91.05,0.15,68.55,-0.0034179700000000254,0.55126953,0.5964355450000001,0.4999498384518995,0.49998401226045297,0.5000135229855773,59.1,19.95,-1.65
0.03173827999999997,0.5134277349999999,0.26196289,0.5000341738085534,0.4999699563385885,0.5000285115241276,-9.15,28.5,16.65,0.19433593999999998,0.52001953,0.9211425799999999,0.4999736202210207,0.5000099923590335,0.5000468307617559,90.15,-0.75,69.45,-0.009521484999999984,0.5500488299999999,0.5837402349999999,0.4999417113262376,0.5000059953805135,0.5000415015734179,60.3,21.6,-0.15
0.028808595000000024,0.5412597650000001,0.27661133,0.5000302435016108,0.4999717549876492,0.5000482963147289,-6.9,28.65,15.75,0.20361327999999998,0.5324707049999999,0.9162597650000001,0.5000009992009967,0.5000125236973141,0.5000387703076715,91.05,0.9,68.55,-0.0017089849999999843,0.556640625,0.5778808599999999,0.4999192618542009,0.49997055585918654,0.5000111248159187,59.4,21.0,-0.3
0.03686523499999998,0.5412597650000001,0.290039065,0.49999593643716905,0.49995197010978143,0.5000412350616411,-6.9,28.65,15.75,0.20971679499999998,0.517578125,0.908691405,0.4999982680225168,0.500017519876831,0.5000724777642488,91.05,0.9,68.55,0.003662109999999984,0.5451660150000001,0.592285155,0.4999220597042583,0.4999771508475646,0.5000355727772153,59.7,20.85,-0.15
0.05688476500000002,0.537109375,0.28833008,0.4999908736733413,0.4999257235866905,0.5000626853326811,-6.45,28.65,15.75,0.21215820500000002,0.51904297,0.90722656,0.5000077274452632,0.49999646937345615,0.500056090344303,91.35,-1.65,69.15,0.007080080000000009,0.5407714849999999,0.58642578,0.499888418831992,0.5000004663519761,0.5000190521013812,60.0,22.35,-0.45
0.06860351500000002,0.53466797,0.295654295,0.49997162173176074,0.49993831395558214,0.5000063950609122,-6.45,29.4,17.25,0.08471679499999998,0.5202636700000001,0.881347655,0.4999904073213652,0.4997564532655182,0.5000651500866508,91.2,0.3,69.0,0.0029296899999999935,0.53515625,0.5983886700000001,0.4998897511290765,0.5000461646568469,0.500037438010587,59.7,19.8,-0.75
0.076171875,0.5358886700000001,0.30029297,0.4999401125173763,0.49998174734668266,0.49998780931150716,-7.05,28.8,17.1,0.24340820500000002,0.5148925799999999,0.9401855450000001,0.5000023981696587,0.49988162400341457,0.500066215959225,91.35,0.9,69.9,0.004150390000000016,0.5270996099999999,0.5925292950000001,0.49989501382037005,0.5000288445329489,0.5000205176543542,59.7,19.8,-0.75
0.07177734500000002,0.5363769549999999,0.30859375,0.49993937982815634,0.49999646937345615,0.5000167205160335,-7.35,27.75,17.1,0.19409179499999998,0.501220705,0.8762207049999999,0.4999774839436523,0.49986370444618494,0.5000718116593398,90.9,-0.75,69.0,0.0034179700000000254,0.5261230450000001,0.59033203,0.49991233385700157,0.500038104115496,0.5000260466828915,58.95,20.85,-0.15
0.08276366999999998,0.5217285150000001,0.30908203,0.4999607634276188,0.5000359724576141,0.5000061952207129,-7.35,27.75,17.1,0.22192383000000002,0.5349121099999999,0.8884277349999999,0.49999660262934453,0.4999082702941706,0.500092995418603,91.05,0.15,69.9,0.008056640000000016,0.5222167950000001,0.5935058599999999,0.49991386599428544,0.4999950704047942,0.5000302435016108,58.95,20.85,-0.15
0.07250976500000002,0.52294922,0.29736328,0.4999517702695821,0.500056023759992,0.5000152549630607,-6.0,28.8,16.05,0.2109375,0.5222167950000001,0.9138183599999999,0.4999910735135407,0.49996289508550074,0.5000565566962792,91.2,-0.75,69.45,0.007324220000000025,0.5224609400000001,0.5988769549999999,0.4999219265356364,0.49995503447161566,0.5000377044350973,59.4,22.2,0.0
0.05908202999999997,0.5329589849999999,0.291503905,0.5000043299873413,0.5000611531081308,0.5000343736487528,-6.45,28.95,16.8,0.21801758000000002,0.521972655,0.932128905,0.4999527028862679,0.5000011324568852,0.500071411978941,91.2,-0.75,69.45,0.00903320500000001,0.53564453,0.6057128900000001,0.4999287878612583,0.4999862771742233,0.5000119241767161,58.35,21.45,0.0
0.025878904999999976,0.5539550799999999,0.28857422,0.5000496952833908,0.5000702795220558,0.500086866782201,-5.55,28.8,17.1,0.22387695500000002,0.5185546900000001,0.9865722650000001,0.499963894373764,0.5000021983294594,0.500076208230992,91.05,-0.15,70.95,-0.006591794999999991,0.5383300799999999,0.607910155,0.49990893648634616,0.4999807480584194,0.5000446991038741,59.4,22.2,-0.6
0.010742189999999993,0.56640625,0.27734375,0.5000274456515534,0.500071545147563,0.5000456983048708,-7.95,28.2,17.25,0.21972656499999998,0.494873045,0.935058595,0.4999831462280781,0.49999853444702713,0.5000632848532791,90.3,1.2,69.15,-0.0034179700000000254,0.5322265650000001,0.626464845,0.49991679710023124,0.49997561871028073,0.5000667488082455,59.4,20.25,0.3
0.008789064999999993,0.560546875,0.27294922,0.5000162542513238,0.5000213170151515,0.5000391034037592,-7.95,28.2,17.25,0.220458985,0.5017089849999999,0.916503905,0.49997548545439235,0.499971288635673,0.5000544915354418,91.35,0.9,70.95,0.009521484999999984,0.5390625,0.63671875,0.49989814467924876,0.4999766179112775,0.5000327082555805,59.4,20.25,0.3
-0.002197265000000016,0.5412597650000001,0.29345703,0.5000045298275406,0.4999851447173381,0.5000632848532791,-6.9,28.65,16.5,0.2109375,0.50341797,0.89550781,0.49997768378385166,0.49985970746766495,0.5000525597177592,91.35,0.9,70.95,0.016113279999999976,0.5256347650000001,0.619140625,0.49994304362332215,0.4999636278619872,0.5000611531081308,59.4,20.25,0.3
0.03173827999999997,0.5295410150000001,0.31567383,0.49998441194085164,0.4999938047792871,0.49999173970571614,-6.45,28.65,16.5,0.24877929499999998,0.5236816400000001,0.9416503900000001,0.49998967454487875,0.4999622289805918,0.500037438010587,91.8,0.15,70.35,0.020019529999999976,0.525390625,0.616210935,0.4999186623336029,0.4999725543484465,0.500062285565016,58.8,21.75,0.3
0.05322265499999997,0.5197753900000001,0.333251955,0.5000280451721515,0.4999744862533956,0.4999907404174529,-7.2,30.15,17.55,0.24926758000000002,0.517089845,0.9284667950000001,0.49998174734668266,0.4999989341274258,0.5000510275804753,90.45,0.75,69.75,0.024902345000000024,0.5261230450000001,0.6193847650000001,0.49995097090878465,0.499988608759571,0.5000522932932489,58.8,21.75,0.3
0.05029297000000003,0.5217285150000001,0.333251955,0.5000090597423477,0.4999616960443046,0.5000267128750671,-7.2,30.15,17.55,0.25292969,0.521972655,0.9577636700000001,0.500015987739547,0.500006661572689,0.5000479632186411,90.45,0.75,69.75,0.020996095000000024,0.533691405,0.6154785150000001,0.49993744792320727,0.5000013989686619,0.5000413016459521,58.95,21.15,0.15
0.041015625,0.524902345,0.31933594,0.4999965359577671,0.49998547781342584,0.5000267128750671,-6.9,29.7,17.25,0.243896485,0.5231933599999999,0.9609375,0.4999910069292297,0.5000097925188342,0.5000586883541611,91.35,-0.45,69.9,0.015136720000000025,0.5427246099999999,0.630371095,0.4999431768792105,0.5000294441408134,0.5000303767574993,59.25,21.15,-0.75
0.017578125,0.5222167950000001,0.311035155,0.5000187190052935,0.4999132664736874,0.5000349065850399,-8.1,28.8,17.1,0.23828125,0.5129394549999999,0.9421386700000001,0.5000015988088613,0.5000101256149219,0.500039569668469,91.05,-0.15,68.55,0.007568359999999984,0.5412597650000001,0.6223144549999999,0.4999389134761802,0.5000155880591484,0.5000050627638277,59.4,22.5,0.0
0.033203125,0.5275878900000001,0.294189455,0.5000111914002296,0.49996056358741947,0.5000297771496347,-7.65,28.5,17.1,0.21484375,0.5244140650000001,0.904296875,0.499995336916571,0.4999205941512854,0.5000416347420399,90.9,-0.3,70.5,0.011230470000000025,0.5412597650000001,0.6262207049999999,0.49993977950855506,0.5000232488328341,0.5000359724576141,59.85,22.95,0.3
0.03540039000000002,0.5478515650000001,0.302001955,0.5000035306265439,0.49995276955784534,0.500011324656118,-7.05,27.75,17.4,0.25048828,0.53125,0.9367675799999999,0.499997335405831,0.49992692262788674,0.5000472971137321,90.9,-0.3,70.5,0.019287109999999986,0.5322265650000001,0.6213378900000001,0.4999570329608756,0.5000291110447257,0.500030776437898,58.8,22.5,0.0
0.05029297000000003,0.54736328,0.309570315,0.5000123905286922,0.4999543682794401,0.5000479632186411,-7.05,27.75,17.4,0.22192383000000002,0.5197753900000001,0.9260253900000001,0.5000101256149219,0.4999746194220175,0.5000543583668198,90.9,1.8,70.05,0.009521484999999984,0.5368652349999999,0.6140136700000001,0.4999518369411595,0.5000431002950128,0.5000144556022632,59.4,21.45,0.3
0.06665039000000002,0.5419921900000001,0.306640625,0.4999894081203684,0.49994604131357884,0.5000282450123509,-5.7,28.2,16.5,0.22583008000000002,0.5129394549999999,0.94238281,0.5000215834396619,0.4999676248405072,0.5000716118191404,90.75,1.65,70.65,0.015136720000000025,0.5400390650000001,0.60986328,0.49995143717349433,0.5000729441162249,0.5000043299873413,59.4,21.45,0.3
0.063476565,0.536621095,0.313720705,0.49998401226045297,0.4999898078007671,0.5000215834396619,-7.95,28.2,17.85,0.220947265,0.5314941400000001,0.9304199200000001,0.49999993341568905,0.499915131707059,0.5000572228011881,90.75,1.65,70.65,0.003662109999999984,0.5283203150000001,0.610839845,0.49993378404077504,0.5000532259099346,0.4999996669039123,58.35,22.95,0.0
0.05517577999999997,0.5305175799999999,0.306640625,0.49997155514744973,0.4999994004794019,0.5000094594227464,-6.3,28.8,16.05,0.21752929499999998,0.5224609400000001,0.9377441400000001,0.49999800151074,0.49993764776340666,0.5000604203316443,90.75,1.65,70.65,-0.002197265000000016,0.5363769549999999,0.608398435,0.49993191880740345,0.500064150885654,0.5000301769172999,58.35,22.95,0.0
0.05224609500000003,0.5358886700000001,0.30444336,0.4999854111418484,0.49997548545439235,0.5000570895452998,-6.3,28.8,16.05,0.22778320500000002,0.5244140650000001,0.92236328,0.5000098591031451,0.4999477733783286,0.5000464976656682,91.05,1.95,71.4,-0.0029296850000000065,0.5341796900000001,0.599121095,0.49990620522059964,0.5000566898649011,0.500042767198925,58.5,22.35,0.15
0.05297851500000002,0.5354003900000001,0.307373045,0.49998654368600004,0.49999473739597294,0.5000319754790941,-7.2,28.95,17.25,0.22412109500000002,0.5202636700000001,0.90185547,0.5000217832798612,0.4999099356873429,0.5000478966343301,92.55,0.9,69.9,0.010742189999999993,0.54248047,0.60205078,0.49991426567468417,0.5000315092143844,0.5000075276050638,58.2,21.9,-0.15
0.04589843999999999,0.5412597650000001,0.322998045,0.49998441194085164,0.5000121906884929,0.5000085933903716,-8.55,29.4,18.3,0.240478515,0.5212402349999999,0.9045410150000001,0.5000047963393174,0.4999259900112009,0.5000628851728804,91.8,1.2,70.65,0.01953125,0.5270996099999999,0.592773435,0.4999300535740318,0.5000135895698883,0.5000329747673573,60.0,20.85,0.15
0.06127929499999999,0.545410155,0.326904295,0.4999813476662839,0.5000177197170302,0.5000332411918677,-7.2,28.65,17.25,0.23754883000000002,0.5114746099999999,0.9187011700000001,0.4999995336480239,0.49995743264127435,0.5000418345822393,91.8,1.2,70.65,0.020507814999999995,0.5275878900000001,0.581054685,0.4999447756880718,0.4999986010313381,0.5000536255903334,59.1,21.45,-0.6
0.08349609500000002,0.5537109400000001,0.32739258,0.49998987438507814,0.5000201845582664,0.5000328415114689,-7.95,30.15,17.25,0.23950195500000002,0.514160155,0.95361328,0.4999887419281929,0.4999825467074801,0.500033973968354,90.45,0.3,69.45,0.01635741999999999,0.5397949200000001,0.5837402349999999,0.4999554341520143,0.5000156546434593,0.5000272458113542,59.1,21.45,-0.6
0.07739258000000002,0.560058595,0.30834961,0.49998601074971294,0.5000172534523206,0.5000330413516683,-7.95,30.15,17.25,0.23413086,0.51074219,0.9616699200000001,0.499981947186882,0.5000001998401994,0.5000548913031069,90.15,-0.3,71.25,0.007568359999999984,0.5422363299999999,0.596191405,0.49996589277575754,0.49999460414008456,0.500024048280898,58.95,21.9,0.45
0.04516601500000002,0.5615234400000001,0.27661133,0.49997035601898715,0.5000352396811276,0.500034840000729,-6.3,28.05,17.1,0.22387695500000002,0.5300292950000001,0.919433595,0.49997934917702397,0.4999585650981595,0.5000486959951276,90.75,1.65,73.2,0.01684570500000001,0.5456542950000001,0.599609375,0.49996249540510207,0.4999820803555039,0.5000552243119282,58.95,21.9,0.45
0.011230470000000025,0.55517578,0.264404295,0.49994244410272404,0.5000457648891817,0.5000116577522058,-7.05,29.85,18.45,0.23315429499999998,0.5358886700000001,0.92138672,0.4999900076409665,0.4999771508475646,0.5000425007744147,90.75,1.2,70.65,0.013916015000000016,0.5358886700000001,0.6115722650000001,0.4999668920640208,0.49997874965642586,0.5000257135868038,59.25,22.65,1.2
-0.0007324199999999905,0.5432128900000001,0.271972655,0.49998987438507814,0.49999820135093936,0.5000001332558884,-6.9,28.95,17.85,0.236328125,0.5319824200000001,0.907714845,0.5000012657127736,0.49996869062581495,0.500024048280898,90.3,1.95,70.95,0.023193359999999986,0.5361328150000001,0.599121095,0.4999694900738788,0.5000177197170302,0.5000114579120064,58.2,21.9,0.15
0.01049804499999999,0.5373535150000001,0.283935545,0.4999648269904498,0.499995336916571,0.5000031309461451,-6.9,28.95,17.85,0.23339843999999998,0.533203125,0.9128417950000001,0.49999034073705423,0.49999540350088195,0.5000461646568469,91.05,0.45,70.35,0.015380859999999984,0.5283203150000001,0.595703125,0.4999720880837369,0.49998960796056774,0.5000307097663205,60.75,23.4,0.45
0.02807616999999999,0.5319824200000001,0.291503905,0.4999606967560414,0.49997382006122004,0.5000027312657465,-8.1,29.25,16.05,0.23925781499999998,0.5300292950000001,0.916503905,0.4999988009588039,0.4999722879239362,0.5000708123710765,91.05,0.45,70.35,0.019775390000000014,0.5168457049999999,0.59082031,0.499984611781051,0.500010791719831,0.5000177197170302,60.3,22.35,0.75
0.044921875,0.5412597650000001,0.30053711,0.5000145888581515,0.49992485755431576,0.5000500282922121,-6.3,27.3,17.7,0.240234375,0.5339355450000001,0.9367675799999999,0.49997961560153426,0.500018585749405,0.5000388368919825,91.95,1.8,70.05,0.015625,0.520996095,0.5964355450000001,0.49999460414008456,0.5000292443006141,0.5000262465230909,60.3,22.35,0.75
0.03979491999999999,0.5422363299999999,0.310302735,0.49996109643644016,0.49993831395558214,0.5000323085751819,-8.1,28.5,16.35,0.240478515,0.5124511700000001,0.928710935,0.49995536756770337,0.5000271125554657,0.5000769410074785,91.35,1.95,70.65,0.01245116999999999,0.5202636700000001,0.5949707049999999,0.500029377469236,0.5000123905286922,0.4999894081203684,58.2,21.9,0.45
0.04663085999999998,0.5549316400000001,0.325195315,0.4999736202210207,0.49994564163318017,0.5000207174945535,-8.1,27.75,18.15,0.23291015499999998,0.51171875,0.919433595,0.49998501146144975,0.5001696033299937,0.5000482963147289,91.05,0.45,71.4,0.0068359399999999935,0.5217285150000001,0.59863281,0.5000192519415806,0.50001072513552,0.5000292443006141,59.7,23.4,-0.15
0.05981445500000001,0.55517578,0.322753905,0.49998747630268586,0.49993758117909565,0.5000265130348677,-8.1,27.75,18.15,0.21899414,0.51171875,0.9108886700000001,0.4999616293727272,0.5000566898649011,0.500044099583276,91.05,0.45,71.4,0.01171875,0.537109375,0.5993652349999999,0.5000521600373604,0.5000018652333716,0.5000232488328341,59.7,23.4,-0.15
0.07348633000000002,0.5505371099999999,0.31616211,0.4999413116458389,0.499984678365362,0.4999952036606826,-6.3,29.25,17.1,0.22338866999999998,0.51171875,0.935058595,0.499977284103453,0.5001322319909841,0.5000603537473334,90.45,2.25,71.85,0.008056640000000016,0.5383300799999999,0.592773435,0.5000620857248166,0.5000037970510541,0.5000082602942838,59.85,23.7,0.0
0.06005859500000003,0.553222655,0.30786133,0.4999419778380144,0.4999875428869968,0.4999808813143078,-7.95,29.25,17.1,0.21411133000000002,0.5124511700000001,0.9172363299999999,0.49999293874691225,0.5000587549384721,0.5000429670391244,89.85,1.8,71.85,0.010253904999999975,0.5446777349999999,0.6008300799999999,0.5000691469779043,0.5000260466828915,0.5000227825681245,59.85,23.7,0.0
0.06005859500000003,0.5517578150000001,0.287109375,0.49996322818158856,0.49999573659696966,0.5000255137466044,-7.95,28.65,19.35,0.21411133000000002,0.529785155,0.9152832049999999,0.4999944042998852,0.5000768744231675,0.5000377710194083,89.85,1.8,71.85,0.005371095000000025,0.5500488299999999,0.6018066400000001,0.500068347617107,0.5000338407124657,0.5000083935501722,58.05,22.5,0.0
0.06152343999999999,0.5456542950000001,0.283203125,0.49993724808300793,0.5000203843984657,0.49999007431254394,-5.7,28.2,18.9,0.20385741999999998,0.52001953,0.9230957049999999,0.5000239150250096,0.5001111148160319,0.5000371714988102,90.45,1.05,70.5,0.0031738300000000094,0.5515136700000001,0.5988769549999999,0.5000494954431914,0.5000516271010734,0.5000135895698883,59.7,23.1,-0.15
0.03173827999999997,0.5412597650000001,0.275634765,0.49995063781269694,0.5000361722978134,0.49996122969232853,-6.45,29.7,16.8,0.189453125,0.5075683599999999,0.92236328,0.5000076607736857,0.5000640176297656,0.5000653499268501,92.7,3.0,70.5,-0.005859375,0.5456542950000001,0.5998535150000001,0.5000451653685837,0.5000618193003062,0.4999976018303413,58.95,23.1,0.45
0.027832029999999976,0.532714845,0.263916015,0.499975285614193,0.5000053292756045,0.4999951370763716,-7.5,29.7,15.75,0.19628906499999998,0.5192871099999999,0.9460449200000001,0.5000076607736857,0.5000466309215567,0.5000305099261212,90.15,1.5,70.05,-0.007324220000000025,0.5368652349999999,0.6003417950000001,0.5000355727772153,0.5000800719536236,0.4999918062900271,59.85,22.95,-0.6
0.017578125,0.54736328,0.267578125,0.49996649238362206,0.5000022649137703,0.49999873428722647,-6.3,27.75,16.35,0.18359375,0.506835935,0.921875,0.5000006661921754,0.5000758752221708,0.5000385704674721,90.15,1.5,70.05,-0.015136719999999968,0.5349121099999999,0.5827636700000001,0.5000095926786348,0.5000786064006507,0.5000141225061755,59.85,24.0,-1.05
0.03222656499999999,0.5373535150000001,0.270996095,0.49995963097073365,0.49999500382048323,0.49999007431254394,-6.6,29.25,17.4,0.20361327999999998,0.49926758,0.939941405,0.5000049961795168,0.5000657496072488,0.5000250474818948,89.85,2.55,69.75,-0.012939454999999952,0.5275878900000001,0.5930175799999999,0.5000049961795168,0.5000281117564624,0.499993271843,59.1,21.45,0.3
0.02734375,0.54345703,0.27783203,0.49998927486448,0.4999676914248182,0.5000167871003445,-6.6,30.6,17.4,0.21118164,0.5017089849999999,0.9392089849999999,0.5000357726174147,0.5000284448525503,0.5000264463632902,90.9,0.3,69.45,-0.0012207050000000094,0.53125,0.596191405,0.5000108583041419,0.5000011324568852,0.500015987739547,59.1,21.45,0.3
0.022460939999999995,0.5417480450000001,0.28027344,0.49998720979090905,0.4999632947658995,0.5000626186611037,-6.6,30.6,17.4,0.21777343999999998,0.50439453,0.9274902349999999,0.5000237151848103,0.5000221829602599,0.5000193185258915,90.0,1.2,69.15,0.00024414000000001578,0.529296875,0.606933595,0.5000167871003445,0.5000095926786348,0.5000100589433445,59.4,22.2,0.0
0.024902345000000024,0.5549316400000001,0.28881836,0.49996975649838915,0.4999878759830846,0.5000139226659761,-7.35,29.25,18.15,0.216552735,0.502685545,0.94140625,0.5000187855896044,0.49999247239493616,0.5000129234649794,90.0,1.95,70.35,0.004150390000000016,0.5168457049999999,0.604492185,0.5000163874199458,0.5000008660323748,0.5000072610932871,59.25,23.1,-1.2
0.0234375,0.5563964849999999,0.299316405,0.4999812144103955,0.49995969755504466,0.5000347733291515,-6.6,29.85,18.45,0.21850586,0.505859375,0.9353027349999999,0.5000085933903716,0.4999791493368246,0.4999812144103955,90.3,2.7,69.9,0.009277345000000025,0.5227050799999999,0.6125488299999999,0.5000202511425773,0.5000338407124657,0.49999980015980067,59.1,23.25,-1.35
0.03881835999999998,0.5625,0.314941405,0.4999813476662839,0.4999717549876492,0.5000433001352121,-7.05,29.85,16.05,0.224365235,0.50390625,0.91796875,0.5000332411918677,0.4999668920640208,0.4999826799633685,91.05,0.9,69.9,0.008789064999999993,0.5187988299999999,0.6135253900000001,0.500031309374185,0.5000031309461451,0.5000023981696587,57.6,23.25,0.0
0.05566406499999999,0.5634765650000001,0.321289065,0.4999500382920989,0.4999996669039123,0.5000239150250096,-6.9,29.7,17.85,0.22534179499999998,0.5114746099999999,0.8933105450000001,0.5000210505033748,0.4999795490172233,0.49996915697779104,91.05,0.9,69.9,0.015136720000000025,0.5246582049999999,0.610839845,0.5000545582070192,0.4999687572973924,0.500013456314,59.85,23.7,0.0
0.06079101500000002,0.5573730450000001,0.34277344,0.4999652932551594,0.5000293108849251,0.5000299769898341,-7.05,29.85,17.4,0.22143554499999998,0.5153808599999999,0.89501953,0.5000252473220941,0.49996575960713563,0.4999622289805918,90.15,1.8,70.05,0.02221679499999999,0.525390625,0.604003905,0.5000966593010352,0.499979882113311,0.5000255804181818,58.5,21.9,-1.2
0.06811523499999998,0.552734375,0.341796875,0.49997561871028073,0.5000303100859218,0.5000165872601451,-7.5,28.65,17.85,0.22412109500000002,0.5202636700000001,0.9133300799999999,0.5000369050742999,0.5000043966589187,0.49996142953252787,91.2,1.5,70.05,0.02465820500000001,0.53173828,0.5954589849999999,0.5001129800494035,0.500013456314,0.5000371714988102,58.5,21.9,-1.2
0.07763672000000002,0.5539550799999999,0.32421875,0.4999600306511324,0.500102321585461,0.4999636944462982,-6.45,30.15,16.2,0.22509765499999998,0.5222167950000001,0.94189453,0.5000472304421547,0.4999887419281929,0.4999728208602233,91.65,1.5,70.05,0.009521484999999984,0.5322265650000001,0.5915527349999999,0.5001130467209809,0.5000193851102025,0.5000238483534322,58.35,22.2,0.0
0.05297851500000002,0.5612792950000001,0.30810547,0.5000183859092058,0.5000819371869952,0.4999852113016491,-6.45,29.7,17.25,0.22290039,0.513671875,0.9509277349999999,0.5000611531081308,0.5000328415114689,0.4999513705891834,91.05,1.65,69.9,0.0068359399999999935,0.5505371099999999,0.5832519549999999,0.5001011225442649,0.5000243147054083,0.5000183859092058,58.35,22.2,0.0
0.02075195500000001,0.5607910150000001,0.294677735,0.500012790209091,0.5000718782436507,0.4999970688940542,-6.45,29.7,17.25,0.23779297000000002,0.5227050799999999,0.9479980450000001,0.5000536921746443,0.5000101921992328,0.49993171896720406,90.75,3.15,69.6,0.01098633000000001,0.5417480450000001,0.5930175799999999,0.5001053859472951,0.4999932051714226,0.5000129234649794,57.45,23.1,0.45
0.006103515000000016,0.5517578150000001,0.290283205,0.49999200613022643,0.500060087322823,0.4999523032058692,-9.0,29.4,17.85,0.23193359500000002,0.5158691400000001,0.9362792950000001,0.5000711454671642,0.500025313906405,0.49993638205063307,90.45,2.25,69.6,0.01049804499999999,0.5441894549999999,0.60205078,0.5000826033791707,0.5000053958599154,0.5000076607736857,59.4,22.5,-0.3
0.0048828149999999935,0.5439453150000001,0.28955078,0.5000147886983509,0.4999927389067129,0.5000068614128884,-6.0,29.25,17.4,0.22705077999999998,0.5263671900000001,0.9167480450000001,0.5000566898649011,0.5000951270764848,0.4999479065469505,90.45,2.25,69.45,0.021240234999999986,0.55126953,0.608398435,0.5000866002704243,0.4999982680225168,0.5000399693488676,59.4,22.5,-0.3
0.013183595000000025,0.54248047,0.30908203,0.5000372381703876,0.4999658261914466,0.4999928054910239,-7.65,28.5,16.65,0.25732422,0.5378417950000001,0.9357910150000001,0.5000299104055231,0.5000900643126571,0.49995216994998076,90.45,2.25,69.45,0.018066404999999976,0.55126953,0.603515625,0.500101655480552,0.5000165206758341,0.5000213835994626,58.95,23.1,-1.2
0.03369140499999997,0.5510253900000001,0.326171875,0.5000209173347528,0.49996729174441945,0.4999855443977368,-7.65,30.6,16.65,0.23388672000000002,0.5412597650000001,0.9265136700000001,0.5000526263020701,0.5000564234403908,0.49994923893130144,91.35,2.7,68.85,0.02221679499999999,0.5456542950000001,0.6149902349999999,0.5000907970891436,0.5000162542513238,0.5000209173347528,59.7,23.4,-0.45
0.06420898499999998,0.557128905,0.333251955,0.5000599540669347,0.4999594311305343,0.5000041968187193,-7.65,30.6,16.65,0.23779297000000002,0.529296875,0.9140625,0.500036105626236,0.5000336408722663,0.4999714884758723,90.9,0.75,69.75,0.026367189999999995,0.5439453150000001,0.611816405,0.5001117810082074,0.5000490956755264,0.5000275122358644,59.4,22.5,0.0
0.06958008000000002,0.5495605450000001,0.33544922,0.5000035972108549,0.49995203678135886,0.5000327082555805,-8.55,29.4,16.5,0.22998047000000002,0.5266113299999999,0.9104003900000001,0.5000598874826238,0.5000359724576141,0.4999515038450718,91.8,2.7,70.65,0.020507814999999995,0.5419921900000001,0.6105957049999999,0.5001226393996158,0.5000660161190256,0.5000295773094354,58.35,23.25,-0.3
0.08154297000000002,0.55078125,0.32055664,0.4999938047792871,0.5000109249757193,0.49998747630268586,-7.35,28.05,17.7,0.24536133000000002,0.5285644549999999,0.924804685,0.5000585550982727,0.5000883323351739,0.4999396462526666,91.8,2.7,70.65,0.01293945500000001,0.5437011700000001,0.607421875,0.5001192419416938,0.5000665489680463,0.500026779459378,58.35,23.25,-0.3
0.06909179499999998,0.55810547,0.30151367,0.4999927389067129,0.499977950208362,0.49999960031960133,-6.9,29.4,17.55,0.21557616999999998,0.53173828,0.919433595,0.5000650168307623,0.5001596110582266,0.49996436063847366,90.3,0.15,70.35,0.009765625,0.5412597650000001,0.5939941400000001,0.5001333644478693,0.5000931952588022,0.4999988009588039,58.2,23.1,-0.15
0.05932616999999999,0.5471191400000001,0.287353515,0.4999852113016491,0.49998867534388197,0.49999920063920256,-6.9,29.4,17.55,0.203125,0.5322265650000001,0.9348144549999999,0.5000329747673573,0.5001497519550815,0.4999637611178756,91.2,1.05,68.7,0.004150390000000016,0.540527345,0.5871582049999999,0.5001466875932473,0.5000700130102791,0.49997428641319624,58.8,22.95,-0.3
0.04443359500000003,0.548828125,0.28125,0.49997348696513233,0.500025313906405,0.49999393794790903,-6.9,28.95,16.2,0.19580077999999998,0.53857422,0.9382324200000001,0.500034840000729,0.5001014555530862,0.4999654930953588,91.2,1.05,68.7,-0.0007324199999999905,0.5505371099999999,0.5930175799999999,0.500137761106788,0.5000322419908709,0.5000089264864593,59.4,23.25,-0.3
0.03125,0.5390625,0.275146485,0.5000158544836586,0.4999851447173381,0.49999680246954387,-7.5,29.4,17.55,0.193115235,0.52001953,0.9250488299999999,0.5000253805779825,0.5000768078388566,0.4999567664490988,90.45,1.8,69.75,-0.007324220000000025,0.5480957049999999,0.5861816400000001,0.5001297672370144,0.4999951370763716,0.5000101921992328,58.2,21.9,-0.75
0.03417968999999999,0.53173828,0.275146485,0.500019984718067,0.5000139226659761,0.49999160644982776,-6.9,28.95,15.75,0.20166015499999998,0.51098633,0.932617185,0.5000181194846954,0.5000892649518597,0.49996782468070655,91.2,2.25,67.2,-0.0012207050000000094,0.5588378900000001,0.599609375,0.5001155781465281,0.5000012657127736,0.4999952036606826,59.85,23.25,-1.35
0.03491210999999998,0.52734375,0.28930664,0.49999813476662835,0.5000217832798612,0.4999840788447639,-6.6,29.85,17.7,0.201171875,0.5224609400000001,0.935546875,0.5000258468426921,0.5000339073840431,0.49996122969232853,90.15,1.8,69.0,-0.0026855449999999906,0.5563964849999999,0.5964355450000001,0.5000750091897959,0.5000155880591484,0.5000187190052935,57.9,21.6,-1.8
0.03759765499999997,0.5380859400000001,0.297851565,0.5000311095339858,0.4999990673833142,0.5000057955403142,-6.6,29.85,17.7,0.20434570500000002,0.5168457049999999,0.923828125,0.5000188522611819,0.49998101457019617,0.4999522366215582,90.15,1.8,69.0,-0.006103515000000016,0.5695800799999999,0.600097655,0.5000746095093972,0.5000155214748374,0.5000105252953206,57.9,21.6,-1.8
0.04980468999999999,0.541015625,0.30834961,0.5000327749271579,0.5000186523337161,0.500019984718067,-9.0,30.45,17.55,0.21142577999999998,0.5244140650000001,0.9123535150000001,0.5000157878993476,0.4999696899140782,0.49996649238362206,91.2,2.25,69.0,0.004150390000000016,0.5681152349999999,0.6042480450000001,0.5000576891531644,0.5000025314255471,0.4999760849749904,59.25,20.1,-0.15
0.06127929499999999,0.54736328,0.30859375,0.4999977350862297,0.5000448989440734,0.49998867534388197,-7.65,29.85,16.35,0.21166991999999998,0.5251464849999999,0.9177246099999999,0.5000504946441883,0.49997401990141943,0.4999513705891834,90.15,0.75,69.75,0.007568359999999984,0.568847655,0.58984375,0.5000457648891817,0.5000075276050638,0.5000059287962025,59.25,20.1,-0.15
0.06420898499999998,0.541503905,0.30810547,0.5000035972108549,0.5000397029243573,0.5000040635628309,-7.65,30.3,18.15,0.20751952999999998,0.528808595,0.9094238299999999,0.5000538920148437,0.49997095562685173,0.4999796822731117,90.75,1.65,69.15,0.00854491999999999,0.5612792950000001,0.591308595,0.5000550244717289,0.5000318422232056,0.5000152549630607,58.95,21.9,-1.8
0.05444335999999998,0.5439453150000001,0.29980469,0.5000127236247799,0.5000623522365933,0.500018052813118,-7.65,30.3,18.15,0.212646485,0.52783203,0.916503905,0.5000254471622935,0.49998727637522006,0.4999840788447639,90.45,0.0,69.0,0.013916015000000016,0.5627441400000001,0.58544922,0.5000465643372457,0.5000480298902186,0.4999919395459155,58.8,22.2,-1.35
0.04565429499999999,0.5490722650000001,0.28833008,0.4999916730341387,0.5000821370271946,0.4999730207004227,-9.15,28.8,18.15,0.205322265,0.53955078,0.9182128900000001,0.500036105626236,0.4999907404174529,0.49996515999927105,90.3,0.9,68.55,0.003662109999999984,0.55517578,0.57763672,0.5000538254305328,0.5000551577276172,0.4999976018303413,57.6,21.45,-2.1
0.04516601500000002,0.549316405,0.279052735,0.4999927389067129,0.500060087322823,0.499993271843,-9.6,28.8,17.1,0.20166015499999998,0.5432128900000001,0.92626953,0.5000243147054083,0.5000015321372838,0.49996535983947044,90.3,0.15,69.6,0.002197265000000016,0.561035155,0.58154297,0.5000438996558102,0.5000309096065199,0.49999920063920256,59.1,23.25,-1.05
0.03662109500000003,0.5480957049999999,0.274414065,0.5000270459711548,0.5000624854924818,0.5000182526533173,-9.6,28.2,17.55,0.20385741999999998,0.5361328150000001,0.9294433599999999,0.5000106584639425,0.5000177197170302,0.4999702894346762,90.3,0.15,69.6,-0.0029296850000000065,0.55419922,0.5842285150000001,0.5000149218669728,0.5000117243365167,0.5000096592629458,58.5,23.1,-0.45
0.028320314999999995,0.55029297,0.271240235,0.5000069946687767,0.5000515605167625,0.5000141225061755,-9.0,28.95,15.75,0.21459961,0.536621095,0.9211425799999999,0.5000167205160335,0.5000409686371309,0.499981947186882,91.8,1.65,69.15,0.0029296899999999935,0.556152345,0.5930175799999999,0.5000291776290366,0.499983945676142,0.49999527033226004,57.45,23.1,-1.2
0.028320314999999995,0.55078125,0.279785155,0.5000293108849251,0.5000120574326045,0.5000073943491754,-7.65,29.85,17.1,0.21997070500000002,0.54248047,0.9260253900000001,0.5000054624442265,0.5000196516219793,0.49998734304679743,91.65,0.75,67.95,0.0078125,0.5556640650000001,0.6013183599999999,0.5000139226659761,0.5000071945089761,0.4999636944462982,57.45,23.1,-1.2
0.03222656499999999,0.5517578150000001,0.291015625,0.5000386370517831,0.4999860773340239,0.500003464042233,-7.65,29.85,17.1,0.19628906499999998,0.53857422,0.905273435,0.5000053958599154,0.500091463281319,0.49998734304679743,91.05,0.45,68.55,0.005615234999999984,0.5534667950000001,0.5988769549999999,0.5000417014136173,0.5000054624442265,0.49998381242025364,59.1,21.45,-2.7
0.05566406499999999,0.54736328,0.287597655,0.500013856081665,0.5000030643618342,0.49999693563816583,-7.5,27.9,16.8,0.21118164,0.53125,0.9270019549999999,0.500008660061949,0.5000293108849251,0.4999907404174529,91.65,1.05,67.95,0.00390625,0.55078125,0.5949707049999999,0.5000373047546985,0.5000067948285775,0.49999094025765234,60.0,21.6,-1.5
0.06396484500000002,0.5412597650000001,0.29638672,0.49999946706371295,0.4999882089919058,0.4999802151221323,-8.55,28.2,16.5,0.22241211,0.5354003900000001,0.92138672,0.4999849448771388,0.5000423675185263,0.5000051294354051,90.75,1.95,68.1,0.005615234999999984,0.548339845,0.5983886700000001,0.5000323751594928,0.5000104586237432,0.5000083935501722,60.0,21.6,-1.5
0.068359375,0.54248047,0.307128905,0.5000049961795168,0.4999427105272344,0.4999932051714226,-8.55,29.7,16.8,0.22192383000000002,0.5363769549999999,0.9172363299999999,0.4999951370763716,0.500022116375949,0.500015388218949,91.05,0.45,67.5,0.019775390000000014,0.5471191400000001,0.6047363299999999,0.5000562901845024,0.5000265130348677,0.49999233922631425,58.8,22.5,-0.6
0.07055664000000002,0.5458984400000001,0.303466795,0.49998547781342584,0.4999680245209059,0.49998827566348325,-8.55,29.7,16.8,0.21972656499999998,0.5234375,0.9140625,0.5000012657127736,0.5000553575678166,0.5000235819289219,91.05,0.45,67.5,0.0078125,0.5458984400000001,0.599609375,0.500048895835327,0.500071545147563,0.49999753524603036,58.5,21.6,-0.45
0.068359375,0.54736328,0.29589844,0.49999800151074,0.4999360490418118,0.4999661592875343,-8.1,31.05,16.35,0.205322265,0.517578125,0.912597655,0.4999908736733413,0.5000503613882998,0.500005196019716,91.2,1.05,69.45,0.007568359999999984,0.541503905,0.599609375,0.5000252473220941,0.5000794724330255,0.4999634280217879,58.05,21.75,-1.35
0.068359375,0.5646972650000001,0.28466797,0.4999888085997704,0.4999543682794401,0.49999007431254394,-6.9,28.95,17.55,0.20190429499999998,0.5197753900000001,0.92529297,0.499997934926429,0.500036105626236,0.4999982680225168,92.1,0.15,67.5,0.014648439999999993,0.5419921900000001,0.5925292950000001,0.5000566232805902,0.5000524264618708,0.4999716884033381,58.35,22.2,-1.35
0.06591797000000002,0.5661621099999999,0.275634765,0.4999427105272344,0.49997288744453433,0.49996849078561556,-7.5,31.2,16.2,0.19580077999999998,0.5139160150000001,0.9235839849999999,0.4999878759830846,0.5000023981696587,0.49998927486448,91.95,0.0,69.45,0.015136720000000025,0.55029297,0.584960935,0.5000679479367082,0.5000481630588405,0.4999816140907943,58.35,22.2,-1.35
0.06103515499999997,0.5615234400000001,0.283447265,0.4999308530220957,0.49999160644982776,0.49996575960713563,-6.45,28.65,16.8,0.19116211,0.498779295,0.904785155,0.5000015321372838,0.49996595944733496,0.4999607634276188,91.95,0.0,69.45,0.002197265000000016,0.54736328,0.6015625,0.5000533590785566,0.5000273789799761,0.49999606969305743,58.05,20.7,-1.65
0.06298827999999998,0.5578613299999999,0.287597655,0.49993311793586603,0.49997928250544654,0.49998827566348325,-6.45,28.65,16.8,0.19799804499999998,0.5036621099999999,0.908691405,0.5000176531327193,0.49996196246881497,0.49996502683064914,91.35,1.65,68.55,0.004394529999999975,0.5505371099999999,0.5866699200000001,0.5000397695086682,0.4999832794839665,0.4999885420879936,58.05,20.7,-1.65
0.06762695500000002,0.5583496099999999,0.29272461,0.49988908502416746,0.5000111248159187,0.4999561669285008,-7.5,28.95,16.2,0.20410156499999998,0.50732422,0.90966797,0.5000183193248948,0.4999620290531259,0.4999459747292679,90.3,1.65,69.6,0.00854491999999999,0.5537109400000001,0.596679685,0.5000592212904482,0.49997548545439235,0.5000041968187193,58.5,21.6,-1.8
0.06005859500000003,0.557128905,0.311035155,0.499915065122748,0.5000116577522058,0.49993917990069053,-8.55,29.4,17.25,0.20288086,0.50073242,0.92578125,0.5000390367321818,0.4999405122850415,0.49995756580989625,90.3,1.65,69.6,0.005126955000000009,0.5427246099999999,0.591308595,0.5000563568560799,0.5000141890904864,0.49996649238362206,59.7,20.85,-1.2
0.06420898499999998,0.548828125,0.318847655,0.49993591578592345,0.4999876761428852,0.5000040635628309,-7.2,27.15,17.85,0.21240234500000002,0.517089845,0.924804685,0.5000407021253541,0.49995410185492983,0.4999375145075182,90.3,1.65,69.6,0.0024414049999999746,0.537109375,0.58935547,0.5000602204914449,0.4999993338078245,0.49999367152339874,57.9,20.85,-1.5
0.06372070500000002,0.5520019549999999,0.306884765,0.4999181293973157,0.5000145888581515,0.499967225072842,-7.2,27.15,17.85,0.216552735,0.5139160150000001,0.91845703,0.5000309096065199,0.4999586983540479,0.49993098619071763,90.9,-0.75,68.4,0.011474609999999984,0.5378417950000001,0.5969238299999999,0.5000764747427687,0.4999882089919058,0.4999822136113923,59.4,21.0,-2.1
0.04052734500000003,0.5603027349999999,0.294677735,0.499949172259724,0.500024647801496,0.49997548545439235,-7.5,29.4,17.25,0.22363281499999998,0.517578125,0.91894531,0.5000468307617559,0.49998201377119295,0.49991832923751506,90.15,0.3,67.95,0.00854491999999999,0.5363769549999999,0.58251953,0.5000955267568835,0.5000020650735709,0.49997475267790586,58.35,19.95,-2.4
0.033203125,0.55078125,0.286865235,0.49997854972896005,0.5000190521013812,0.500020117886689,-8.4,30.3,16.65,0.21752929499999998,0.5163574200000001,0.9279785150000001,0.5000463644970463,0.4999751523583046,0.49993758117909565,91.05,-0.45,68.55,0.011962890000000016,0.5358886700000001,0.5832519549999999,0.5001009892883764,0.5000368384027225,0.49998740963110844,60.15,21.0,-0.6
0.026367189999999995,0.549316405,0.28417969,0.4999830130594562,0.5000252473220941,0.49997355363670976,-8.55,30.45,16.5,0.22021484500000002,0.517089845,0.907714845,0.5000135229855773,0.49998654368600004,0.4999129999619106,91.05,-0.45,68.55,0.014648439999999993,0.52783203,0.5881347650000001,0.5001008560324881,0.49998734304679743,0.5000123238571148,60.15,21.0,-0.6
0.013427734999999984,0.5451660150000001,0.2890625,0.5000115910806283,0.49999080700176385,0.49999853444702713,-6.9,29.4,16.5,0.23510741999999998,0.5163574200000001,0.9255371099999999,0.5000255137466044,0.49999946706371295,0.49994783996263953,91.65,-1.05,68.4,0.011962890000000016,0.5251464849999999,0.5915527349999999,0.5001077174453764,0.49997994869762197,0.5000071945089761,58.8,22.2,-1.35
0.019775390000000014,0.5339355450000001,0.291748045,0.5000655497670494,0.4999570995451866,0.5000163208356349,-6.9,29.4,16.5,0.232421875,0.5187988299999999,0.9147949200000001,0.5000196516219793,0.49996662555224397,0.49992425803371765,91.8,0.15,68.55,0.018066404999999976,0.53955078,0.59765625,0.5000846018684307,0.5000478300500192,0.4999938047792871,58.8,22.2,-1.35
0.029296875,0.52734375,0.294921875,0.5000559570884147,0.4999729540288453,0.4999776171122743,-7.5,29.7,17.25,0.22119140499999998,0.513183595,0.91113281,0.5000278453319522,0.49999487056459485,0.49994204442232537,91.8,0.15,68.55,0.015869140000000014,0.5515136700000001,0.58642578,0.5001008560324881,0.5000492955157256,0.4999925390665136,59.4,21.45,-3.15
0.044921875,0.5380859400000001,0.309570315,0.5000867335263126,0.4999692902336795,0.4999806148897975,-7.5,28.65,16.8,0.21069336,0.537597655,0.89794922,0.5000252473220941,0.5000952603323733,0.49995949771484527,91.95,0.3,69.0,0.01049804499999999,0.5515136700000001,0.5910644549999999,0.5000866669420017,0.5000206508229761,0.5000002664245103,59.7,20.55,-2.25
0.03808593999999999,0.53857422,0.302001955,0.500095660012772,0.49992712255535254,0.5000161875797464,-6.45,29.4,19.65,0.21484375,0.5129394549999999,0.91503906,0.5000157878993476,0.500100323096201,0.49992665620337634,91.35,0.45,66.75,0.018066404999999976,0.5573730450000001,0.5812988299999999,0.5000967924696571,0.5000262465230909,0.4999811477388181,59.7,21.6,-1.2
0.04052734500000003,0.5378417950000001,0.310058595,0.5000808047301101,0.49995363550295374,0.49997008959447686,-6.45,29.4,19.65,0.22119140499999998,0.5168457049999999,0.932617185,0.4999930053312232,0.5001192419416938,0.4999437098154976,90.75,1.65,68.1,0.00903320500000001,0.564941405,0.59375,0.5000776737839648,0.5000490290912153,0.4999792159211356,58.35,20.7,-2.4
0.05078125,0.53857422,0.30395508,0.5000764080711914,0.4999522366215582,0.4999571661294976,-7.65,28.8,16.65,0.213134765,0.5144042950000001,0.9255371099999999,0.50001072513552,0.5000808047301101,0.49996609261595687,90.75,1.65,68.1,0.0029296899999999935,0.5676269549999999,0.60205078,0.5000931952588022,0.5000775406153429,0.49997934917702397,58.35,20.7,-2.4
0.05493164000000002,0.5349121099999999,0.30053711,0.500113579657268,0.4999373813388963,0.4999636944462982,-7.95,27.9,16.5,0.19506836,0.510498045,0.9196777349999999,0.5000364387223237,0.5000087932305709,0.4999415780703492,91.35,0.45,68.55,0.003662109999999984,0.56982422,0.5886230450000001,0.5000691469779043,0.5000814709222855,0.49997628481518974,59.25,21.6,-1.8
0.05346679499999999,0.5358886700000001,0.29736328,0.5000674150004211,0.4999783498887607,0.49994757353812924,-7.2,29.4,17.25,0.20727539,0.5148925799999999,0.9226074200000001,0.5000095926786348,0.5000049295952058,0.4999642940541627,91.8,0.45,69.9,0.00390625,0.5734863299999999,0.5817871099999999,0.5000414349018405,0.5000652833425392,0.499997401990142,59.25,21.6,-1.8
0.03686523499999998,0.5251464849999999,0.28051758,0.5000785398163398,0.50000472966774,0.4999568331206763,-8.55,28.2,17.85,0.20043945500000002,0.506835935,0.91064453,0.5000434999754114,0.4999760849749904,0.49993385071235247,92.4,-0.75,68.7,-0.0012207050000000094,0.5666503900000001,0.5939941400000001,0.5000464976656682,0.500068347617107,0.500009259582547,58.5,21.15,-1.8
0.04077148499999998,0.528808595,0.286132815,0.5000774739437656,0.4999648269904498,0.4999790160809362,-8.55,28.2,17.85,0.19018554499999998,0.51098633,0.9035644549999999,0.5000343736487528,0.499977950208362,0.4999517702695821,91.65,0.75,67.65,0.004394529999999975,0.5637207049999999,0.59326172,0.5000472304421547,0.5000722113397384,0.4999900076409665,59.25,21.15,-1.2
0.03442383000000001,0.5344238299999999,0.28930664,0.5000613529483301,0.5000233820887224,0.4999766179112775,-7.95,28.65,15.75,0.197021485,0.520996095,0.913085935,0.5000329747673573,0.499975885134791,0.4999469073459537,91.35,0.15,67.8,-0.004394529999999975,0.561035155,0.58300781,0.5000390367321818,0.5000944609715758,0.4999743529975072,59.25,21.15,-1.2
0.04565429499999999,0.529296875,0.296875,0.5000525597177592,0.5000141890904864,0.49998987438507814,-6.45,27.9,16.8,0.19506836,0.52392578,0.9147949200000001,0.49999680246954387,0.4999790160809362,0.49995689970498725,90.75,1.65,69.15,-0.010009765000000016,0.5583496099999999,0.5700683599999999,0.5000015988088613,0.5000413016459521,0.4999937381077097,59.4,21.45,-1.65
0.046875,0.5251464849999999,0.30371094,0.5000398361802457,0.5000080604540845,0.5000135229855773,-7.2,29.7,18.3,0.20190429499999998,0.5251464849999999,0.916992185,0.5000178529729187,0.4999898078007671,0.49995563399221365,90.75,1.65,69.15,0.0012207050000000094,0.5573730450000001,0.5827636700000001,0.5000302435016108,0.4999949372361723,0.4999901408968549,58.95,21.6,-2.85
0.04907226500000002,0.5314941400000001,0.302246095,0.5000099256874561,0.5000152549630607,0.4999739533171085,-7.2,29.7,18.3,0.20336914,0.53076172,0.931152345,0.5000337741281548,0.4999634280217879,0.4999523032058692,90.45,-0.3,68.4,-0.014160155000000032,0.5612792950000001,0.5900878900000001,0.5000239150250096,0.49998201377119295,0.4999902741527433,58.8,20.7,-2.7
0.04052734500000003,0.528808595,0.290771485,0.5000130566336013,0.5000143889306857,0.4999782167201388,-7.5,28.95,18.3,0.20654297000000002,0.5341796900000001,0.9140625,0.5000305099261212,0.499986610270311,0.49996262866099045,91.8,-0.15,68.1,0.002197265000000016,0.5549316400000001,0.5788574200000001,0.499988608759571,0.49997248776413555,0.49999393794790903,59.4,19.95,-2.1
0.03564452999999997,0.52392578,0.29223633,0.5000367052341005,0.5000125903688916,0.5000036638824322,-7.5,28.95,16.8,0.20703125,0.5290527349999999,0.908691405,0.5000139226659761,0.499980015281933,0.499971288635673,92.55,-0.45,68.85,0.005126955000000009,0.552246095,0.5783691400000001,0.5000100589433445,0.49999460414008456,0.49997155514744973,59.4,19.95,-2.1
0.0390625,0.525390625,0.29589844,0.5000415015734179,0.5000057955403142,0.49998601074971294,-6.15,27.9,16.8,0.21020508000000002,0.5302734400000001,0.9177246099999999,0.49998547781342584,0.49998454519674007,0.49996575960713563,90.75,-0.45,68.55,0.01049804499999999,0.5588378900000001,0.59033203,0.5000101921992328,0.49999573659696966,0.5000075276050638,59.1,21.0,-3.15
