IMU1_AccX,IMU1_AccY,IMU1_AccZ,IMU1_GyrX,IMU1_GyrY,IMU1_GyrZ,IMU1_MagX,IMU1_MagY,IMU1_MagZ,IMU2_AccX,IMU2_AccY,IMU2_AccZ,IMU2_GyrX,IMU2_GyrY,IMU2_GyrZ,IMU2_MagX,IMU2_MagY,IMU2_MagZ,IMU3_AccX,IMU3_AccY,IMU3_AccZ,IMU3_GyrX,IMU3_GyrY,IMU3_GyrZ,IMU3_MagX,IMU3_MagY,IMU3_MagZ
0.05078125,0.5539550799999999,0.298339845,0.5000438330714992,0.49992712255535254,0.49999293874691225,-7.05,28.5,17.1,0.20434570500000002,0.5383300799999999,0.9060058599999999,0.500009259582547,0.500002131657882,0.49995689970498725,90.15,1.8,68.4,0.004638669999999991,0.540527345,0.5822753900000001,0.5000744096691978,0.5000431668793237,0.4999822136113923,58.95,21.15,-1.2
0.05761718999999999,0.5466308599999999,0.28881836,0.500013856081665,0.4999408452938628,0.4999822136113923,-7.35,27.3,16.35,0.21166991999999998,0.5368652349999999,0.908203125,0.5000152549630607,0.5000157213150367,0.4999407787095518,91.05,0.15,67.8,0.0009765649999999937,0.544921875,0.58154297,0.5000415015734179,0.5000393698282696,0.4999842121006523,58.8,20.7,-1.35
0.05126952999999997,0.5446777349999999,0.28979492,0.5000003996803987,0.4999370482428086,0.4999862105899123,-7.05,27.0,16.05,0.20947265499999998,0.528808595,0.9099121099999999,0.5000056622844258,0.5000091263266587,0.49997655132696656,90.75,0.9,67.05,0.01049804499999999,0.541503905,0.584472655,0.5000396362527799,0.500048762666705,0.49996609261595687,58.8,20.7,-1.35
0.05102539000000002,0.5380859400000001,0.28857422,0.49999160644982776,0.4999644938943621,0.49999400461948645,-6.45,28.65,16.8,0.203125,0.5251464849999999,0.9108886700000001,0.5000001998401994,0.49998740963110844,0.4999630283413891,90.75,0.9,67.05,0.006591794999999991,0.5510253900000001,0.572753905,0.5000582886737623,0.5000536255903334,0.4999832794839665,59.25,19.8,-1.5
0.046875,0.5432128900000001,0.294677735,0.49998141425059495,0.4999792159211356,0.5000001332558884,-6.45,28.65,16.8,0.20556640499999998,0.5207519549999999,0.9045410150000001,0.4999737534769091,0.49997581855048007,0.4999611631080176,91.8,0.45,69.15,-0.004150390000000016,0.5515136700000001,0.5778808599999999,0.5000564900247018,0.49998734304679743,0.4999780834642504,59.25,21.6,-1.5
0.05102539000000002,0.5490722650000001,0.30078125,0.5000269127152663,0.4999831462280781,0.5000063284766012,-6.6,27.75,17.4,0.20043945500000002,0.521484375,0.90673828,0.499993271843,0.49999367152339874,0.4999875428869968,91.35,-0.45,69.6,0.005859375,0.5549316400000001,0.583496095,0.5000650168307623,0.4999996669039123,0.499966558967933,58.05,21.0,-2.4
0.05322265499999997,0.5500488299999999,0.303222655,0.5000114579120064,0.5000031975304562,0.5000091263266587,-7.5,28.2,16.5,0.21240234500000002,0.5173339849999999,0.90576172,0.4999891416958581,0.49998507813302717,0.49999680246954387,91.2,1.05,68.4,0.012207029999999975,0.5568847650000001,0.58251953,0.5000532259099346,0.49999540350088195,0.4999908736733413,58.5,21.15,-1.5
0.04394531499999999,0.552246095,0.30102539,0.4999861439183349,0.5000296439810128,0.499991339938051,-8.25,28.95,17.85,0.20727539,0.51953125,0.9230957049999999,0.4999946707243955,0.49996535983947044,0.4999680911052169,91.2,1.05,68.4,0.00390625,0.5471191400000001,0.5817871099999999,0.5000576224815869,0.4999825467074801,0.4999956033410813,58.35,21.45,-2.1
0.03808593999999999,0.5471191400000001,0.30102539,0.5000057289560033,0.499984611781051,0.49997348696513233,-6.6,27.75,17.1,0.21142577999999998,0.51098633,0.92138672,0.49999766841465226,0.49998414551634135,0.4999623621492137,90.3,-0.15,68.85,0.004394529999999975,0.54248047,0.5920410150000001,0.5000500282922121,0.49996489357476076,0.49996675880813235,58.35,19.5,-1.65
0.030761720000000024,0.5461425799999999,0.295654295,0.5000093928384355,0.49998101457019617,0.49996922356210205,-6.6,27.75,17.1,0.21484375,0.510253905,0.91845703,0.500009326166858,0.49997275418864584,0.4999495053558118,91.05,1.95,67.8,0.006103515000000016,0.533203125,0.59814453,0.5000505612284992,0.4999760849749904,0.4999795490172233,58.35,19.5,-1.65
0.03247070500000001,0.5441894549999999,0.29345703,0.5000243812897193,0.5000250474818948,0.4999607634276188,-6.45,28.65,17.55,0.21728515499999998,0.5183105450000001,0.9201660150000001,0.5000085933903716,0.49999873428722647,0.49997488593379424,91.35,-0.15,67.5,0.016601564999999995,0.5334472650000001,0.5871582049999999,0.5000647504062521,0.5000181860690064,0.4999875428869968,59.1,19.5,-1.35
0.029052734999999986,0.5476074200000001,0.294677735,0.5000032642020336,0.49999247239493616,0.4999762182308788,-7.5,29.4,16.2,0.21435547000000002,0.52685547,0.91894531,0.49999886754311484,0.4999795490172233,0.49995689970498725,91.35,-0.15,67.5,-0.0026855449999999906,0.5251464849999999,0.6015625,0.5000666156396236,0.5000131233051787,0.49997934917702397,59.1,19.5,-1.35
0.03271484500000003,0.5524902349999999,0.299072265,0.5000264463632902,0.49997188824353755,0.4999856776536252,-6.9,28.2,17.25,0.217041015,0.5163574200000001,0.91503906,0.5000046630834291,0.49998347932416587,0.49995689970498725,90.45,0.75,68.7,0.008789064999999993,0.53564453,0.5925292950000001,0.5000760750623701,0.5000045298275406,0.49995263630195697,59.1,19.5,-1.35
0.03955077999999997,0.5588378900000001,0.303222655,0.500005262604027,0.4999804816339091,0.4999570995451866,-6.9,28.2,17.25,0.212646485,0.525390625,0.921875,0.49999213938611486,0.5000082602942838,0.49995290272646725,91.8,1.2,69.15,0.007080080000000009,0.5275878900000001,0.6008300799999999,0.5000960596931707,0.5000120574326045,0.4999986677029155,59.4,21.45,-2.7
0.046875,0.552246095,0.31567383,0.5000193185258915,0.5000082602942838,0.4999543682794401,-5.7,28.95,17.25,0.21582031499999998,0.5207519549999999,0.91503906,0.49997928250544654,0.5000025314255471,0.499946574249866,92.4,0.3,69.45,0.0029296899999999935,0.53466797,0.59082031,0.5000822702830829,0.4999878759830846,0.4999826799633685,59.25,21.6,-2.25
0.05200195500000001,0.54736328,0.309814455,0.5000428338705024,0.4999822136113923,0.49998760947130777,-6.3,27.3,17.4,0.212890625,0.50488281,0.912109375,0.5000013322970845,0.5000029976902568,0.49993171896720406,91.65,0.3,68.4,0.0068359399999999935,0.5339355450000001,0.6018066400000001,0.5001043200747209,0.4999737534769091,0.4999847450369394,58.8,21.0,-2.1
0.04956054499999999,0.5451660150000001,0.30834961,0.5000245145456076,0.5000141225061755,0.49993431697706214,-7.35,29.55,16.35,0.21411133000000002,0.50488281,0.920410155,0.4999970688940542,0.5000249808975838,0.49994564163318017,91.95,1.05,68.4,0.01635741999999999,0.53857422,0.59716797,0.5000951270764848,0.5000044632432297,0.4999956033410813,58.95,20.55,-2.25
0.04931640499999997,0.54296875,0.30395508,0.5000166539317226,0.500007327677598,0.4999713553072504,-7.35,27.75,18.15,0.22021484500000002,0.5,0.9255371099999999,0.5000009326166858,0.5000197182062902,0.4999195283659777,92.4,-0.3,67.95,0.02270508000000001,0.5397949200000001,0.5852050799999999,0.5000973254059442,0.5000801386252011,0.4999624288207911,58.95,20.55,-2.25
0.04125976500000002,0.5368652349999999,0.30419922,0.5000602871630224,0.49998827566348325,0.49998641043011166,-7.35,27.75,18.15,0.22534179499999998,0.505859375,0.93017578,0.5000151883787497,0.5000001998401994,0.49993171896720406,92.4,-0.3,67.95,0.00048827999999997475,0.5432128900000001,0.58251953,0.5000851347174513,0.5000943277156874,0.4999736202210207,60.15,21.45,-0.6
0.04028320500000001,0.532714845,0.29272461,0.500042101094016,0.4999811477388181,0.4999830130594562,-6.6,29.25,16.65,0.22241211,0.50854492,0.9206542950000001,0.5000049961795168,0.4999804816339091,0.4999334510319538,90.9,0.0,67.95,0.006347654999999975,0.55810547,0.587402345,0.50008753288711,0.5000611531081308,0.4999538353431531,60.15,21.45,-0.6
0.04394531499999999,0.5363769549999999,0.291748045,0.5000542251109314,0.49998780931150716,0.49999094025765234,-7.05,27.3,16.05,0.22119140499999998,0.506347655,0.919433595,0.5000429004548135,0.49998241345159167,0.4999201944708867,90.75,-0.15,68.85,0.013671875,0.5478515650000001,0.59472656,0.5001059187963158,0.5000550244717289,0.4999970023097432,59.25,20.1,-2.55
0.05590820500000001,0.5380859400000001,0.29223633,0.500079605688914,0.49997455283770653,0.4999656929355582,-7.2,27.15,16.8,0.21923827999999998,0.5,0.92285156,0.5000238483534322,0.4999780168799394,0.4999236585131196,89.85,-0.3,68.7,0.011230470000000025,0.5603027349999999,0.5803222650000001,0.5001040535629442,0.50008953137637,0.49999127335374005,58.2,21.15,-3.3
0.05786133000000001,0.532714845,0.306396485,0.5000600206512457,0.500007327677598,0.4999588315226698,-7.2,27.15,16.8,0.213134765,0.502929685,0.9235839849999999,0.5000209839190638,0.4999658261914466,0.4999215267679712,89.85,-0.3,68.7,0.007324220000000025,0.55419922,0.5876464849999999,0.5001013223844641,0.5000708123710765,0.49998994105665556,58.8,20.7,-2.1
0.05957031499999999,0.54345703,0.302978515,0.5000871998782888,0.4999988009588039,0.4999830130594562,-6.15,26.7,15.15,0.212890625,0.505126955,0.9240722650000001,0.5000398361802457,0.49994617456946727,0.4999216600238596,92.55,-0.45,69.15,0.0007324199999999905,0.549316405,0.5866699200000001,0.5000546914629076,0.5000662825435359,0.5000065283168006,60.15,21.0,-1.35
0.05566406499999999,0.5390625,0.31274414,0.5001031209462583,0.4999780834642504,0.49999646937345615,-7.2,27.15,16.8,0.21459961,0.505126955,0.928222655,0.5000394364125805,0.4999317856387815,0.4999040734754513,90.3,-1.2,69.9,-0.0012207050000000094,0.546875,0.58642578,0.5000389701478708,0.5000720114995392,0.4999852113016491,58.35,21.0,-1.65
0.05346679499999999,0.54248047,0.310546875,0.5000999234158022,0.49999800151074,0.49998341273985486,-7.65,28.5,17.7,0.21215820500000002,0.5183105450000001,0.931640625,0.5000331746075567,0.49993158579858216,0.4998986776155358,90.3,-1.2,69.9,0.0012207050000000094,0.5537109400000001,0.5915527349999999,0.5000280451721515,0.5000297771496347,0.4999852113016491,58.2,19.8,-2.55
0.04589843999999999,0.5451660150000001,0.30932617,0.5000868001106236,0.5000243147054083,0.4999515038450718,-6.15,27.15,16.2,0.22167968999999998,0.5236816400000001,0.9323730450000001,0.5000469640176444,0.4999529693980447,0.4999141990903732,90.3,-0.45,69.15,0.007324220000000025,0.5490722650000001,0.5954589849999999,0.5000255137466044,0.49999307200280063,0.4999855443977368,58.2,19.8,-2.55
0.04760741999999999,0.5417480450000001,0.309814455,0.5001008560324881,0.4999901408968549,0.4999689571375917,-6.15,27.15,16.2,0.220703125,0.5246582049999999,0.92675781,0.5000373713390096,0.4999475068665518,0.4999102021118532,90.75,-0.15,69.15,0.010253904999999975,0.54638672,0.591308595,0.5000399693488676,0.49998900843996974,0.4999807480584194,59.4,19.5,-3.15
0.03881835999999998,0.5383300799999999,0.30126953,0.5000724111799378,0.5000003996803987,0.49997035601898715,-5.25,26.25,17.1,0.21826172000000002,0.5227050799999999,0.924804685,0.5000327749271579,0.49996849078561556,0.49991959495028865,91.2,-0.75,70.05,0.01171875,0.552734375,0.588867185,0.5000530260697353,0.4999944042998852,0.4999910069292297,59.4,19.5,-3.15
0.03784179499999999,0.533691405,0.29223633,0.5000830696438804,0.5000119241767161,0.49993831395558214,-6.6,26.55,17.1,0.22265625,0.5222167950000001,0.924316405,0.5000325084153812,0.4999710222111627,0.49990220824207965,91.2,-0.75,70.05,0.008300779999999975,0.5568847650000001,0.5910644549999999,0.500035439521327,0.4999836791643652,0.4999993338078245,59.85,19.2,-2.7
0.03173827999999997,0.5222167950000001,0.293945315,0.500108916573839,0.4999826799633685,0.49994304362332215,-6.45,27.15,18.3,0.21801758000000002,0.5187988299999999,0.9221191400000001,0.5000235153446109,0.4999719548278485,0.49989981007242096,90.45,-0.75,68.7,0.00048827999999997475,0.5458984400000001,0.5939941400000001,0.5000523598775598,0.5000085933903716,0.49998727637522006,58.8,19.95,-3.15
0.03393554499999999,0.51904297,0.28857422,0.5001175765485215,0.49997735068776394,0.49995170368527114,-6.45,27.15,18.3,0.21191406499999998,0.5251464849999999,0.9274902349999999,0.5000321753192934,0.499984678365362,0.49991832923751506,90.75,-0.15,69.15,0.006103515000000016,0.546875,0.5939941400000001,0.5000106584639425,0.5000359724576141,0.5000032642020336,59.85,19.5,-1.65
0.03417968999999999,0.505859375,0.299560545,0.5000991906393157,0.4999902741527433,0.49991959495028865,-6.9,27.15,16.2,0.21606445500000002,0.5124511700000001,0.9230957049999999,0.5000075276050638,0.49997055585918654,0.49992012788657575,90.45,-0.3,69.0,0.0007324199999999905,0.5437011700000001,0.5925292950000001,0.5000429670391244,0.5000205842386651,0.4999679578493285,58.35,20.25,-1.35
0.03955077999999997,0.501464845,0.298828125,0.5001179762289203,0.49998188051530457,0.4999576324814737,-6.0,28.8,17.4,0.21337890499999998,0.51098633,0.919921875,0.49999660262934453,0.4999630283413891,0.499928521436748,90.75,-0.9,70.35,-0.0009765600000000063,0.5390625,0.592773435,0.5000108583041419,0.500012790209091,0.49997308728473366,60.0,19.8,-3.6
0.03686523499999998,0.50073242,0.310302735,0.5001085168061739,0.4999583652579601,0.4999736202210207,-6.45,28.2,16.5,0.224853515,0.5197753900000001,0.92529297,0.5000137228257767,0.49997035601898715,0.4999140658344848,92.4,-1.8,68.7,0.009521484999999984,0.5437011700000001,0.5842285150000001,0.50002617993878,0.5000131233051787,0.4999708889552743,58.35,19.5,-1.65
0.04418945500000001,0.5075683599999999,0.30859375,0.5000816707624849,0.49998867534388197,0.49995276955784534,-6.6,26.25,16.65,0.23046875,0.5017089849999999,0.92626953,0.5000103254551213,0.49995743264127435,0.4999283881808596,91.35,-0.15,69.15,0.004394529999999975,0.5505371099999999,0.56982422,0.5000277787476413,0.5000329080957798,0.4999692902336795,58.35,19.5,-1.65
0.04028320500000001,0.5173339849999999,0.31713867,0.5000780734643636,0.49995963097073365,0.4999381141153828,-6.6,26.25,16.65,0.21044922000000002,0.506347655,0.9099121099999999,0.5000341072242425,0.5000480298902186,0.4999293874691228,91.35,-0.15,69.15,0.0048828149999999935,0.5495605450000001,0.5783691400000001,0.5000425007744147,0.5000099256874561,0.4999806148897975,58.35,19.5,-1.65
0.03759765499999997,0.505371095,0.310546875,0.5000670819043334,0.4999592312030685,0.4999859440781355,-6.6,26.25,16.65,0.23461914,0.502441405,0.928222655,0.5000315092143844,0.5000097258472568,0.49994650766555504,91.05,-1.65,69.15,0.007324220000000025,0.5466308599999999,0.57421875,0.5000233155044115,0.5000083935501722,0.4999622289805918,59.25,20.85,-1.8
0.03295898499999998,0.505371095,0.30444336,0.5000292443006141,0.4999814808349059,0.499959897395244,-6.0,24.75,16.05,0.22729491999999998,0.51074219,0.931640625,0.5000343736487528,0.499993405011622,0.49994044561346407,93.0,-1.5,67.95,0.008789064999999993,0.5439453150000001,0.573242185,0.499986610270311,0.5000185191650941,0.4999998667441116,58.5,20.1,-2.85
0.03125,0.51123047,0.30004883,0.500055424239394,0.49996416079827427,0.499955234311815,-5.7,28.2,16.5,0.22290039,0.5153808599999999,0.9172363299999999,0.5000228491524354,0.4999760849749904,0.49994217767821375,92.1,0.45,69.9,0.011474609999999984,0.5480957049999999,0.5695800799999999,0.49998361258005425,0.5000095926786348,0.4999640942139633,57.9,19.8,-0.75
0.03247070500000001,0.49975586,0.301757815,0.500044099583276,0.49996742500030783,0.4999862105899123,-5.55,27.0,15.6,0.22387695500000002,0.513183595,0.919921875,0.500009259582547,0.5000019318176826,0.49996122969232853,91.8,-2.4,68.55,0.01171875,0.5437011700000001,0.5744628900000001,0.4999802151221323,0.5000037304667432,0.49996749158461884,58.35,19.95,-2.4
0.03955077999999997,0.5056152349999999,0.30053711,0.5000041968187193,0.4999815475064833,0.49996016381975433,-5.55,27.0,15.6,0.21533202999999998,0.51220703,0.9250488299999999,0.5000085268060606,0.5000018652333716,0.49995610034418986,90.9,-2.25,68.55,0.010253904999999975,0.548828125,0.5822753900000001,0.4999662924561562,0.5000193185258915,0.4999746860935949,59.25,20.85,-3.6
0.03955077999999997,0.5080566400000001,0.305664065,0.5000205842386651,0.49997182157196013,0.49997082237096335,-6.6,26.55,17.7,0.21386718999999998,0.5166015650000001,0.9284667950000001,0.500002131657882,0.5000156546434593,0.499988608759571,90.0,-2.25,69.0,0.00024414000000001578,0.549316405,0.571777345,0.49996276182961236,0.5000323751594928,0.4999762182308788,58.2,20.1,-2.55
0.03955077999999997,0.502929685,0.302734375,0.5000009992009967,0.49998307964376715,0.49996675880813235,-6.15,26.7,16.8,0.21557616999999998,0.520996095,0.9299316400000001,0.4999901408968549,0.49997182157196013,0.49996296175707816,90.0,-1.65,67.8,-0.002197265000000016,0.5617675799999999,0.5666503900000001,0.49994923893130144,0.5000178529729187,0.4999824801231691,58.2,20.1,-2.55
0.03833008000000001,0.49853515499999995,0.28833008,0.4999928721626013,0.500007327677598,0.49993951299677825,-6.45,25.35,17.25,0.21826172000000002,0.5146484400000001,0.92675781,0.49998760947130777,0.5000029311059457,0.49999993341568905,90.0,-1.65,67.8,-0.0017089849999999843,0.564453125,0.5734863299999999,0.4999229923209441,0.49998441194085164,0.5000003330960877,58.8,19.95,-2.4
0.03344726500000002,0.49658202999999995,0.28833008,0.49999114009785167,0.49998081472999684,0.4999883422477942,-6.45,25.65,16.5,0.21728515499999998,0.513183595,0.9182128900000001,0.49995949771484527,0.49996649238362206,0.4999919395459155,89.85,-1.05,69.75,-0.0009765600000000063,0.5568847650000001,0.575683595,0.4999046730833158,0.49997382006122004,0.4999887419281929,58.8,19.95,-2.4
0.027587890000000014,0.490478515,0.293945315,0.5000040635628309,0.49999920063920256,0.49996396095807494,-6.45,25.65,16.5,0.21582031499999998,0.506835935,0.9191894549999999,0.49996129636390596,0.4999771508475646,0.5000269127152663,90.9,-0.3,68.7,0.0026855449999999906,0.556640625,0.571777345,0.4999016753057926,0.49996309492570007,0.49999020748116585,58.2,19.8,-1.5
0.031005859999999986,0.491210935,0.298095705,0.49999420445968584,0.5000121906884929,0.4999652932551594,-6.3,26.25,16.35,0.212890625,0.510498045,0.9147949200000001,0.49996129636390596,0.49996276182961236,0.5000178529729187,89.85,-0.75,70.5,0.0034179700000000254,0.54736328,0.5861816400000001,0.49986890046590104,0.4999356492741467,0.4999731538690446,58.35,19.95,-3.15
0.048828125,0.48144531,0.310058595,0.5000222496318373,0.5000137228257767,0.4999856776536252,-6.6,26.25,16.35,0.21997070500000002,0.502929685,0.92236328,0.49995623351281177,0.4999847450369394,0.5000399027645567,89.85,-0.75,70.5,0.012695314999999993,0.5500488299999999,0.5842285150000001,0.4998592412029553,0.4999294540534338,0.4999636944462982,60.15,19.2,-3.15
0.04028320500000001,0.489501955,0.30493164,0.5000243147054083,0.5000292443006141,0.5000033973706555,-6.3,25.5,17.4,0.21166991999999998,0.501220705,0.9245605450000001,0.4999660260316459,0.49998507813302717,0.5000237151848103,91.35,-2.4,70.65,0.007080080000000009,0.546875,0.5847167950000001,0.49989528024488034,0.4999493055156124,0.49997455283770653,59.1,20.25,-1.65
0.041015625,0.489990235,0.306640625,0.5000061952207129,0.5000502948039889,0.49997828330444977,-6.3,25.5,17.4,0.220947265,0.509033205,0.927734375,0.49997322054062204,0.5000110582316077,0.5000312427026077,90.0,-2.7,69.6,0.005615234999999984,0.52685547,0.5930175799999999,0.49987556203859007,0.5000080604540845,0.49997894949662525,58.2,20.55,-1.5
0.03881835999999998,0.49853515499999995,0.30029297,0.5000077274452632,0.5000357726174147,0.49996555976693624,-4.95,27.75,16.35,0.213134765,0.502441405,0.9230957049999999,0.4999652932551594,0.500013389729689,0.5000645505660527,90.0,-2.7,69.6,0.0048828149999999935,0.5283203150000001,0.5935058599999999,0.49987842647295844,0.49996782468070655,0.49995303598235563,58.8,20.7,-1.65
0.03662109500000003,0.49145508,0.28833008,0.5000057955403142,0.5000341072242425,0.5000017986490606,-6.3,27.0,16.35,0.21777343999999998,0.498291015,0.92626953,0.4999493055156124,0.4999993338078245,0.5000566232805902,90.0,-1.2,69.15,0.0048828149999999935,0.5241699200000001,0.592285155,0.4998851546299584,0.49994337671940986,0.49997428641319624,58.8,20.7,-1.65
0.026855470000000024,0.49682617,0.291748045,0.4999811477388181,0.5000389035635598,0.499975885134791,-6.9,26.4,15.75,0.21191406499999998,0.49755859500000005,0.93066406,0.4999415780703492,0.49999606969305743,0.5000406355410432,91.05,-0.45,70.65,0.004150390000000016,0.52734375,0.5915527349999999,0.49987129863555974,0.49998041504959817,0.49997994869762197,58.95,19.05,-0.75
0.028808595000000024,0.5017089849999999,0.287841795,0.4999982680225168,0.5000257135868038,0.4999952036606826,-6.15,26.1,17.25,0.21923827999999998,0.4921875,0.924804685,0.49995583383241304,0.5000224494720368,0.5000381707870735,91.2,-1.05,70.8,-0.01049804499999999,0.529296875,0.5959472650000001,0.499879092665134,0.4999698230827001,0.49996882388170333,58.05,20.25,-2.4
0.03173827999999997,0.49926758,0.29370117,0.4999942710439968,0.5000174532925199,0.49999840119113875,-6.15,26.1,17.25,0.22558593999999998,0.47705077999999995,0.92626953,0.49996695864833174,0.5000015988088613,0.5000523598775598,91.2,-1.05,70.8,-0.002197265000000016,0.529785155,0.5993652349999999,0.4998617059569249,0.49996782468070655,0.4999814808349059,58.95,20.55,-1.8
0.03393554499999999,0.493896485,0.294921875,0.49995323582255496,0.5000399027645567,0.49997055585918654,-6.15,26.7,16.5,0.21948241999999998,0.47631836,0.9328613299999999,0.49997994869762197,0.5000036638824322,0.5000527595579586,90.15,-1.8,69.45,0.0078125,0.525878905,0.60253906,0.4998936148517081,0.4999455750488692,0.4999764180710781,57.9,18.6,-1.2
0.03149414000000002,0.483154295,0.29589844,0.4999784831446491,0.500015388218949,0.49998887518408136,-7.05,25.8,17.1,0.23120116999999998,0.478515625,0.9274902349999999,0.4999844785251626,0.49999886754311484,0.5000413683175295,91.35,-1.65,70.65,0.0029296899999999935,0.521972655,0.599609375,0.49990187514599194,0.499957898905984,0.49998634375853424,58.95,19.8,-2.25
0.04345702999999997,0.48681640499999995,0.30859375,0.4999680911052169,0.4999986010313381,0.5000275122358644,-6.0,27.0,18.45,0.22558593999999998,0.48095702999999995,0.9182128900000001,0.4999822802829697,0.5000212503435741,0.500026779459378,90.75,-1.95,69.15,0.0068359399999999935,0.5275878900000001,0.60107422,0.4998840888446507,0.49992798850046083,0.49998601074971294,60.0,19.8,-1.2
0.04809570500000001,0.493408205,0.3203125,0.49994390965569696,0.5000071278373986,0.5000004663519761,-6.0,27.0,18.45,0.23120116999999998,0.493896485,0.919433595,0.49999473739597294,0.5000099923590335,0.500053425750134,90.45,-2.25,68.7,0.010253904999999975,0.5197753900000001,0.6015625,0.49989288207522165,0.4999203277267751,0.49998241345159167,60.0,19.8,-1.2
0.05493164000000002,0.498046875,0.315185545,0.4999908736733413,0.49999593643716905,0.5000233820887224,-5.55,25.8,16.65,0.23583984500000002,0.50390625,0.927734375,0.49998840891937163,0.5000055957001148,0.5000562236001914,91.2,-3.3,70.05,0.017578125,0.5146484400000001,0.6052246099999999,0.4998855543976236,0.500008660061949,0.5000168537719218,59.25,19.35,-1.8
0.04931640499999997,0.497802735,0.314941405,0.4999762182308788,0.4999812144103955,0.500075475541772,-7.5,26.4,16.2,0.23730468999999998,0.5,0.9348144549999999,0.4999840788447639,0.5000027978500574,0.5000652833425392,91.2,-1.5,70.05,0.0068359399999999935,0.5139160150000001,0.588378905,0.499886353758421,0.5000283115966618,0.49998008195351035,59.25,19.35,-1.8
0.04638672000000003,0.494140625,0.307128905,0.4999818139309936,0.5000165872601451,0.5000206508229761,-6.0,27.0,16.65,0.23291015499999998,0.49291992,0.9357910150000001,0.49998641043011166,0.5000300436614116,0.5000394364125805,91.2,-1.5,70.05,0.010742189999999993,0.5153808599999999,0.59765625,0.49991013552754227,0.5000129900492903,0.5000021983294594,59.25,19.35,-1.8
0.04028320500000001,0.49072265499999995,0.30444336,0.49995456811963945,0.49998534455753746,0.5000689471377049,-7.05,26.55,16.65,0.23559570500000002,0.490478515,0.935546875,0.4999997335754897,0.5000442994234754,0.5000587549384721,90.75,-0.45,69.6,0.005615234999999984,0.5119628900000001,0.5988769549999999,0.4999050727637145,0.5000208506631754,0.5000083269658613,58.35,19.5,-1.65
0.024414064999999995,0.49365234500000005,0.302734375,0.4999940712037974,0.4999802151221323,0.5000573560570766,-7.05,26.55,16.65,0.23046875,0.477783205,0.932617185,0.5000031975304562,0.5000291110447257,0.5000762749025695,91.65,-1.05,69.75,0.00903320500000001,0.5234375,0.599121095,0.4999189954296906,0.5000209839190638,0.5000015321372838,59.7,19.35,-0.75
0.01831054499999999,0.490478515,0.30102539,0.499951237333295,0.4999661592875343,0.5000205176543542,-7.2,26.1,15.45,0.23095702999999998,0.487304685,0.9296875,0.4999989341274258,0.5000352396811276,0.5000412350616411,92.7,-1.8,70.05,0.009521484999999984,0.52001953,0.5988769549999999,0.49990886981476873,0.5000040635628309,0.5000101921992328,60.15,20.7,-0.6
0.019775390000000014,0.5144042950000001,0.30078125,0.49997635148676717,0.4999775505279633,0.5000442994234754,-6.0,26.25,16.65,0.23876952999999998,0.49291992,0.9348144549999999,0.5000255137466044,0.500042767198925,0.5000472304421547,92.1,-0.15,70.65,0.0078125,0.5222167950000001,0.60253906,0.4999449755282711,0.49997095562685173,0.5000059953805135,58.5,19.8,-1.5
0.03808593999999999,0.5126953150000001,0.30395508,0.49997508577399363,0.4999335842005757,0.5000299104055231,-6.9,26.4,16.5,0.234375,0.49145508,0.919433595,0.5000273123956651,0.5000525597177592,0.5000391699880702,91.95,-0.3,70.05,0.01171875,0.5217285150000001,0.5974121099999999,0.4999373813388963,0.5000161209954355,0.4999835459084768,59.25,20.1,-1.5
0.04565429499999999,0.5126953150000001,0.305664065,0.4999522366215582,0.4999606301717304,0.5000129234649794,-6.9,26.4,16.5,0.232666015,0.49560547000000005,0.91894531,0.5000223828877257,0.5000492955157256,0.5000203843984657,90.15,-2.25,69.45,0.006591794999999991,0.5341796900000001,0.596679685,0.4999415780703492,0.5000281117564624,0.5000155880591484,59.25,19.05,-1.5
0.04956054499999999,0.514160155,0.31567383,0.4999473070263524,0.49998720979090905,0.4999997335754897,-6.45,25.65,17.55,0.23168945500000002,0.49633789,0.93310547,0.5000048629236283,0.5000711454671642,0.5000701462661675,90.15,-2.25,69.45,0.00390625,0.5187988299999999,0.5925292950000001,0.4999473070263524,0.500019984718067,0.4999908736733413,59.25,19.05,-1.5
0.05566406499999999,0.513183595,0.31274414,0.4999637611178756,0.49995456811963945,0.5000472304421547,-7.35,27.75,16.65,0.22192383000000002,0.5134277349999999,0.935058595,0.5000211837592632,0.5000656163513604,0.5000573560570766,89.55,0.45,70.65,0.005859375,0.5295410150000001,0.60253906,0.49996349460609885,0.49998141425059495,0.5000218499514386,59.25,20.85,-1.8
0.04760741999999999,0.5114746099999999,0.30517578,0.4999499050362105,0.49999367152339874,0.4999962029489458,-6.45,25.65,17.25,0.21582031499999998,0.5021972650000001,0.9206542950000001,0.5000283782682392,0.5000461646568469,0.5000640176297656,90.15,-1.05,69.45,0.005126955000000009,0.5295410150000001,0.6057128900000001,0.49996309492570007,0.49998234686728066,0.5000175865484083,59.25,20.85,-1.8
0.04028320500000001,0.50390625,0.30834961,0.4999297871495215,0.4999806148897975,0.5000119241767161,-6.3,25.5,17.4,0.21850586,0.50439453,0.9255371099999999,0.5000187855896044,0.5000625520767927,0.5000482963147289,91.8,-1.2,70.35,0.00024414000000001578,0.5310058599999999,0.603027345,0.49996249540510207,0.5000049295952058,0.5000199180464896,58.2,20.55,-1.5
0.03198241999999999,0.51074219,0.298583985,0.49993105286229506,0.49997495251810525,0.5000306431820095,-6.3,25.5,17.4,0.21997070500000002,0.5139160150000001,0.92529297,0.5000284448525503,0.5000406355410432,0.5000562901845024,91.8,-1.2,70.35,0.0017089849999999843,0.5400390650000001,0.5969238299999999,0.4999549012157273,0.5000020650735709,0.5000147220267734,59.4,20.25,-1.05
0.023193359999999986,0.5134277349999999,0.30029297,0.49992099383168415,0.5000127236247799,0.5000325084153812,-6.3,25.5,17.4,0.2109375,0.521484375,0.920898435,0.5000209839190638,0.5000456983048708,0.5000361722978134,91.2,0.3,69.0,0.007568359999999984,0.5412597650000001,0.6018066400000001,0.49993458348883896,0.5000080604540845,0.50000199848926,58.05,21.45,-1.05
0.03662109500000003,0.5119628900000001,0.29663086,0.4999269892994641,0.49999540350088195,0.5000377044350973,-6.45,26.7,16.8,0.21337890499999998,0.51904297,0.9255371099999999,0.5000157878993476,0.5000373047546985,0.5000672151602218,92.1,0.45,68.85,0.0078125,0.5480957049999999,0.5979003900000001,0.4999407787095518,0.5000196516219793,0.49999213938611486,59.7,20.1,-1.5
0.03881835999999998,0.50708008,0.302001955,0.4999406454536634,0.4999583652579601,0.5000373047546985,-6.9,26.1,16.8,0.20996093999999998,0.5114746099999999,0.916992185,0.5000149885385503,0.5000184524935167,0.5000720780838501,92.1,0.45,68.85,0.0017089849999999843,0.5471191400000001,0.600097655,0.4999360490418118,0.49999553675677033,0.5000177197170302,59.7,20.1,-1.5
0.05639648499999998,0.5080566400000001,0.297851565,0.4999298537338325,0.5000197182062902,0.5000234486730334,-7.05,25.05,16.05,0.209228515,0.51904297,0.924316405,0.49998960796056774,0.500030776437898,0.5000925957382042,92.1,0.45,68.85,-0.002197265000000016,0.541503905,0.60107422,0.49990820370985967,0.4999676914248182,0.500009326166858,59.85,21.75,-1.65
0.05444335999999998,0.5061035150000001,0.29736328,0.4999134663138867,0.5000384372115838,0.500034840000729,-7.05,25.05,16.05,0.212646485,0.5207519549999999,0.9216308599999999,0.4999940712037974,0.5000311761182967,0.5000925957382042,91.35,-0.45,69.9,-0.00024414000000001578,0.54638672,0.603027345,0.499926456363177,0.4999746860935949,0.5000208506631754,59.85,21.75,-1.65
0.04589843999999999,0.5017089849999999,0.30541992,0.4999490390911021,0.5000137228257767,0.5000500282922121,-5.4,26.1,16.5,0.20434570500000002,0.515625,0.928710935,0.4999862105899123,0.5000257802583812,0.5000844020282313,90.75,1.2,70.35,0.0014648450000000254,0.5480957049999999,0.600097655,0.49990620522059964,0.49997388664553105,0.5000259135142696,58.95,20.55,-0.45
0.02270508000000001,0.50463867,0.29980469,0.49994004593306535,0.500024647801496,0.5000377710194083,-7.35,26.55,16.65,0.20556640499999998,0.50830078,0.91748047,0.5000202511425773,0.5000230489926347,0.500091596449941,91.2,-0.3,68.7,-0.00048827999999997475,0.5451660150000001,0.5964355450000001,0.4999176631326061,0.4999600306511324,0.5000290443731483,58.8,20.25,0.3
0.018554689999999995,0.5185546900000001,0.293945315,0.4999493055156124,0.5000177197170302,0.5000178529729187,-5.4,27.15,15.75,0.21240234500000002,0.5148925799999999,0.9250488299999999,0.4999843453565407,0.4999982680225168,0.5001063185639809,91.2,-0.3,68.7,0.007080080000000009,0.5422363299999999,0.6091308599999999,0.49989341501150875,0.49996682539244336,0.5000608866836205,60.0,20.1,-1.8
0.02612304499999999,0.5187988299999999,0.29248047,0.49994710718615304,0.499984611781051,0.5000434333911005,-6.45,27.9,16.5,0.22143554499999998,0.5192871099999999,0.9187011700000001,0.4999962695332568,0.500022049791638,0.5001191087730719,91.2,0.75,68.7,0.008056640000000016,0.536621095,0.592285155,0.4998952136605694,0.49999946706371295,0.5000321087349825,58.35,21.0,-1.35
0.03149414000000002,0.5275878900000001,0.291503905,0.49991573122765703,0.49998987438507814,0.500033507616378,-6.45,27.9,16.5,0.213134765,0.501953125,0.92675781,0.49999313858711164,0.5000332411918677,0.5000923292264274,90.9,-2.25,69.0,0.009521484999999984,0.541503905,0.591796875,0.49987189815615785,0.5000230489926347,0.5000225160563477,58.35,21.75,-1.65
0.03613281499999999,0.5256347650000001,0.28808594,0.4999199280463764,0.49998141425059495,0.5000311761182967,-7.95,27.45,17.55,0.21606445500000002,0.510253905,0.9172363299999999,0.4999682909454162,0.5000416347420399,0.5001076508610655,90.3,-0.15,69.6,0.017578125,0.5437011700000001,0.5910644549999999,0.49988142416321524,0.4999948039802839,0.5000329747673573,59.85,20.25,-1.05
0.04150390499999997,0.520996095,0.28588867,0.4999439762400079,0.49996535983947044,0.5000351730095501,-5.55,28.05,17.1,0.20581054499999998,0.505371095,0.9118652349999999,0.4999880091517065,0.5000255804181818,0.5001324318311835,90.0,1.2,68.85,0.0009765649999999937,0.537597655,0.6057128900000001,0.4998795589298436,0.4999811477388181,0.5000301769172999,59.85,20.25,-1.05
0.04199218999999999,0.5339355450000001,0.282714845,0.4999213935993493,0.5000053292756045,0.5000167871003445,-7.05,25.5,16.05,0.205322265,0.51953125,0.9099121099999999,0.4999838790045646,0.5000414349018405,0.5001151117945518,90.9,-1.05,68.7,0.0024414049999999746,0.54638672,0.609375,0.49989581318116744,0.5000103920394322,0.500044765688185,59.85,20.25,-1.05
0.04125976500000002,0.533203125,0.287353515,0.4999141325060622,0.5000077274452632,0.5000279785878405,-7.05,25.5,16.05,0.20190429499999998,0.521484375,0.92626953,0.49998341273985486,0.5000195183660909,0.5001053192757177,90.9,0.3,69.75,0.00048827999999997475,0.53466797,0.5895996099999999,0.49987949234553264,0.5000273789799761,0.5000114579120064,58.8,19.95,-1.65
0.05615234500000003,0.5285644549999999,0.30444336,0.499931119446606,0.49999527033226004,0.5000578223217863,-8.55,27.45,17.25,0.19995116999999998,0.52392578,0.923339845,0.49999080700176385,0.49999746857445293,0.500131699054697,90.9,0.3,69.75,0.00048827999999997475,0.537597655,0.591796875,0.49988648701430943,0.5000351064252392,0.5000192519415806,58.8,19.95,-1.65
0.05908202999999997,0.529785155,0.303466795,0.4999182626532041,0.5000343736487528,0.5000365719782122,-6.45,26.7,17.25,0.20654297000000002,0.509033205,0.92626953,0.4999654930953588,0.5000024647539697,0.5001114479121196,91.05,1.2,69.6,0.007568359999999984,0.5305175799999999,0.60107422,0.4998700329227862,0.5000393698282696,0.5000213835994626,58.5,20.55,-0.75
0.05712890499999997,0.5378417950000001,0.302001955,0.49992372509743055,0.5000484295706172,0.5000243147054083,-7.2,27.45,16.5,0.20605468999999998,0.506347655,0.92236328,0.499984611781051,0.49997648465538913,0.500109049742461,89.55,0.15,69.9,0.0007324199999999905,0.5270996099999999,0.5812988299999999,0.4998868200231307,0.5000598874826238,0.5000353062654386,58.35,21.0,0.0
0.05541991999999999,0.5439453150000001,0.293945315,0.49993311793586603,0.5000279119162632,0.5000371049144993,-6.3,27.75,16.35,0.21020508000000002,0.49658202999999995,0.9162597650000001,0.49998441194085164,0.49999993341568905,0.5001167771877242,91.35,1.2,69.6,0.0,0.5207519549999999,0.5859375,0.4998754287827017,0.5000393032439586,0.5000536255903334,58.8,22.2,-1.05
0.05615234500000003,0.5341796900000001,0.29199219,0.49990160872148165,0.5000465643372457,0.5000129234649794,-6.3,27.75,16.35,0.21630859500000002,0.489990235,0.904785155,0.4999435765596092,0.49998361258005425,0.5001197748779809,91.05,0.45,68.55,0.011962890000000016,0.51904297,0.5920410150000001,0.4998929486595326,0.5000165206758341,0.5000397695086682,59.25,20.85,-0.15
0.05615234500000003,0.5329589849999999,0.28466797,0.4999140658344848,0.5000620857248166,0.49998794256739554,-6.45,28.2,16.5,0.217041015,0.48364258,0.9011230450000001,0.4999431768792105,0.4999687572973924,0.5000955267568835,90.75,0.15,69.15,0.013427734999999984,0.5166015650000001,0.5822753900000001,0.49987249767675584,0.5000347733291515,0.5000542251109314,59.25,20.85,-0.15
0.0546875,0.5322265650000001,0.28051758,0.49994024577326474,0.500064217469965,0.5000095926786348,-6.15,27.45,16.8,0.2109375,0.48535156,0.90234375,0.4999775505279633,0.4999646937345614,0.5000947273960861,90.9,1.5,68.7,-0.0007324199999999905,0.5148925799999999,0.573242185,0.4999094027510558,0.5000139226659761,0.5000488292510159,59.25,21.9,-0.75
0.06372070500000002,0.5419921900000001,0.287353515,0.49996023049133176,0.5000947940676636,0.5000363721380128,-6.15,28.65,16.8,0.16723633000000002,0.5139160150000001,0.861328125,0.4999569662892982,0.4997071577497925,0.500082203698772,90.9,1.5,68.7,0.0,0.51074219,0.5671386700000001,0.4998868200231307,0.49996129636390596,0.5000361722978134,59.25,21.9,-0.75
0.05395508000000001,0.5432128900000001,0.30004883,0.4999427771988118,0.5000779402957417,0.5000108583041419,-6.15,28.65,16.8,0.20703125,0.490478515,0.966308595,0.49998587749382456,0.49993012024560923,0.5000745428378197,89.1,1.05,69.75,0.011230470000000025,0.51220703,0.59082031,0.49989787825473836,0.49990713783728546,0.5000263797789792,58.95,20.55,-0.75
0.03881835999999998,0.54296875,0.30517578,0.4999648269904498,0.5000604203316443,0.5000183859092058,-7.5,27.45,15.45,0.20410156499999998,0.48876952999999995,0.912109375,0.4999861439183349,0.49991180092071447,0.5000656163513604,92.1,1.95,69.15,0.01171875,0.505859375,0.6120605450000001,0.49991639741983257,0.4998826898759888,0.500040036020445,59.4,21.45,-0.3
0.03491210999999998,0.54296875,0.321777345,0.4999775505279633,0.5000722113397384,0.5000292443006141,-7.35,27.3,18.15,0.23828125,0.506347655,0.91503906,0.4999976018303413,0.4998868866947081,0.5000803384654003,91.2,0.75,69.75,0.01684570500000001,0.494873045,0.6315917950000001,0.49995143717349433,0.49988835224768097,0.5000564900247018,59.1,22.5,0.3
0.03662109500000003,0.5439453150000001,0.32763672,0.49993831395558214,0.5000814042507081,0.5000023981696587,-8.25,27.9,15.75,0.25683594,0.5124511700000001,0.958496095,0.4999984678627162,0.4998759617189888,0.5000233155044115,92.55,2.4,70.35,0.03198241999999999,0.5126953150000001,0.618652345,0.4999583652579601,0.4999608300119298,0.5000124571130031,58.35,21.75,-0.6
0.04541015499999997,0.5422363299999999,0.329345705,0.4999781500485614,0.5000572228011881,0.5000385037958948,-6.0,29.55,15.6,0.252197265,0.506347655,0.920410155,0.5000096592629458,0.4999115344962042,0.500053492334445,91.05,1.2,70.35,0.03784179499999999,0.525390625,0.6218261700000001,0.4999425773586124,0.500002664594169,0.5000365719782122,59.85,22.2,0.6
0.04931640499999997,0.5539550799999999,0.328125,0.4999716884033381,0.5000319088947831,0.5000341072242425,-6.0,29.55,15.6,0.24926758000000002,0.5192871099999999,0.90185547,0.5000243147054083,0.49996882388170333,0.5000436998156108,90.45,1.05,69.45,0.023681640000000014,0.5217285150000001,0.60986328,0.4999857442379362,0.5000215834396619,0.5000431668793237,59.1,22.5,-1.35
0.05224609500000003,0.55517578,0.317871095,0.49991040195205255,0.5000320421506715,0.49999353826751036,-7.95,28.2,17.55,0.24121093999999998,0.51220703,0.90722656,0.5000121240169154,0.5000009326166858,0.5000309762780973,90.45,1.05,69.45,0.023193359999999986,0.5363769549999999,0.604492185,0.4999832128996555,0.5000578889933637,0.5000392365723811,59.1,22.5,-1.35
0.04345702999999997,0.5554199200000001,0.30029297,0.4999565000245885,0.5000191852700031,0.5000299104055231,-6.45,27.15,15.15,0.23461914,0.5275878900000001,0.93359375,0.500034840000729,0.5000147220267734,0.5000298438212122,91.2,1.8,68.7,0.008056640000000016,0.53125,0.6120605450000001,0.4999652266708485,0.5000833361556571,0.500044099583276,58.95,22.35,-0.45
0.04370116999999999,0.5451660150000001,0.294189455,0.4999451086968931,0.5000123238571148,0.5000056622844258,-6.9,27.45,15.75,0.21948241999999998,0.51513672,0.9294433599999999,0.5000284448525503,0.5000061286364019,0.5000048629236283,91.2,1.8,69.0,0.0048828149999999935,0.5419921900000001,0.606933595,0.50000199848926,0.5000442994234754,0.5000585550982727,58.95,22.35,-0.45
0.04394531499999999,0.552734375,0.29345703,0.499935116425126,0.5000095926786348,0.4999898078007671,-6.9,27.45,15.75,0.209228515,0.5192871099999999,0.919921875,0.5000373713390096,0.5000099923590335,0.5000005329362871,90.0,1.2,70.35,0.0017089849999999843,0.5515136700000001,0.61767578,0.4999962029489458,0.500062285565016,0.5000461646568469,58.8,21.75,-0.3
0.03808593999999999,0.556152345,0.28979492,0.49997108879547364,0.49998927486448,0.5000161875797464,-7.5,28.95,16.2,0.21118164,0.5244140650000001,0.9455566400000001,0.5000300436614116,0.5000122572728039,0.5000213835994626,90.0,1.2,70.35,-0.007080080000000009,0.5441894549999999,0.6135253900000001,0.49999920063920256,0.5000690803935933,0.5000640842140766,58.2,21.9,0.45
0.05102539000000002,0.5625,0.29321289,0.49997322054062204,0.4999868101105104,0.5000125903688916,-7.2,28.65,16.5,0.20703125,0.5241699200000001,0.93701172,0.5000433668067895,0.5000007993607974,0.5000045298275406,89.85,1.5,70.05,-0.003662109999999984,0.556152345,0.603027345,0.49998934153605745,0.5000357726174147,0.5000663491278469,58.35,22.95,0.6
0.06323241999999998,0.546875,0.3046875,0.4999646937345614,0.5000188522611819,0.5000041301471418,-7.2,28.65,16.2,0.2109375,0.5246582049999999,0.931640625,0.5000370382429218,0.4999934716831994,0.4999918062900271,90.45,1.05,71.25,-0.0024414049999999746,0.548828125,0.61035156,0.4999997335754897,0.5000204509827767,0.5000550911433063,59.7,23.4,-1.5
0.0625,0.536621095,0.303466795,0.49998967454487875,0.5000146554424625,0.50000199848926,-8.7,27.0,15.6,0.21362304499999998,0.5368652349999999,0.9206542950000001,0.5000207840788644,0.49995097090878465,0.5000446991038741,90.45,1.05,71.25,0.005615234999999984,0.548339845,0.6154785150000001,0.49998507813302717,0.50000199848926,0.500051493845185,59.7,23.4,-1.5
0.05590820500000001,0.5358886700000001,0.305908205,0.4999889417683923,0.49998867534388197,0.5000513606765631,-8.7,27.0,15.6,0.224853515,0.5368652349999999,0.936523435,0.5000522932932489,0.5000101921992328,0.5000163208356349,92.1,2.4,70.35,0.006103515000000016,0.55126953,0.6081542950000001,0.4999660260316459,0.500060087322823,0.5000508943245869,59.7,23.4,-1.5
0.05078125,0.545410155,0.30004883,0.4999794157613349,0.4999976018303413,0.5000254471622935,-8.7,27.0,15.6,0.224365235,0.5358886700000001,0.9353027349999999,0.5000377044350973,0.5000204509827767,0.5000281117564624,90.3,1.2,70.35,0.009765625,0.5456542950000001,0.611816405,0.49998794256739554,0.500051427260874,0.5000593545463365,58.8,21.75,-1.35
0.05126952999999997,0.5563964849999999,0.29663086,0.5000061286364019,0.4999707556993859,0.5000375045948979,-6.9,26.7,16.8,0.232177735,0.5500488299999999,0.9328613299999999,0.500022049791638,0.5000165872601451,0.500040102604756,90.45,1.5,69.0,0.011230470000000025,0.5476074200000001,0.59814453,0.4999877427271962,0.5000383706272727,0.5000409686371309,58.8,21.75,-1.35
0.04174804499999999,0.56689453,0.294433595,0.49999713556563163,0.49996682539244336,0.5000335742879554,-7.2,28.95,17.25,0.22631836,0.5363769549999999,0.92626953,0.500035372937016,0.5000108583041419,0.5000440329116985,90.45,1.5,69.0,0.00854491999999999,0.5461425799999999,0.6013183599999999,0.49999600302148,0.5000143889306857,0.5000257802583812,57.45,22.35,-0.15
0.03857422000000003,0.5498046900000001,0.283935545,0.49996209572470335,0.4999464410812441,0.5000192519415806,-6.9,28.2,18.3,0.22192383000000002,0.5383300799999999,0.928222655,0.5000212503435741,0.5000222496318373,0.5000431668793237,90.45,1.5,69.0,0.009277345000000025,0.55517578,0.607910155,0.49999140660962843,0.5000235153446109,0.5000566232805902,59.4,22.95,-1.35
0.03564452999999997,0.54638672,0.282714845,0.499971222051362,0.4999000099126203,0.5000099256874561,-6.9,28.2,18.3,0.21411133000000002,0.536621095,0.931152345,0.5000043299873413,0.5000344402330638,0.5000578889933637,90.15,1.05,70.05,0.011230470000000025,0.552246095,0.6115722650000001,0.49999820135093936,0.5000494954431914,0.500028711364327,58.5,22.35,0.45
0.04028320500000001,0.540527345,0.283203125,0.4999646937345614,0.4998938812762184,0.5000349731693509,-5.7,27.9,17.55,0.21362304499999998,0.541015625,0.919921875,0.5000270459711548,0.5000209173347528,0.5000437664871883,90.45,1.5,69.0,0.006347654999999975,0.5466308599999999,0.5969238299999999,0.4999949372361723,0.5000583552580733,0.500025313906405,58.8,24.0,0.3
0.04150390499999997,0.5390625,0.29345703,0.49994957194012274,0.4999366485624099,0.5000130566336013,-7.95,28.65,16.2,0.22265625,0.5341796900000001,0.92675781,0.5000044632432297,0.5000249142260064,0.5000477633784418,90.75,0.9,69.9,-0.0012207050000000094,0.55029297,0.600097655,0.4999742197416188,0.5000524931334482,0.5000069946687767,58.5,24.6,-0.15
0.04760741999999999,0.5437011700000001,0.305908205,0.4999631615972775,0.49992106050326157,0.5000540252707321,-7.05,28.5,17.7,0.21630859500000002,0.54296875,0.923339845,0.5000106584639425,0.500002131657882,0.5000642840542759,92.1,1.65,69.6,0.009521484999999984,0.5603027349999999,0.5983886700000001,0.4999804816339091,0.5000459648166476,0.5000177197170302,58.95,22.65,-0.15
0.05493164000000002,0.546875,0.314453125,0.49997908266524715,0.4999273223955519,0.5000248476416954,-7.5,28.2,17.85,0.21484375,0.5300292950000001,0.9191894549999999,0.49998867534388197,0.4999992672235135,0.5000548913031069,91.65,1.5,70.5,0.008789064999999993,0.55517578,0.5964355450000001,0.49996189588450396,0.5000478300500192,0.500018052813118,58.95,22.65,-0.15
0.05346679499999999,0.5480957049999999,0.310791015,0.4999490390911021,0.49994337671940986,0.49999873428722647,-7.5,28.2,17.85,0.22412109500000002,0.5378417950000001,0.9245605450000001,0.4999836791643652,0.5000199180464896,0.5000438330714992,89.55,1.95,70.35,0.012207029999999975,0.5520019549999999,0.583496095,0.49995010487640984,0.5000509609088979,0.5000033307863445,59.1,22.95,-0.3
0.04052734500000003,0.5471191400000001,0.306396485,0.4999742197416188,0.49994024577326474,0.5000088599021484,-6.6,29.25,16.65,0.228271485,0.5344238299999999,0.927734375,0.49998994105665556,0.49999913396762513,0.5000598874826238,89.55,1.95,70.35,0.008300779999999975,0.549316405,0.58251953,0.4999606967560414,0.5000684808729953,0.5000081937099728,59.1,22.95,-0.3
0.04028320500000001,0.5476074200000001,0.30371094,0.4999495053558118,0.4999434433037208,0.5000417014136173,-6.3,28.8,16.65,0.22241211,0.5329589849999999,0.91455078,0.49997788362405104,0.5000099923590335,0.5000541585266205,91.35,1.65,69.9,0.0068359399999999935,0.5498046900000001,0.57763672,0.49994803980283886,0.5000468974333334,0.5000145221865742,59.4,24.0,0.0
0.03198241999999999,0.54736328,0.296875,0.4999380474438054,0.49996649238362206,0.5000419012538166,-6.45,28.95,16.8,0.22778320500000002,0.537109375,0.9133300799999999,0.4999822802829697,0.4999958031812807,0.5000522932932489,90.9,2.55,70.8,0.013427734999999984,0.5471191400000001,0.58203125,0.4999660260316459,0.5000211171749521,0.5000109249757193,58.8,24.3,-0.3
0.03125,0.55810547,0.29589844,0.49996356127767627,0.4999503047166092,0.5000108583041419,-6.45,28.95,16.8,0.22314452999999998,0.533203125,0.915527345,0.49996902372190266,0.5000036638824322,0.5000418345822393,91.35,2.7,69.9,0.02026366999999999,0.5510253900000001,0.580078125,0.499950571228386,0.5000291776290366,0.500006728157,57.3,21.75,-0.6
0.03540039000000002,0.55517578,0.295166015,0.4999551010559266,0.49994364314392015,0.500013323145378,-7.95,29.4,16.8,0.21850586,0.529785155,0.916992185,0.4999795490172233,0.5000011990411961,0.5000472304421547,90.0,2.4,70.35,0.012695314999999993,0.549316405,0.5866699200000001,0.49995636676870014,0.500046764177445,0.5000273123956651,59.85,24.0,-0.3
0.04785156499999999,0.55810547,0.302734375,0.49992265922485635,0.4999650934149601,0.49997275418864584,-6.45,28.65,17.25,0.21386718999999998,0.518066405,0.9182128900000001,0.49998414551634135,0.500005196019716,0.5000476302098198,92.1,2.7,69.6,0.005371095000000025,0.5393066400000001,0.58300781,0.49995363550295374,0.500036105626236,0.4999828798035678,59.85,24.0,-0.3
0.044921875,0.5593261700000001,0.298095705,0.499975352198504,0.49996922356210205,0.5000120574326045,-6.3,29.25,17.1,0.21215820500000002,0.5217285150000001,0.923828125,0.499977950208362,0.4999997335754897,0.5000520934530495,90.3,2.4,70.95,-0.005371095000000025,0.53125,0.5910644549999999,0.49995756580989625,0.5000141225061755,0.4999922725547368,58.2,23.1,-1.2
0.03955077999999997,0.5573730450000001,0.299072265,0.49995963097073365,0.49997401990141943,0.5000279119162632,-6.9,28.2,15.15,0.20703125,0.52392578,0.924804685,0.49997828330444977,0.49997635148676717,0.5000477633784418,90.3,2.4,70.95,0.005859375,0.5275878900000001,0.5925292950000001,0.4999774172720749,0.5000079272854626,0.5000241148652089,58.2,23.1,-1.2
0.041015625,0.5598144549999999,0.299560545,0.4999250573945151,0.4999941377881084,0.49997688442305427,-6.9,28.2,15.15,0.21386718999999998,0.5205078150000001,0.91503906,0.4999806148897975,0.5000028644343684,0.5000032642020336,90.45,2.25,68.7,0.00024414000000001578,0.5285644549999999,0.5959472650000001,0.49999020748116585,0.5000187190052935,0.5000257135868038,59.1,23.25,-1.05
0.03955077999999997,0.5529785150000001,0.302001955,0.4998934815958197,0.5000166539317226,0.49997934917702397,-6.45,28.95,17.25,0.21606445500000002,0.5114746099999999,0.9147949200000001,0.499977284103453,0.49998401226045297,0.5000217166955503,92.4,4.05,69.75,0.0007324199999999905,0.52783203,0.5905761700000001,0.500006661572689,0.500003464042233,0.500003464042233,59.1,24.0,0.0
0.04077148499999998,0.55029297,0.30126953,0.49994783996263953,0.5000139226659761,0.4999965359577671,-5.7,29.4,17.55,0.20703125,0.5148925799999999,0.9221191400000001,0.4999762182308788,0.5000129900492903,0.5000069946687767,90.15,1.8,70.5,-0.007568359999999984,0.52001953,0.584960935,0.49999453755577355,0.5000237817691212,0.49998188051530457,57.9,23.85,-2.25
0.04077148499999998,0.5500488299999999,0.29760742,0.4999346500731499,0.5000250474818948,0.49996642571204464,-6.0,31.35,16.65,0.21362304499999998,0.50830078,0.92675781,0.4999992672235135,0.50001072513552,0.5000024647539697,90.15,1.8,70.5,0.00048827999999997475,0.5241699200000001,0.58642578,0.5000077274452632,0.5000101256149219,0.499997335405831,59.1,23.7,-0.6
0.03637695500000001,0.5500488299999999,0.29736328,0.49991892875811317,0.5000216501112393,0.49998747630268586,-6.0,31.35,16.65,0.21166991999999998,0.5075683599999999,0.9201660150000001,0.4999937381077097,0.5000271791397767,0.49999606969305743,92.1,3.15,70.65,0.002197265000000016,0.537597655,0.5900878900000001,0.49999500382048323,0.4999944042998852,0.5000009992009967,59.1,23.7,-0.6
0.03540039000000002,0.5576171900000001,0.30102539,0.4999314525426938,0.49999527033226004,0.5000132564738006,-7.65,29.85,17.1,0.22021484500000002,0.5166015650000001,0.921875,0.49999960031960133,0.5000378376909856,0.5000129234649794,90.3,3.45,70.35,0.004394529999999975,0.540527345,0.599121095,0.5000065283168006,0.4999878759830846,0.5000035972108549,58.95,23.4,-0.75
0.03857422000000003,0.549316405,0.29980469,0.49994617456946727,0.5000369050742999,0.4999751523583046,-6.45,30.15,16.8,0.21582031499999998,0.50830078,0.916992185,0.4999934716831994,0.5000071278373986,0.49999307200280063,90.3,3.45,70.35,0.009765625,0.5419921900000001,0.599121095,0.5000139892502871,0.4999968690538548,0.4999962029489458,56.7,23.1,-1.5
0.03784179499999999,0.5515136700000001,0.29370117,0.4999423775184131,0.5000245145456076,0.5000069279971994,-7.35,30.3,16.65,0.21215820500000002,0.5080566400000001,0.9211425799999999,0.5000136562414658,0.5000152549630607,0.49997961560153426,90.75,1.2,71.4,0.0014648450000000254,0.5515136700000001,0.5988769549999999,0.5000241148652089,0.5000021983294594,0.5000037970510541,56.7,23.1,-1.5
0.03588866999999999,0.548339845,0.294433595,0.4999755520387033,0.49999920063920256,0.500033441032067,-7.05,30.3,16.65,0.21484375,0.51074219,0.9240722650000001,0.500009259582547,0.5000221829602599,0.5000088599021484,91.2,1.8,69.45,0.007568359999999984,0.5471191400000001,0.6037597650000001,0.5000365719782122,0.5000091929982361,0.5000041968187193,59.25,23.4,-0.75
0.04663085999999998,0.5451660150000001,0.295166015,0.499951237333295,0.5000032642020336,0.5000162542513238,-7.05,30.3,16.65,0.21240234500000002,0.5124511700000001,0.927246095,0.5000165872601451,0.49999873428722647,0.4999894081203684,90.45,1.8,69.45,0.008056640000000016,0.5456542950000001,0.59863281,0.500031375958496,0.5000331746075567,0.5000023315853478,59.25,23.4,-0.75
0.05200195500000001,0.545410155,0.298583985,0.4999557005765246,0.5000049295952058,0.4999961362773684,-7.2,30.15,16.5,0.209228515,0.51611328,0.9230957049999999,0.500028777948638,0.4999816140907943,0.5000062618922902,90.45,1.8,69.45,-0.0014648450000000254,0.5390625,0.5988769549999999,0.5000241148652089,0.5000461646568469,0.4999950704047942,57.45,23.4,-1.8
0.04760741999999999,0.5534667950000001,0.29272461,0.5000115910806283,0.5000015988088613,0.49999453755577355,-5.7,30.15,17.85,0.217041015,0.5126953150000001,0.9245605450000001,0.500015388218949,0.5000225827279251,0.49998994105665556,90.9,2.25,70.05,-0.005126955000000009,0.541503905,0.59472656,0.5000243147054083,0.5000317090545837,0.5000015321372838,58.2,23.4,-1.2
0.04467773499999998,0.552246095,0.293945315,0.49998900843996974,0.5000265130348677,0.4999919395459155,-6.15,30.9,18.9,0.21337890499999998,0.510498045,0.9235839849999999,0.5000162542513238,0.5000119908482935,0.4999682909454162,90.75,1.65,69.6,-0.005126955000000009,0.5373535150000001,0.5939941400000001,0.5000379709468741,0.5000146554424625,0.5000476967941307,58.05,23.25,-0.6
0.03735351500000002,0.5490722650000001,0.298583985,0.4999769510073652,0.5000252473220941,0.4999938713635981,-6.15,30.9,18.9,0.22412109500000002,0.51953125,0.91894531,0.5000104586237432,0.5000233155044115,0.5000015988088613,90.15,1.05,70.05,0.0017089849999999843,0.5339355450000001,0.599609375,0.5000580221619856,0.49998587749382456,0.5000126569532025,59.85,22.95,-0.3
0.03515625,0.5495605450000001,0.302246095,0.5000301769172999,0.5000005329362871,0.5000108583041419,-7.05,28.8,17.4,0.23583984500000002,0.51904297,0.9240722650000001,0.5000260466828915,0.5000142557620638,0.4999774172720749,91.05,2.7,70.35,0.011474609999999984,0.528808595,0.5905761700000001,0.5000824701232823,0.5000007327764865,0.500080271793823,59.85,22.95,-0.3
0.03979491999999999,0.54345703,0.30493164,0.5000162542513238,0.5000210505033748,0.49996436063847366,-7.95,30.15,17.55,0.22412109500000002,0.5192871099999999,0.9138183599999999,0.5000163874199458,0.500031442542807,0.4999620290531259,91.05,2.4,68.85,0.006103515000000016,0.5256347650000001,0.59814453,0.5000586883541611,0.4999804816339091,0.5000155880591484,58.35,24.0,-1.05
0.03271484500000003,0.54638672,0.306152345,0.5000224494720368,0.500006062052091,0.4999885420879936,-6.0,29.85,17.4,0.23681640499999998,0.5205078150000001,0.92626953,0.5000363055537018,0.5000259135142696,0.4999795490172233,91.35,0.45,68.85,0.011962890000000016,0.524902345,0.5954589849999999,0.500066882064134,0.4999790160809362,0.5000209173347528,58.35,24.0,-1.05
0.03881835999999998,0.54248047,0.31201172,0.5000337075438438,0.4999962029489458,0.4999892082801691,-6.9,30.45,16.5,0.23120116999999998,0.518066405,0.92626953,0.5000235819289219,0.5000221829602599,0.49997961560153426,91.35,0.45,68.85,0.020019529999999976,0.52783203,0.6015625,0.500092129386228,0.4999946707243955,0.5000169869405438,58.35,22.95,-1.05
0.04370116999999999,0.5480957049999999,0.31201172,0.5000413016459521,0.5000022649137703,0.4999937381077097,-6.9,30.45,16.5,0.232177735,0.5163574200000001,0.9299316400000001,0.5000402358606444,0.500024048280898,0.4999814808349059,90.9,2.25,70.5,0.016601564999999995,0.5324707049999999,0.5959472650000001,0.5000930620029139,0.5000114579120064,0.5000273789799761,58.5,23.85,0.15
0.046875,0.5517578150000001,0.313476565,0.5000219165357496,0.5000244479612966,0.49997854972896005,-5.7,28.65,17.25,0.22314452999999998,0.5222167950000001,0.9211425799999999,0.500037438010587,0.5000224494720368,0.49997062253076396,91.2,0.75,70.05,0.015380859999999984,0.5390625,0.5886230450000001,0.5000938613637114,0.5000142557620638,0.49999913396762513,59.25,23.85,-1.2
0.05151366999999999,0.5515136700000001,0.31567383,0.5000337741281548,0.5000063950609122,0.5000097925188342,-6.15,28.65,17.55,0.21459961,0.5275878900000001,0.9138183599999999,0.5000088599021484,0.5000353062654386,0.4999636944462982,89.55,1.95,69.15,0.006347654999999975,0.5361328150000001,0.595214845,0.5001273690673557,0.4999961362773684,0.4999854111418484,58.05,23.25,-1.35
