IMU1_AccX,IMU1_AccY,IMU1_AccZ,IMU1_GyrX,IMU1_GyrY,IMU1_GyrZ,IMU1_MagX,IMU1_MagY,IMU1_MagZ,IMU2_AccX,IMU2_AccY,IMU2_AccZ,IMU2_GyrX,IMU2_GyrY,IMU2_GyrZ,IMU2_MagX,IMU2_MagY,IMU2_MagZ,IMU3_AccX,IMU3_AccY,IMU3_AccZ,IMU3_GyrX,IMU3_GyrY,IMU3_GyrZ,IMU3_MagX,IMU3_MagY,IMU3_MagZ
0.04199218999999999,0.5129394549999999,0.420410155,0.500048762666705,0.500134297064555,0.49999233922631425,0.45,24.9,22.8,0.6623535150000001,0.47363281,0.9108886700000001,0.5000124571130031,0.5001763315742601,0.49995456811963945,52.8,8.4,93.75,0.20703125,0.404052735,0.8244628900000001,0.500132165406673,0.500091596449941,0.5000615528757959,54.75,17.7,35.4
0.028808595000000024,0.51513672,0.42480469,0.5000263131946683,0.500153748846335,0.49995636676870014,0.45,24.9,22.8,0.67578125,0.471679685,0.911621095,0.500048229730418,0.5001879892391994,0.4999281883406603,52.8,8.4,93.75,0.19946289,0.39916992,0.837890625,0.5001506179001899,0.5001134464013797,0.5001103154552344,55.2,19.95,34.8
0.023681640000000014,0.5061035150000001,0.420410155,0.5000758752221708,0.5001592779621389,0.49996296175707816,0.75,27.15,22.8,0.69189453,0.473876955,0.9445800799999999,0.5000306431820095,0.5002668621516269,0.49989701222236355,53.85,7.35,96.0,0.19677734500000002,0.388916015,0.858398435,0.5001405589568453,0.5001371615861899,0.5000541585266205,54.75,19.2,34.35
0.03393554499999999,0.5100097650000001,0.419433595,0.5000655497670494,0.500137694522477,0.4999908736733413,2.1,26.55,21.9,0.6857910150000001,0.474365235,0.94970703,0.5000603537473334,0.5001969158129251,0.4998475168664386,53.4,7.5,95.4,0.181396485,0.36303711,0.8977050799999999,0.5001749326055982,0.5001597442268485,0.5000372381703876,54.6,19.35,34.95
0.03222656499999999,0.5021972650000001,0.42651367,0.5000415015734179,0.500153149325737,0.49996356127767627,1.05,26.55,21.6,0.686523435,0.48828125,0.9660644549999999,0.5000445658479856,0.5001823269547736,0.4998436531438069,54.3,8.1,94.8,0.177978515,0.34423828,0.923828125,0.5002181661564993,0.5001436233186796,0.5000516271010734,54.6,19.35,34.95
0.03442383000000001,0.49609375,0.43701172,0.5000730107005359,0.500147020689335,0.50002617993878,0.75,23.4,21.75,0.6818847650000001,0.490234375,0.9777832049999999,0.5000456983048708,0.5001658062789395,0.49984398623989473,54.3,8.1,94.8,0.14575195500000002,0.32885742,0.9509277349999999,0.5002690604810862,0.5001311661184099,0.5000011990411961,53.55,19.35,34.95
0.02856445500000001,0.486572265,0.446777345,0.5000476302098198,0.5001215735270416,0.5000388368919825,0.75,23.4,21.75,0.6779785150000001,0.49462890499999995,0.9914550799999999,0.5000393698282696,0.500136295553815,0.49986143953241463,54.6,7.65,94.8,0.14746093999999998,0.34326172,0.966308595,0.5003078307887577,0.5000812710820862,0.49995983081093304,54.75,18.75,34.35
0.03393554499999999,0.48535156,0.45703125,0.500078206720252,0.5001352296812408,0.5000443660077863,0.75,23.4,21.75,0.682128905,0.48852539,1.0043945300000001,0.500034840000729,0.5001302335017241,0.49983072967882763,54.75,8.25,94.65,0.13159179499999998,0.353515625,0.967285155,0.5003414050767131,0.5000701462661675,0.499957232801075,54.75,18.75,34.35
0.029052734999999986,0.49243164,0.46826172000000005,0.5001239050251228,0.500102921106059,0.5000995903197145,1.05,25.5,21.6,0.7009277349999999,0.49365234500000005,1.0234375,0.5000583552580733,0.5000901308969681,0.49982213628845606,54.75,8.25,94.65,0.12792968999999998,0.36303711,0.979492185,0.5003489992660879,0.5000475635382424,0.4999523032058692,55.65,20.55,34.2
0.03247070500000001,0.50439453,0.47241211,0.5001322319909841,0.500087466302799,0.5000976585020319,0.3,24.75,22.95,0.701660155,0.51220703,1.0209960949999999,0.5000738101485998,0.5000414349018405,0.4997909601701594,54.75,7.8,95.1,0.142333985,0.37524414,0.970703125,0.5003705827057497,0.500020117886689,0.49992565700237956,55.65,20.55,34.2
0.030761720000000024,0.5114746099999999,0.47363281,0.5001208407505551,0.5000632181817017,0.5000927289068261,0.3,26.25,21.3,0.7326660150000001,0.5319824200000001,1.0073242199999999,0.5000798055291132,0.49998361258005425,0.49979715547813874,54.6,7.65,94.5,0.16308593999999998,0.38720703,0.9611816400000001,0.5003913001130368,0.5000069946687767,0.4999281883406603,54.75,20.25,33.0
0.01489258000000001,0.5285644549999999,0.466552735,0.5001197082936699,0.5000323751594928,0.5001062518924035,0.3,26.25,21.3,0.732910155,0.5407714849999999,1.0024414050000001,0.5000969257255454,0.49998341273985486,0.49976478023137944,54.9,9.6,94.2,0.17700195500000002,0.392089845,0.9375,0.5004449257033702,0.5000301769172999,0.4999162641639442,55.8,19.2,34.05
0.0,0.548339845,0.46118164,0.5000876661429985,0.4999607634276188,0.5001138460817783,0.6,24.0,21.6,0.7414550799999999,0.5529785150000001,0.9885253900000001,0.5000933285146907,0.5000040635628309,0.49973553601803183,54.9,9.6,94.2,0.1796875,0.397216795,0.92529297,0.5004915566249267,0.500040102604756,0.4999080704539713,55.8,19.5,34.8
-0.0026855449999999906,0.5576171900000001,0.439208985,0.5000450321999618,0.4999007426891068,0.5000808047301101,1.05,24.75,21.6,0.7395019549999999,0.5729980450000001,0.9787597650000001,0.5000676148406205,0.5000128567934019,0.49974632773786276,54.9,6.15,94.8,0.19262695500000002,0.41748047,0.8996582049999999,0.5005482465770943,0.5000053958599154,0.49992185986405896,55.8,21.0,34.35
0.004394529999999975,0.5607910150000001,0.43261719,0.5000445658479856,0.4998652365834688,0.5000695467455695,-0.6,25.8,20.85,0.71484375,0.560546875,0.947753905,0.5000532924942456,0.5000505612284992,0.49973820061220087,54.75,7.5,93.6,0.18896484500000002,0.424072265,0.8781738299999999,0.5005856845004149,0.5000195183660909,0.49991533154725837,55.2,20.7,34.05
-0.010009765000000016,0.58300781,0.419433595,0.5000239150250096,0.49983839053977985,0.5000594877149585,0.45,25.35,19.95,0.701660155,0.552734375,0.9265136700000001,0.5000585550982727,0.5001059187963158,0.4997223461285422,55.5,8.25,95.7,0.20043945500000002,0.439208985,0.8415527349999999,0.5005981416134181,0.5000373713390096,0.4999245911298054,55.2,20.25,33.0
0.0024414049999999746,0.5832519549999999,0.39892578,0.49998381242025364,0.49983206206317865,0.5000049961795168,0.45,25.35,19.95,0.7019042950000001,0.5505371099999999,0.9140625,0.5000567565364785,0.5001687373848853,0.4996950337328771,55.2,7.8,94.35,0.21069336,0.463134765,0.822265625,0.5006022718478265,0.5000315757986954,0.49993291809566665,55.2,20.25,33.0
0.004150390000000016,0.5490722650000001,0.38964844,0.4999837457486762,0.49981447551477026,0.4999870099507097,2.1,24.75,23.25,0.6633300799999999,0.5812988299999999,0.903808595,0.5000118575924052,0.5002073744366684,0.49968470827775585,55.2,8.25,94.35,0.21630859500000002,0.47680664,0.80566406,0.500610332301911,0.49999886754311484,0.49993831395558214,55.65,20.85,34.2
0.007568359999999984,0.5275878900000001,0.40136719,0.5000281784280399,0.49983146245531407,0.4999642273825852,-0.15,25.65,21.75,0.646484375,0.5690917950000001,0.9104003900000001,0.5000224494720368,0.5003875696462936,0.49968364240518165,57.15,5.7,93.75,0.220458985,0.49633789,0.7907714849999999,0.5005777573022188,0.5000217832798612,0.49993618221043373,56.1,20.1,32.4
0.01684570500000001,0.498779295,0.412841795,0.5000328415114689,0.4998478499625263,0.4999508376528963,0.45,25.65,20.4,0.619628905,0.5632324200000001,0.8820800799999999,0.500048762666705,0.5004176133077051,0.49969463396521197,57.15,5.7,93.75,0.21069336,0.5251464849999999,0.791992185,0.5005664325588343,0.500047430282354,0.499952569717646,56.1,21.15,33.15
0.02416991999999999,0.48071289,0.423095705,0.500082203698772,0.4998778935366714,0.4999555674079027,0.45,25.65,20.4,0.60595703,0.56201172,0.895996095,0.500051493845185,0.5005215337020273,0.4997049594203332,57.15,7.35,94.2,0.18237304499999998,0.541503905,0.8015136700000001,0.5005669655823879,0.5000365719782122,0.4999466409214434,55.2,21.0,33.3
0.03344726500000002,0.4765625,0.42944336,0.5001129800494035,0.49991739662082935,0.4999856776536252,0.75,24.9,22.05,0.6125488299999999,0.546875,0.9489746099999999,0.5000229824083238,0.5003907005924387,0.49970289434676224,57.45,8.1,93.75,0.17333984500000002,0.5363769549999999,0.78955078,0.5005529096605233,0.5000678146808197,0.49994504211258206,55.2,22.2,33.3
0.04809570500000001,0.48461914,0.423583985,0.5001426240304163,0.4999678912650175,0.4999756852945917,0.45,25.35,22.8,0.58935547,0.53125,1.01147461,0.5000510275804753,0.5004242748803941,0.49970762401450225,57.75,6.3,93.3,0.14306640499999998,0.533203125,0.80957031,0.500510608726308,0.5000899310567688,0.4999462411537783,54.9,20.55,33.15
0.0390625,0.48486327999999995,0.40307617,0.5001865237734929,0.500034040552665,0.4999856776536252,0.75,24.9,22.8,0.5715332049999999,0.486083985,1.01147461,0.49997688442305427,0.5002370184176812,0.4997312726150015,57.75,6.3,93.3,0.11254883000000002,0.5322265650000001,0.829589845,0.5005047465144165,0.5001077840296874,0.4999622289805918,54.9,20.55,33.15
0.03393554499999999,0.494873045,0.37963867,0.5002308231097018,0.5000646837346746,0.5000135895698883,0.6,23.7,22.95,0.5930175799999999,0.517089845,1.0717773449999999,0.4999822802829697,0.5002744563410016,0.49972307890502865,58.95,6.9,93.15,0.07495116999999998,0.5178222650000001,0.8269042950000001,0.5004842289473287,0.5001273690673557,0.4999497051960111,56.1,20.85,31.05
0.018066404999999976,0.497070315,0.34423828,0.5002135030730703,0.5001146454425758,0.4999806148897975,0.6,23.7,22.95,0.5363769549999999,0.46923827999999995,1.07714844,0.4999916730341387,0.5001432902225919,0.4997138193224816,58.8,6.3,93.6,0.05517577999999997,0.54248047,0.83251953,0.5004848950522378,0.5001500849639027,0.49997368680533166,56.1,20.85,31.05
0.004150390000000016,0.497070315,0.30834961,0.5002176998917897,0.5001261033545822,0.4999852113016491,1.2,24.6,22.05,0.46557617,0.5615234400000001,1.052734375,0.5000905306646333,0.5002237618566141,0.499710621704759,58.8,6.3,93.6,0.015380859999999984,0.5380859400000001,0.83984375,0.5004609135301837,0.5001478867217098,0.5000139892502871,55.35,21.9,31.8
-0.008056640000000016,0.48583984500000005,0.275390625,0.5002550712307992,0.5001166439318357,0.4999822136113923,2.1,24.75,21.9,0.473876955,0.5256347650000001,1.0834960949999999,0.5001405589568453,0.5001630084288821,0.49971008885573837,58.65,6.9,94.2,-0.007324220000000025,0.5480957049999999,0.856933595,0.5004106853105058,0.5002085734778645,0.5000297105653237,56.1,21.15,31.8
-0.021728515000000014,0.48144531,0.24658203,0.5002262932821612,0.5001021883295725,0.4999852113016491,1.5,25.35,21.75,0.546875,0.5622558599999999,1.171875,0.500156346856193,0.5001455551363622,0.4997004295927926,60.15,6.0,94.65,-0.06152344000000005,0.533691405,0.87988281,0.5004214770303367,0.5001997802472935,0.5000030643618342,55.35,21.15,31.8
-0.04785156500000005,0.46533203,0.2265625,0.500229890493016,0.5000870000380894,0.4999807480584194,1.5,25.35,21.75,0.48583984500000005,0.55419922,1.12109375,0.5001742665006891,0.5001263698663589,0.49972587675508606,60.9,6.0,93.3,-0.08081054500000005,0.537597655,0.8576660150000001,0.5004121508634787,0.5001358958734163,0.5000429004548135,55.35,21.6,31.05
-0.068359375,0.458984375,0.212890625,0.5002685275447991,0.5000154548032599,0.5000003996803987,1.35,22.2,21.9,0.47338867,0.5427246099999999,1.154541015,0.500121773367241,0.5000896646322585,0.49974999153302857,60.9,6.0,93.3,-0.06811523499999998,0.5478515650000001,0.86767578,0.5003791760961214,0.5001051861070958,0.5001028545217481,57.0,22.2,30.15
-0.08764648499999998,0.455322265,0.20581054499999998,0.5002771210224372,0.49994737369792985,0.5000143223463748,1.05,23.7,21.6,0.471679685,0.564453125,1.1489257800000001,0.5001261700261596,0.5000394364125805,0.4997424640152312,60.45,6.9,92.7,-0.046142579999999954,0.5759277349999999,0.861328125,0.5003466010964291,0.5000850681331404,0.5000965926294577,57.15,23.85,31.05
-0.0859375,0.443115235,0.21997070500000002,0.5002544050386237,0.49992665620337634,0.5000095926786348,2.4,23.7,21.3,0.486572265,0.591796875,1.11254883,0.5000979249265423,0.500037438010587,0.4997787028973556,61.05,6.9,93.45,-0.01464844000000005,0.5861816400000001,0.8479003900000001,0.5003284816117337,0.5000517603569617,0.5000907970891436,56.4,21.6,31.05
-0.08447265500000004,0.45703125,0.23803711,0.5002753889576875,0.4998443859202934,0.500024647801496,2.25,24.15,22.05,0.5002441400000001,0.5900878900000001,1.088134765,0.5001426240304163,0.5000377044350973,0.49975791881849113,59.55,6.75,92.25,-0.00390625,0.60253906,0.8435058599999999,0.5002998369189842,0.5000146554424625,0.5000899310567688,56.4,21.6,31.05
-0.07128906500000005,0.46923827999999995,0.26611328,0.500258068921056,0.49980301760276385,0.5000439663273876,2.25,24.15,22.05,0.48461914,0.6311035150000001,1.09765625,0.5001923193138071,0.5001091164140383,0.4997512572458021,59.55,6.75,92.25,0.01440429499999999,0.6171875,0.8293457049999999,0.5002628652603733,0.4999617626286156,0.5000694800739921,55.8,22.5,31.2
-0.05883789000000002,0.487304685,0.3046875,0.5002382840431883,0.4997916929466458,0.5000250474818948,0.3,22.5,23.25,0.541015625,0.645996095,1.041748045,0.5001378943626763,0.5000433001352121,0.49978389891707165,60.15,7.05,92.55,0.05712890499999997,0.62597656,0.8059082049999999,0.5002496086993063,0.49992725572397445,0.5000829364752585,55.8,22.5,31.2
-0.05834960999999998,0.479492185,0.334716795,0.5002276921635567,0.49974612789766343,0.5000472971137321,1.8,22.35,21.0,0.5495605450000001,0.6579589849999999,1.0268554699999999,0.5001079839571532,0.5000417014136173,0.49980181856156775,60.45,6.9,93.75,0.094726565,0.6184082049999999,0.78955078,0.5002147687858438,0.49990220824207965,0.5000613529483301,56.25,21.45,30.15
-0.05053710999999998,0.490478515,0.36279297,0.5001910536010336,0.4997183491500222,0.500002664594169,2.25,22.65,22.05,0.5690917950000001,0.66113281,0.99951172,0.5000758085505933,0.500013323145378,0.4998585750107798,61.05,7.35,94.2,0.13378906499999998,0.6325683599999999,0.787109375,0.500153815430646,0.49991832923751506,0.5000359724576141,55.8,24.0,30.15
-0.03271484499999997,0.49291992,0.395507815,0.500145088784386,0.4997537220870382,0.49997854972896005,2.25,22.65,22.05,0.5783691400000001,0.64892578,0.9772949200000001,0.5000600206512457,0.5000233820887224,0.49989428104388356,61.05,7.35,94.2,0.14550781499999998,0.58642578,0.7951660150000001,0.500100789448177,0.4999188621738022,0.5000373047546985,55.2,22.95,29.4
-0.015625,0.49584961,0.430664065,0.5001289012046396,0.499778769568933,0.49996262866099045,1.65,22.2,21.6,0.58984375,0.6369628900000001,0.9533691400000001,0.4999930053312232,0.5000175865484083,0.4999038736352519,60.6,6.3,93.3,0.17333984500000002,0.583984375,0.8034667950000001,0.5000347733291515,0.4999275222357512,0.5000121906884929,56.55,22.95,30.45
0.002197265000000016,0.50073242,0.45263672,0.5000785398163398,0.4998507809812056,0.49995809874618335,2.25,22.35,20.4,0.59765625,0.6145019549999999,0.93847656,0.49996156278841625,0.500033441032067,0.4999476401224402,62.25,6.15,93.15,0.19848633000000002,0.5661621099999999,0.8122558599999999,0.4999831462280781,0.4999658261914466,0.49997348696513233,56.55,22.95,30.45
0.015380859999999984,0.49975586,0.47021484500000005,0.5000237151848103,0.4999609632678182,0.499924457873917,2.1,21.75,21.6,0.60205078,0.5988769549999999,0.920898435,0.4999489724195247,0.5000251807377831,0.4999490390911021,62.25,6.9,94.2,0.204833985,0.5432128900000001,0.8181152349999999,0.5000033307863445,0.4999490390911021,0.4999808813143078,55.35,23.85,28.95
0.027099609999999986,0.501464845,0.478759765,0.5000308430222089,0.5000031975304562,0.4999172633649409,1.65,21.75,23.25,0.5979003900000001,0.5832519549999999,0.9118652349999999,0.49996089659624077,0.5000466309215567,0.49995583383241304,62.25,6.9,94.2,0.20361327999999998,0.53515625,0.81640625,0.4999922059704259,0.4999339838809744,0.4999824801231691,55.35,23.85,28.95
0.03247070500000001,0.505859375,0.47802734500000005,0.5000168537719218,0.5001092495826603,0.4999630283413891,1.65,21.75,23.25,0.60595703,0.572753905,0.912109375,0.49994151148603827,0.5000995903197145,0.49994144490172726,60.6,6.3,93.6,0.20971679499999998,0.5222167950000001,0.8181152349999999,0.4999784831446491,0.4999593644589569,0.499966558967933,55.65,22.35,30.3
0.028808595000000024,0.493896485,0.463134765,0.499997934926429,0.5001997136629825,0.4999473070263524,1.65,21.75,23.25,0.6003417950000001,0.5671386700000001,0.9226074200000001,0.4999273223955519,0.5001172434524338,0.4999539020147305,59.7,7.65,93.75,0.20214843999999998,0.49926758,0.827148435,0.4999840788447639,0.5000186523337161,0.49996742500030783,56.1,22.65,30.3
0.009521484999999984,0.48388672000000005,0.45288086,0.5000155880591484,0.5002282250998438,0.49995663319321043,1.5,22.65,23.55,0.61035156,0.55859375,0.9274902349999999,0.4999477733783286,0.5001502848041021,0.4999421110066363,59.7,7.65,93.75,0.19091797000000002,0.49267577999999995,0.8415527349999999,0.4999681577767943,0.5000392365723811,0.49996515999927105,57.0,22.2,29.85
0.008056640000000016,0.483154295,0.43676758,0.4999952036606826,0.5002711922262346,0.4999251906504035,2.1,21.75,22.35,0.6184082049999999,0.5480957049999999,0.9519042950000001,0.4999419778380144,0.5001785964880304,0.4999205275669744,61.65,4.8,93.6,0.17578125,0.506835935,0.841308595,0.4999742197416188,0.5000850681331404,0.4999350497535486,54.75,23.25,29.85
0.0034179700000000254,0.478759765,0.41748047,0.5000158544836586,0.5002931753462951,0.49993851379578147,1.5,21.6,22.05,0.6184082049999999,0.5485839849999999,0.9846191400000001,0.499966558967933,0.5001929188344052,0.4999025413381674,61.65,6.3,91.8,0.161865235,0.48901367,0.8508300799999999,0.5000270459711548,0.5000625520767927,0.4999411783899505,55.2,22.2,29.85
0.01831054499999999,0.477783205,0.40551758,0.4999980681823174,0.5003046332583015,0.49993764776340666,1.5,21.6,22.05,0.608398435,0.5373535150000001,0.99951172,0.5000033307863445,0.5001679379368213,0.4999319854789809,61.35,6.3,92.55,0.14013672000000002,0.490966795,0.866210935,0.5000781401359411,0.5000891982802823,0.49994684076164275,54.9,20.55,30.3
0.025390625,0.49194336,0.389160155,0.5000213170151515,0.5002876462304913,0.49994737369792985,2.4,22.2,20.85,0.591308595,0.5380859400000001,1.001708985,0.4999883422477942,0.5001940512912904,0.49988475494955975,61.35,6.3,92.55,0.11254883000000002,0.50732422,0.86425781,0.5001393599156492,0.500095660012772,0.49995157042938276,54.9,20.55,30.3
0.03735351500000002,0.49755859500000005,0.380859375,0.5000123905286922,0.5003201546458725,0.4999649601590717,0.3,20.7,20.25,0.5646972650000001,0.5246582049999999,1.00488281,0.5000282450123509,0.5001857243254291,0.49990034300870806,61.5,4.95,91.95,0.08984375,0.5114746099999999,0.8635253900000001,0.500175199117375,0.5001051861070958,0.49999600302148,56.4,22.35,30.75
0.04321289000000002,0.487304685,0.373535155,0.5000027312657465,0.5003113614153015,0.4999540351833524,0.75,21.9,21.0,0.5578613299999999,0.5251464849999999,1.0141601550000001,0.500062818501303,0.5001926524098949,0.4998727641885327,62.4,5.55,95.1,0.06958008000000002,0.506591795,0.8762207049999999,0.5002290244606412,0.5000790727526269,0.5000108583041419,56.4,22.35,30.75
0.03002929499999999,0.49194336,0.357421875,0.500018052813118,0.5003013024719571,0.4999828131319904,1.5,21.6,21.75,0.517578125,0.546875,1.029296875,0.5000937947794003,0.5002742565008024,0.49985178026946886,62.4,5.55,95.1,0.07885741999999998,0.5314941400000001,0.8684082049999999,0.5002518070287657,0.5000590880345598,0.5000111248159187,56.4,21.9,29.25
0.03149414000000002,0.48974609500000005,0.35083008,0.4999961362773684,0.5002736569802043,0.4999648269904498,1.5,21.6,21.75,0.544921875,0.533203125,1.017822265,0.5000923958980048,0.5001953835883749,0.49982986373371924,62.55,5.4,92.4,0.07446289000000002,0.5407714849999999,0.8811035150000001,0.500258002336745,0.5000536255903334,0.5000109249757193,56.1,21.9,30.0
0.027832029999999976,0.48486327999999995,0.359375,0.5000149218669728,0.5002391500755631,0.499977950208362,0.15,22.65,20.4,0.5461425799999999,0.5476074200000001,1.03515625,0.5000947940676636,0.50011098164741,0.49981807272562506,62.7,6.3,93.3,0.08984375,0.57080078,0.8820800799999999,0.500309429597619,0.5000393032439586,0.5000306431820095,56.1,21.9,30.0
0.02856445500000001,0.48413086,0.353027345,0.5000136562414658,0.5001766645830813,0.4999900076409665,0.45,21.15,21.45,0.564453125,0.5676269549999999,1.048095705,0.5001158445710383,0.5000614196199076,0.4998112779843142,63.15,6.0,91.2,0.10083008000000002,0.5808105450000001,0.8698730450000001,0.5003086968211325,0.5000049961795168,0.500064217469965,54.9,23.1,28.95
0.023193359999999986,0.47290039,0.35473633,0.5000225160563477,0.5001727342761387,0.5000045964991181,-0.75,21.6,18.6,0.56982422,0.58544922,1.037109375,0.5001373614263892,0.5000173200366316,0.49983126261511474,63.15,6.0,91.2,0.10302734500000002,0.5817871099999999,0.876464845,0.5003002365993829,0.5000036638824322,0.5000605535875327,55.65,22.65,27.9
0.011474609999999984,0.469970705,0.345214845,0.49998587749382456,0.5001398261803589,0.49999293874691225,-0.75,21.6,18.6,0.58154297,0.60107422,1.01879883,0.5001335642880687,0.4999970023097432,0.4998390566446889,63.6,5.7,93.15,0.127197265,0.596191405,0.8732910150000001,0.5003041669063255,0.4999970688940542,0.5000752090299952,55.65,22.65,27.9
-0.0012207050000000094,0.475341795,0.338134765,0.5000333077761786,0.5000516271010734,0.5000165206758341,-0.75,23.4,19.95,0.5778808599999999,0.6101074200000001,1.006835935,0.5001271692271564,0.5000131233051787,0.4998405221976618,62.25,6.9,93.45,0.126708985,0.591308595,0.8488769549999999,0.5003046332583015,0.49999267232240197,0.5000456317205598,57.15,24.15,28.65
0.008300779999999975,0.482177735,0.3359375,0.500024647801496,0.500038104115496,0.49998740963110844,0.3,22.2,19.8,0.572753905,0.614746095,0.99169922,0.5001291677164164,0.5000075276050638,0.49985977413924243,62.4,5.55,92.55,0.13989258000000002,0.599609375,0.838867185,0.5002803185528932,0.4999780168799394,0.5000399027645567,57.15,24.15,28.65
0.006103515000000016,0.48022461,0.33911133,0.5000114579120064,0.5000115244963174,0.4999995336480239,-0.6,21.75,19.2,0.565429685,0.6252441400000001,0.9765625,0.5000844686125423,0.5000429004548135,0.4998854877260462,63.15,6.3,94.05,0.150146485,0.599121095,0.83984375,0.5002402159481373,0.5000050627638277,0.5000360390419251,55.8,24.75,28.35
0.015380859999999984,0.48828125,0.357910155,0.500053492334445,0.4999855443977368,0.5000564234403908,-1.05,22.2,18.15,0.567871095,0.62841797,0.978515625,0.5001011891285758,0.5000283115966618,0.49991013552754227,63.15,4.8,92.55,0.154296875,0.595703125,0.8474121099999999,0.5001752657016859,0.5000183193248948,0.5000045964991181,57.0,23.25,30.15
0.023925779999999976,0.49609375,0.373291015,0.5000055957001148,0.5000051294354051,0.500034840000729,-1.05,22.2,18.15,0.5593261700000001,0.6328125,0.982421875,0.50008480170863,0.5000295107251244,0.499922459384657,63.6,6.6,93.15,0.15722656499999998,0.59765625,0.853027345,0.5001642741416557,0.5000094594227464,0.500002598009858,57.45,24.6,30.0
0.028320314999999995,0.5041503900000001,0.385498045,0.4999826799633685,0.5000045298275406,0.500037438010587,-1.65,21.45,19.5,0.5681152349999999,0.625,0.97705078,0.5000465643372457,0.5000021983294594,0.4999281883406603,63.6,6.6,93.15,0.15747070500000002,0.58203125,0.842285155,0.5001416914137304,0.5000099256874561,0.4999924058106252,56.7,23.85,28.95
0.041015625,0.5124511700000001,0.39819336,0.49999680246954387,0.500006728157,0.5000371714988102,-1.35,21.0,19.8,0.573242185,0.631347655,0.9958496099999999,0.5000393698282696,0.5000238483534322,0.4999321186476028,62.85,6.9,91.65,0.14965820500000002,0.58642578,0.8371582049999999,0.5001223728878389,0.4999988009588039,0.49997108879547364,54.45,23.7,29.1
0.04418945500000001,0.52294922,0.397216795,0.49996349460609885,0.5000084602217496,0.5000187855896044,0.6,21.75,18.15,0.5769042950000001,0.6281738299999999,0.987304685,0.5000202511425773,0.5000135229855773,0.4999518369411595,62.7,7.05,91.2,0.146728515,0.5871582049999999,0.837890625,0.5001259700986938,0.4999690903934801,0.49997428641319624,56.25,23.7,29.1
0.04565429499999999,0.525878905,0.395751955,0.4999590313628692,0.5000637511179888,0.49999260565082454,0.6,21.75,18.15,0.5720214849999999,0.6271972650000001,0.9836425799999999,0.49999886754311484,0.5000011990411961,0.49993385071235247,62.4,7.5,92.85,0.15185547000000002,0.5915527349999999,0.83691406,0.5000626186611037,0.49998727637522006,0.49996023049133176,56.25,23.7,29.1
0.03930664000000002,0.5205078150000001,0.388183595,0.4999862771742233,0.5000355727772153,0.49999213938611486,0.0,22.95,19.5,0.5617675799999999,0.6193847650000001,0.984375,0.4999956700126587,0.4999990007990032,0.4999679578493285,62.4,7.5,92.85,0.14794922000000002,0.6042480450000001,0.8439941400000001,0.5000432335509012,0.5000333077761786,0.4999422442625247,56.7,24.6,27.9
0.01953125,0.5146484400000001,0.37817383,0.499933184520177,0.5000903974087448,0.49992425803371765,0.15,22.35,18.6,0.556152345,0.6169433599999999,0.9729003900000001,0.499977950208362,0.5000072610932871,0.4999649601590717,62.4,7.5,92.85,0.12768554499999998,0.60595703,0.8488769549999999,0.5000233820887224,0.500046764177445,0.4999751523583046,56.7,24.6,27.9
0.018066404999999976,0.51513672,0.368652345,0.499950571228386,0.5000814042507081,0.4999503047166092,0.3,22.95,18.15,0.5612792950000001,0.610839845,0.986328125,0.49994444259198406,0.4999956700126587,0.49996715848853107,64.2,7.05,92.25,0.11840820500000002,0.6159667950000001,0.8493652349999999,0.5000041301471418,0.5000524931334482,0.49995669986478786,55.2,23.25,27.3
0.014648439999999993,0.50439453,0.362060545,0.49997581855048007,0.5000515605167625,0.4999755520387033,-1.2,21.15,18.9,0.556152345,0.6047363299999999,0.99951172,0.49996436063847366,0.49997488593379424,0.4999954701724594,63.6,5.7,92.7,0.10961914000000002,0.61669922,0.84814453,0.5,0.5000331079359792,0.4999698230827001,56.25,24.3,29.4
0.01953125,0.494873045,0.36254883,0.49996036374722014,0.5001043866590319,0.4999303200858086,-1.2,21.15,18.9,0.556152345,0.604003905,1.0102539050000001,0.499955234311815,0.5000105252953206,0.4999989341274258,63.6,5.7,92.7,0.11206054499999998,0.62207031,0.860839845,0.4999856776536252,0.5000069279971994,0.5000021983294594,56.1,23.85,28.65
0.018066404999999976,0.482421875,0.361328125,0.4999493720999234,0.5000649502464514,0.499939846092866,-0.6,22.2,19.5,0.5646972650000001,0.606933595,1.01196289,0.4999822136113923,0.4999868101105104,0.49999067383314194,63.6,6.15,93.75,0.11059570500000002,0.623535155,0.842773435,0.499975352198504,0.5000186523337161,0.49999034073705423,56.25,24.0,28.35
0.026367189999999995,0.483154295,0.362060545,0.49998381242025364,0.5000776071996539,0.4999449088566937,-1.8,20.85,21.0,0.5612792950000001,0.604003905,1.002197265,0.49996249540510207,0.49996955665818976,0.5000009326166858,64.05,8.1,92.7,0.11987304499999998,0.6267089849999999,0.841308595,0.49994530853709246,0.5000031975304562,0.5000540252707321,56.25,24.0,28.35
0.02075195500000001,0.477783205,0.36669922,0.4999958698528581,0.5001073177649777,0.4999608300119298,-1.5,21.6,17.85,0.5690917950000001,0.5979003900000001,0.9963378900000001,0.49998794256739554,0.4999503047166092,0.5000205842386651,64.95,7.5,91.8,0.12988281499999998,0.618652345,0.84863281,0.49988662018293134,0.5000182526533173,0.5000161209954355,55.5,23.7,27.3
0.017578125,0.481689455,0.368164065,0.5000022649137703,0.5000881324949745,0.4999673583287304,-1.5,21.6,17.85,0.564941405,0.6125488299999999,0.9904785150000001,0.49999540350088195,0.4999327182554673,0.5000205842386651,64.95,7.5,91.8,0.1328125,0.6228027349999999,0.858398435,0.4998842220132726,0.500010791719831,0.500035372937016,55.5,23.7,27.3
0.01489258000000001,0.48291015499999995,0.369873045,0.5000411018057528,0.5000491623471037,0.49996955665818976,-0.45,21.9,19.95,0.5754394549999999,0.62597656,0.971191405,0.49996649238362206,0.4999660260316459,0.5000502282196779,62.85,6.9,91.95,0.14355468999999998,0.607910155,0.853515625,0.49988129099459333,0.4999948039802839,0.5000433668067895,56.25,24.0,27.75
0.01293945500000001,0.49145508,0.373535155,0.5000212503435741,0.5000707457867656,0.4999333843603764,-1.2,21.15,18.6,0.583496095,0.625,0.98095703,0.49997974885742263,0.49994637440966666,0.5000407021253541,63.3,7.35,92.4,0.15332031499999998,0.604003905,0.8479003900000001,0.499854977799925,0.499979882113311,0.5000504280598773,56.4,23.4,28.65
0.019775390000000014,0.505371095,0.376953125,0.5000255137466044,0.5000591547061373,0.49994004593306535,-2.4,22.95,18.45,0.583496095,0.611328125,0.9987792950000001,0.4999778170397401,0.49991533154725837,0.5000477633784418,62.4,6.0,92.55,0.15966797000000002,0.595703125,0.8483886700000001,0.4998581753303811,0.499984611781051,0.500040036020445,56.4,23.4,28.65
0.018554689999999995,0.5124511700000001,0.37817383,0.500048762666705,0.5000316423830063,0.4999391133163796,-2.7,20.7,19.8,0.5881347650000001,0.6359863299999999,0.9777832049999999,0.4999513705891834,0.49996555976693624,0.5000795390173365,63.15,6.0,92.55,0.16796875,0.57910156,0.838867185,0.4998568430332966,0.4999858109095136,0.5000402358606444,55.35,22.35,28.95
0.020507814999999995,0.5061035150000001,0.38574219,0.5000085268060606,0.5000235819289219,0.4999165305884545,-2.7,20.7,19.8,0.5944824200000001,0.6267089849999999,0.9782714849999999,0.4999684242013046,0.49992545716218023,0.5000691469779043,64.2,6.3,92.25,0.17114258000000002,0.56640625,0.8425292950000001,0.49986097318043854,0.4999597641393556,0.500030776437898,54.3,24.15,28.65
0.02612304499999999,0.505859375,0.384277345,0.499970689115075,0.5000273789799761,0.49995170368527114,-2.7,20.7,19.8,0.58642578,0.62158203,0.9689941400000001,0.4999459747292679,0.4999573659696969,0.5000913966097417,62.4,5.25,92.55,0.17651366999999998,0.5642089849999999,0.8542480450000001,0.49984385298400635,0.49999600302148,0.4999922725547368,55.2,23.7,28.8
0.03051758000000001,0.502685545,0.385009765,0.4999723545082472,0.5000050627638277,0.4999604303315311,-0.3,21.45,19.8,0.5866699200000001,0.61279297,0.9626464849999999,0.4999762182308788,0.4999670919042201,0.500079605688914,62.4,5.25,92.55,0.15673827999999998,0.5466308599999999,0.8591308599999999,0.49988308955638744,0.500006728157,0.4999925390665136,56.25,23.7,28.35
0.029541015000000014,0.5021972650000001,0.388183595,0.49998234686728066,0.4999743529975072,0.4999778170397401,-1.2,22.35,18.6,0.5954589849999999,0.59472656,0.978515625,0.4999405122850415,0.49999820135093936,0.5000704793622552,62.25,8.4,92.4,0.16357422000000002,0.5412597650000001,0.8518066400000001,0.49990533918822483,0.5000047963393174,0.4999609632678182,56.25,23.7,28.35
0.02856445500000001,0.49853515499999995,0.388183595,0.4999334510319538,0.4999996669039123,0.49997721743187556,-0.3,21.0,19.5,0.5998535150000001,0.591308595,0.9978027349999999,0.4999481064744163,0.49999160644982776,0.5000712787230527,63.75,6.0,92.55,0.14941406499999998,0.5378417950000001,0.846191405,0.4999354494339473,0.4999977350862297,0.49995603367261243,57.15,23.85,30.0
0.03002929499999999,0.49145508,0.376953125,0.49993071976620734,0.49999034073705423,0.49997934917702397,-0.3,21.0,19.5,0.5954589849999999,0.592773435,1.00415039,0.4999533024068659,0.49999913396762513,0.5000777404555423,63.15,6.0,92.85,0.15087890499999998,0.536621095,0.856933595,0.49997681775147684,0.4999889417683923,0.49993904673206857,57.15,23.85,30.0
0.029541015000000014,0.493164065,0.37451172,0.4999267227876873,0.4999696899140782,0.49998441194085164,0.3,21.75,18.75,0.5871582049999999,0.58203125,1.005859375,0.49998081472999684,0.4999984678627162,0.5000394364125805,63.45,6.3,91.8,0.13989258000000002,0.5498046900000001,0.85253906,0.4999719548278485,0.5000062618922902,0.499957832321673,55.65,24.15,29.25
0.026855470000000024,0.49511719,0.35839844,0.4999155313874577,0.5000071278373986,0.49994304362332215,-0.45,20.55,19.95,0.5798339849999999,0.5852050799999999,0.9987792950000001,0.5000062618922902,0.49999007431254394,0.5000543583668198,62.25,6.15,92.7,0.13403320500000002,0.5556640650000001,0.8395996099999999,0.5000109249757193,0.49997768378385166,0.49994650766555504,54.9,22.35,30.0
0.01831054499999999,0.49755859500000005,0.34375,0.4999327182554673,0.4999748192622168,0.4999751523583046,-2.1,21.45,20.25,0.5739746099999999,0.5798339849999999,0.9919433599999999,0.49998674352619943,0.49999960031960133,0.5000568231207895,61.95,5.55,93.3,0.12329101500000002,0.5544433599999999,0.8425292950000001,0.5000068614128884,0.49999460414008456,0.4999597641393556,56.25,23.7,30.15
0.012207029999999975,0.49291992,0.345703125,0.4999171967806299,0.4999431768792105,0.4999828798035678,-1.2,20.55,19.35,0.5588378900000001,0.5817871099999999,0.9787597650000001,0.5000012657127736,0.5000087932305709,0.5000558905041037,61.95,5.55,93.3,0.12841797000000002,0.5622558599999999,0.83691406,0.4999885420879936,0.5000071945089761,0.49995263630195697,55.65,25.65,29.25
0.01953125,0.49267577999999995,0.34326172,0.49989341501150875,0.4999580321618724,0.49998734304679743,-1.2,20.55,19.35,0.549316405,0.5859375,0.9807128900000001,0.5000023315853478,0.5000015321372838,0.5000654165111611,61.8,5.7,90.9,0.11840820500000002,0.5634765650000001,0.841308595,0.49994231084683566,0.5000045964991181,0.49993651530652145,56.4,23.1,29.25
0.019042970000000024,0.486572265,0.344726565,0.4999076707735725,0.49992912095734604,0.500005196019716,-0.75,22.65,19.35,0.5524902349999999,0.5842285150000001,0.98925781,0.49999820135093936,0.500015388218949,0.5000704793622552,62.4,6.0,92.55,0.11938476500000002,0.5656738299999999,0.84716797,0.4999708889552743,0.4999993338078245,0.49992812175634926,55.5,22.95,28.35
0.023681640000000014,0.47802734500000005,0.353027345,0.4998988108714242,0.49995363550295374,0.5000277120760638,-0.6,20.7,19.2,0.557128905,0.5817871099999999,1.0014648449999999,0.49997108879547364,0.5000129234649794,0.5000336408722663,63.15,7.05,92.25,0.12280273499999998,0.5739746099999999,0.8381347650000001,0.49991959495028865,0.4999956033410813,0.4999360490418118,55.5,22.95,28.35
0.02416991999999999,0.482177735,0.358154295,0.4999059387088229,0.49997655132696656,0.5000255804181818,-0.6,22.2,19.5,0.56201172,0.5910644549999999,1.00097656,0.49999333842731103,0.4999962029489458,0.5000419012538166,63.15,7.05,92.25,0.1171875,0.57128906,0.8366699200000001,0.4999585650981595,0.49998414551634135,0.49995430169512917,57.3,21.0,29.4
0.021728515000000014,0.48071289,0.35595703,0.49994337671940986,0.49994943877150083,0.5000213170151515,-0.6,22.2,19.5,0.5656738299999999,0.58935547,1.001953125,0.4999723545082472,0.49997688442305427,0.5000646171503637,62.25,6.6,93.15,0.11791991999999998,0.575683595,0.8288574200000001,0.4998940812036842,0.4999791493368246,0.4999458414733795,56.4,22.35,29.7
0.0234375,0.478271485,0.35888672,0.4999333843603764,0.49995530089612594,0.5000279119162632,-1.5,21.15,18.9,0.5634765650000001,0.5905761700000001,0.9958496099999999,0.5000028644343684,0.4999796822731117,0.5000678813523972,63.15,6.75,92.85,0.12158202999999998,0.5703125,0.846679685,0.4998658361040669,0.49996489357476076,0.499971222051362,56.4,22.65,29.7
0.017578125,0.48120117,0.350341795,0.4999421110066363,0.4999678912650175,0.5000059953805135,-1.2,20.85,19.35,0.5634765650000001,0.5808105450000001,0.9953613299999999,0.4999902741527433,0.4999782167201388,0.5000771408476778,63.15,6.75,92.85,0.12915039,0.57373047,0.8513183599999999,0.4998655696795566,0.49998927486448,0.4999962029489458,57.3,23.7,29.1
0.010253904999999975,0.47900390499999995,0.352783205,0.4999548346314163,0.49996782468070655,0.5000438330714992,-0.45,21.15,19.95,0.5891113299999999,0.5778808599999999,0.9958496099999999,0.49998601074971294,0.500062751916992,0.5000628851728804,63.15,5.25,93.3,0.13134765499999998,0.569335935,0.849121095,0.4998190720138883,0.4999928054910239,0.49995017154798727,57.0,24.0,29.85
0.009765625,0.486083985,0.34716797,0.4999617626286156,0.4999682909454162,0.500024048280898,-0.6,22.95,19.5,0.561035155,0.5773925799999999,0.99267578,0.4999640275423859,0.49999786834211807,0.500093594939201,63.45,6.3,92.85,0.12377929499999998,0.57373047,0.8425292950000001,0.4998519801096682,0.5000047963393174,0.49996589277575754,54.75,24.3,30.45
0.010742189999999993,0.482666015,0.35131836,0.4999431102948996,0.49995823200207173,0.49999453755577355,-0.6,22.95,19.5,0.584472655,0.5637207049999999,1.006835935,0.49995496780003823,0.4999807480584194,0.5001040535629442,61.65,6.3,93.6,0.123046875,0.568847655,0.84716797,0.4998018851458787,0.4999722212523588,0.4999860773340239,54.75,24.3,30.45
0.006347654999999975,0.471435545,0.350097655,0.4999936049390878,0.4999381141153828,0.49998334606827743,-0.3,22.5,20.25,0.5769042950000001,0.5803222650000001,1.010009765,0.4999640275423859,0.4999743529975072,0.5000856676537384,61.65,6.3,93.6,0.12988281499999998,0.5705566400000001,0.8552246099999999,0.49978969445738586,0.49996782468070655,0.4999592312030685,55.8,22.95,28.35
0.006103515000000016,0.469970705,0.352539065,0.5000099923590335,0.49995250304606853,0.4999954701724594,-0.6,21.45,20.55,0.5754394549999999,0.591796875,1.0151367199999999,0.4999431768792105,0.49996649238362206,0.5001127136248932,61.35,6.0,92.25,0.12915039,0.5661621099999999,0.857910155,0.49977030934718336,0.4999922725547368,0.4999898078007671,55.8,22.95,28.35
0.015136720000000025,0.467041015,0.361083985,0.4999858109095136,0.49992998698972085,0.4999810811545071,-0.75,23.1,19.35,0.6008300799999999,0.603027345,1.001220705,0.4999032075303429,0.49997961560153426,0.5001371615861899,62.7,5.25,92.85,0.13623047000000002,0.5625,0.8527832049999999,0.49973780093180215,0.4999675581689298,0.4999944042998852,55.8,22.95,28.35
0.012695314999999993,0.47290039,0.36669922,0.4999986010313381,0.499935849114346,0.4999825467074801,-0.75,23.1,19.35,0.5856933599999999,0.5595703150000001,1.01147461,0.49991806281300477,0.4999108017197177,0.500127568907555,61.5,5.4,93.15,0.130615235,0.5695800799999999,0.8469238299999999,0.49974019910146084,0.5000201845582664,0.4999842121006523,56.4,21.15,30.75
0.023925779999999976,0.47338867,0.36743164,0.5000094594227464,0.4999115344962042,0.49998827566348325,0.0,22.2,19.2,0.5739746099999999,0.58642578,0.9982910150000001,0.499893148499732,0.4999576324814737,0.5001390934038724,61.5,5.4,93.15,0.130859375,0.56689453,0.854003905,0.499725943339397,0.4999956033410813,0.4999831462280781,56.4,21.15,30.75
0.03002929499999999,0.467773435,0.37426758,0.5000029311059457,0.49993851379578147,0.49995829858638274,0.3,22.5,20.25,0.6164550799999999,0.5778808599999999,1.006591795,0.49993451681726153,0.49989341501150875,0.5001500849639027,62.55,5.7,92.7,0.13671875,0.5451660150000001,0.854003905,0.49971415233130284,0.5000067948285775,0.49999960031960133,56.55,22.2,31.2
0.03564452999999997,0.463378905,0.372070315,0.5000193185258915,0.4999200612149983,0.4999820803555039,-0.15,21.9,19.65,0.581054685,0.573242185,0.9875488299999999,0.4999228591523222,0.49990906965496806,0.5001788629125407,60.6,6.0,94.35,0.14501952999999998,0.5437011700000001,0.853515625,0.4997134196420829,0.5000111914002296,0.5000311095339858,54.75,22.95,30.9
0.03125,0.466308595,0.37426758,0.5000078606138851,0.49990327411465385,0.49998727637522006,-0.15,21.15,18.3,0.5905761700000001,0.58300781,0.986328125,0.4999144655148835,0.4999389134761802,0.5001786630723414,61.8,6.6,94.5,0.13354491999999998,0.5368652349999999,0.8547363299999999,0.4997240115217144,0.49997202141215946,0.4999858109095136,55.35,22.65,30.0
0.03247070500000001,0.46582031,0.37817383,0.4999914731939394,0.4999499717077879,0.49997415315730787,-0.15,21.15,18.3,0.6076660150000001,0.5769042950000001,0.9865722650000001,0.4999339838809744,0.49994757353812924,0.5001872565499794,61.8,6.6,94.5,0.14306640499999998,0.5422363299999999,0.864746095,0.49970749084588034,0.4999503713881866,0.5000044632432297,55.65,22.65,31.05
0.019775390000000014,0.466552735,0.38330078,0.5000061952207129,0.4999106017922519,0.500006661572689,-0.3,21.45,19.5,0.5859375,0.568359375,1.001220705,0.4999270558837751,0.49990187514599194,0.5001642741416557,61.65,5.25,94.35,0.14013672000000002,0.5390625,0.861816405,0.49970036292121517,0.49994943877150083,0.5000003996803987,55.65,22.65,31.05
0.023925779999999976,0.467773435,0.37963867,0.4999970023097432,0.49991213401680223,0.4999832794839665,-0.15,21.9,20.4,0.5876464849999999,0.5622558599999999,0.9921875,0.4999205275669744,0.4999473070263524,0.500176464742882,62.4,6.0,92.85,0.146728515,0.5285644549999999,0.8671875,0.49968417534146875,0.499949172259724,0.5000044632432297,56.4,22.65,29.7
0.03173827999999997,0.47753906,0.38183594,0.4999537687588421,0.499919728206177,0.49995143717349433,-0.15,21.6,18.9,0.59863281,0.5595703150000001,0.990234375,0.499937181498697,0.4998801585377082,0.5001765314144594,62.85,6.9,93.45,0.146240235,0.5246582049999999,0.8615722650000001,0.49972494413840024,0.49996749158461884,0.49999500382048323,55.35,21.9,30.75
0.03833008000000001,0.48193359500000005,0.388671875,0.49993138587111635,0.4999175964610287,0.499939846092866,-0.15,21.6,18.9,0.58544922,0.5490722650000001,0.9792480450000001,0.49994124506152793,0.49991872891791383,0.5001728009477162,61.95,6.75,92.25,0.14404297000000002,0.5185546900000001,0.861816405,0.49971888208630927,0.4999542351108182,0.4999894081203684,56.1,21.6,31.05
0.03637695500000001,0.47900390499999995,0.39038086,0.49993591578592345,0.4998832893965868,0.4999333843603764,0.3,21.0,19.8,0.5920410150000001,0.55517578,0.99169922,0.4999407787095518,0.49989148319382615,0.5001736003085137,61.65,6.3,93.6,0.14306640499999998,0.5185546900000001,0.8737792950000001,0.49972627643548473,0.4999570995451866,0.49998101457019617,56.55,22.5,30.9
0.033203125,0.482421875,0.388671875,0.4999011424567719,0.4998892848643668,0.4999205275669744,0.6,22.95,20.25,0.587890625,0.560058595,0.9870605450000001,0.49994863932343697,0.49989514698899196,0.5001789295841181,61.8,4.65,93.75,0.146484375,0.5134277349999999,0.86328125,0.49973067309440344,0.499949172259724,0.5000219165357496,56.25,22.2,31.2
0.02465820500000001,0.479492185,0.390625,0.499901808561681,0.4999209272473732,0.49993291809566665,0.0,23.25,19.5,0.599609375,0.5485839849999999,0.9919433599999999,0.49996542651104786,0.4999115344962042,0.5001730673722266,61.8,4.65,93.75,0.13623047000000002,0.518066405,0.8552246099999999,0.49974333004760596,0.4999172633649409,0.5000166539317226,54.75,21.75,30.45
0.019042970000000024,0.47705077999999995,0.38232422,0.49988575423782294,0.4998872863751068,0.4999462411537783,1.05,21.45,20.55,0.6015625,0.561035155,0.99169922,0.4999670919042201,0.49991013552754227,0.500185124804831,61.8,6.9,93.75,0.15917968999999998,0.521484375,0.8654785150000001,0.49975298931055173,0.4999253904906028,0.4999996669039123,54.75,21.75,30.45
0.025390625,0.48120117,0.396728515,0.49983299459259795,0.4998832893965868,0.49988022512201913,1.05,21.45,20.55,0.603515625,0.5773925799999999,0.9860839849999999,0.49996649238362206,0.49991213401680223,0.5002267595468709,60.9,5.55,92.85,0.150390625,0.51904297,0.8513183599999999,0.4997358024425421,0.499967225072842,0.50000199848926,55.8,20.7,31.2
0.026367189999999995,0.471435545,0.39526367,0.4998192718540877,0.4998842220132726,0.49986370444618494,1.05,21.45,20.55,0.6003417950000001,0.5703125,0.9934082049999999,0.4999682909454162,0.49988475494955975,0.5001969158129251,61.35,5.25,94.05,0.14599609500000002,0.5173339849999999,0.8479003900000001,0.49973240507188665,0.4999604303315311,0.499993271843,55.8,20.7,31.2
0.028320314999999995,0.46020508,0.39501953,0.4998281316689696,0.4998552442244353,0.4999002098400861,0.45,21.15,21.45,0.6013183599999999,0.5632324200000001,0.9831542950000001,0.49995769906578463,0.4999145321864609,0.5002160344986174,61.35,5.25,94.05,0.15625,0.51171875,0.8503417950000001,0.49974019910146084,0.4999818139309936,0.49999333842731103,56.4,21.6,31.8
0.01440429499999999,0.455810545,0.39794922,0.4997958230937878,0.49989954364791067,0.49987429632581654,0.6,21.75,20.55,0.5993652349999999,0.572753905,0.989746095,0.49999593643716905,0.49988142416321524,0.50022669296256,61.35,6.3,93.6,0.13940429499999998,0.528808595,0.8515625,0.4997153514597654,0.499986610270311,0.5000113912404289,55.2,22.5,32.25
0.017089845000000024,0.45800781,0.39819336,0.4997617159568118,0.4999028078499442,0.499883689164252,0.75,21.9,19.35,0.59863281,0.5729980450000001,0.9870605450000001,0.4999783498887607,0.4999229923209441,0.5002278920037561,61.05,5.7,93.15,0.142333985,0.5224609400000001,0.85205078,0.4997498583644066,0.49999127335374005,0.5000093928384355,56.1,21.9,31.35
0.01098633000000001,0.45629883,0.396484375,0.4997934250113955,0.4998792925053333,0.49992265922485635,0.75,21.9,19.35,0.596191405,0.567871095,0.9992675799999999,0.4999696899140782,0.4999209272473732,0.5002191653574961,61.05,5.7,93.15,0.14746093999999998,0.5212402349999999,0.83691406,0.4997314724552009,0.4999736202210207,0.5000029976902568,55.8,22.2,33.75
0.001953125,0.44897461,0.390625,0.49975738588220403,0.4999360490418118,0.49989041732125195,3.15,21.75,19.8,0.60253906,0.5634765650000001,0.9895019549999999,0.4999837457486762,0.49993438364863957,0.5002338207999586,60.6,6.3,94.35,0.14965820500000002,0.5207519549999999,0.84326172,0.49969703213487066,0.49996849078561556,0.5,55.65,20.85,32.4
-0.003662109999999984,0.450683595,0.381103515,0.49975985072344015,0.49990860339025833,0.49990140888128226,0.75,22.35,19.95,0.62109375,0.5686035150000001,1.00073242,0.4999986677029155,0.4999397128369776,0.5002683277045997,61.5,6.15,93.15,0.14916991999999998,0.506347655,0.841796875,0.4996758483756075,0.5000166539317226,0.49997788362405104,55.2,19.95,32.25
-0.019287109999999986,0.44482422,0.384765625,0.49976970982658525,0.49988662018293134,0.4999422442625247,1.5,22.65,21.0,0.59863281,0.561035155,1.01245117,0.4999859440781355,0.49995809874618335,0.5002944410590687,60.75,6.9,94.2,0.14208984500000002,0.51513672,0.8464355450000001,0.49965053446920243,0.5000223828877257,0.4999836791643652,55.2,19.95,32.25
-0.017333984999999986,0.43676758,0.3828125,0.49976464697549106,0.49988435526916103,0.49991106814422803,0.45,22.35,19.95,0.61279297,0.553222655,0.995117185,0.4999600972354434,0.5000029311059457,0.500273990076292,60.75,6.9,94.2,0.13989258000000002,0.513183595,0.8425292950000001,0.4996850413738436,0.5000077274452632,0.5000003330960877,55.2,19.95,32.25
-0.01855469000000005,0.43725586,0.373779295,0.4997344035611467,0.4998681676894146,0.4999473070263524,0.45,22.35,19.95,0.611328125,0.5505371099999999,1.006103515,0.49997994869762197,0.500033441032067,0.5002789195842313,60.15,6.3,96.15,0.14404297000000002,0.509033205,0.8249511700000001,0.4996442059926011,0.500022116375949,0.5000123238571148,54.0,21.0,32.25
-0.024169920000000046,0.438720705,0.384277345,0.49975971746755177,0.49984791654683725,0.49994977178032207,0.3,22.95,21.9,0.6110839849999999,0.541503905,1.00073242,0.500011258071807,0.5000305765976986,0.5002643973976572,60.75,6.9,94.5,0.13354491999999998,0.517578125,0.8264160150000001,0.49963767767580053,0.5000832028997688,0.5000045298275406,55.5,21.75,33.0
-0.034423829999999954,0.431884765,0.376220705,0.4997431967917176,0.4998674349129282,0.49999233922631425,1.65,20.7,21.3,0.604003905,0.5478515650000001,1.005859375,0.5000129234649794,0.5000319088947831,0.5002816508499778,60.0,6.6,93.45,0.134765625,0.51171875,0.8308105450000001,0.4996711852921785,0.5000742098289984,0.49999873428722647,54.9,22.35,33.45
-0.023681640000000014,0.447021485,0.380371095,0.4997583851704672,0.499877693696472,0.5000057289560033,0.15,23.4,21.75,0.608398435,0.53857422,0.9890136700000001,0.4999986677029155,0.49998934153605745,0.5002869801255824,58.95,6.15,94.8,0.13427734500000002,0.5146484400000001,0.81689453,0.4996599938919488,0.5000903307371675,0.5000076607736857,55.65,20.1,32.85
-0.03027344000000005,0.44995117,0.37890625,0.4997885620005007,0.4998633047657863,0.5000270459711548,0.15,23.4,21.75,0.59082031,0.5432128900000001,0.97753906,0.5000173200366316,0.5000292443006141,0.5003152917222441,60.6,7.8,94.05,0.138427735,0.493408205,0.8181152349999999,0.4996174931175341,0.5001129800494035,0.5000131233051787,55.65,20.55,33.45
-0.03222656500000005,0.454589845,0.38696289,0.4997523231183763,0.4999016753057926,0.5000365053939012,2.25,23.85,22.05,0.576660155,0.53857422,0.981933595,0.5000472971137321,0.5000496952833908,0.50029004440015,60.0,7.35,93.75,0.13671875,0.5078125,0.8347167950000001,0.49959224579544004,0.5001343637361324,0.5000389701478708,54.75,20.7,33.3
-0.030029295000000046,0.45336914,0.388671875,0.49972507730702215,0.49991593106785637,0.5000389035635598,-0.3,23.7,21.9,0.596191405,0.544433595,0.999023435,0.5000623522365933,0.500025313906405,0.5002855145726094,60.0,7.35,93.75,0.12963866999999998,0.5002441400000001,0.83154297,0.49961742653322316,0.5001478867217098,0.5000498951235901,54.75,20.7,33.3
-0.031005859999999986,0.459716795,0.392333985,0.4997495252683189,0.4999106684638293,0.5000873330469107,2.25,24.15,21.75,0.59375,0.548339845,0.998046875,0.5001039869786332,0.5000345069046412,0.5002865137736061,61.05,6.15,94.2,0.12426758000000002,0.49584961,0.8083496099999999,0.4996240214343348,0.5001508844119666,0.500047430282354,54.6,20.85,32.85
-0.021972655000000032,0.46533203,0.400634765,0.4997465275780621,0.49996502683064914,0.5000885987596843,1.5,25.65,21.75,0.57519531,0.5358886700000001,0.9841308599999999,0.5000650168307623,0.5000489625069043,0.5002942412188693,60.75,6.9,93.45,0.13964843999999998,0.48852539,0.8068847650000001,0.49961636066064896,0.5001101821993461,0.5000559570884147,54.6,20.85,32.85
-0.021240234999999986,0.462158205,0.392333985,0.49972307890502865,0.5000074609334864,0.5000718782436507,1.5,25.65,21.75,0.5803222650000001,0.5476074200000001,0.9621582049999999,0.5001135129856906,0.49993351761626476,0.5002755222135759,60.75,7.65,94.2,0.123046875,0.509765625,0.8107910150000001,0.4995913131787542,0.500139759596048,0.5000486959951276,56.55,20.25,30.45
-0.015136719999999968,0.45385742,0.392822265,0.49974805971534597,0.5000126569532025,0.5001167771877242,4.05,24.6,21.45,0.59472656,0.556640625,1.002685545,0.5000684808729953,0.5000269127152663,0.500308097213268,60.75,7.65,94.2,0.12402344,0.48974609500000005,0.814453125,0.4995885153286968,0.5001660727034498,0.5000737434770224,55.5,19.5,33.75
-0.019775390000000014,0.478515625,0.395507815,0.49971821589413384,0.5000664157994243,0.5001053192757177,2.55,24.9,22.5,0.5793457049999999,0.560546875,0.97998047,0.5001005896079778,0.5000308430222089,0.5003192887007641,58.95,8.1,94.2,0.11694335999999998,0.466064455,0.8142089849999999,0.4995760582156937,0.5001384272989634,0.5000364387223237,56.4,21.15,33.15
-0.021728515000000014,0.497802735,0.39501953,0.49971988128730604,0.5000979915981196,0.5001325650870718,1.65,25.5,21.6,0.57128906,0.5310058599999999,0.99658203,0.50010225500115,0.4999517702695821,0.5002950405796668,58.8,8.1,93.45,0.12011719,0.47900390499999995,0.8215332049999999,0.4995456814581944,0.5001521500374737,0.5000590214502488,55.5,21.45,33.0
-0.031005859999999986,0.490478515,0.387939455,0.49972434453053577,0.5001342304802441,0.5001485528266189,1.65,25.5,21.6,0.59423828,0.5419921900000001,0.9914550799999999,0.5000444325920973,0.500033441032067,0.5003048996828119,58.8,9.0,94.05,0.11352539000000002,0.46582031,0.8391113299999999,0.4995019149710061,0.5001705359466794,0.5000500282922121,55.65,19.8,32.4
-0.025634765000000014,0.502685545,0.392578125,0.49971255360970807,0.5001708690427672,0.5001102488709235,0.6,25.5,22.35,0.59472656,0.53515625,1.002685545,0.5000644838944752,0.5000012657127736,0.5003049662671228,58.8,9.0,94.05,0.10888672000000002,0.462890625,0.8400878900000001,0.4994684073546282,0.5001466875932473,0.5000718116593398,58.35,20.25,32.25
-0.022705079999999954,0.49951172000000005,0.392089845,0.49970142879378937,0.5001566799522807,0.5001148453700416,0.15,26.4,20.7,0.604492185,0.5251464849999999,1.006103515,0.5000710122112759,0.5000319754790941,0.5003124272878757,59.7,9.6,93.15,0.11328125,0.455322265,0.8400878900000001,0.49953022665493446,0.5000953269166842,0.5000659494474482,58.35,20.25,32.25
-0.016357420000000046,0.5183105450000001,0.39404297,0.4997423974309202,0.5001576125689666,0.5001104487111229,0.6,27.0,21.3,0.60644531,0.5251464849999999,1.00805664,0.500068281032796,0.5000158544836586,0.5002639310456811,59.55,8.55,94.05,0.10913085999999998,0.456054685,0.8249511700000001,0.4995364885472247,0.5000860674214036,0.5000723445956269,55.65,20.1,32.4
-0.007568359999999984,0.5324707049999999,0.395996095,0.49973433688956925,0.5001868567823142,0.5001207074946667,-0.3,27.0,21.9,0.6018066400000001,0.52783203,0.9958496099999999,0.5001062518924035,0.49997735068776394,0.5002813177538901,59.25,8.85,94.5,0.12182616999999998,0.44848633,0.8288574200000001,0.49955927102808273,0.5000911301852313,0.5000726776044482,55.8,19.2,32.25
-0.001953125,0.5441894549999999,0.392578125,0.49970595862132994,0.500236552065705,0.5000792060085153,-0.3,27.0,21.9,0.59814453,0.5275878900000001,0.9724121099999999,0.5000870000380894,0.49997308728473366,0.5002589348661644,59.25,8.85,94.5,0.12133789000000002,0.434570315,0.8308105450000001,0.4995973085592677,0.500113579657268,0.5000921960578055,56.25,20.25,31.5
0.005371095000000025,0.5388183599999999,0.390625,0.49975478787234595,0.5002413484050224,0.5000903307371675,2.1,27.0,22.35,0.60107422,0.5334472650000001,0.963378905,0.5001164440916364,0.4999503047166092,0.5002288912920193,58.35,10.05,94.05,0.12426758000000002,0.415771485,0.814941405,0.49959517690138583,0.5001297006527035,0.5001006561922887,57.0,19.2,31.95
0.015136720000000025,0.5412597650000001,0.390625,0.49974979178009565,0.5002402159481373,0.5000657496072488,1.8,27.15,21.0,0.6105957049999999,0.57519531,0.979492185,0.5001287679487512,0.5000241148652089,0.5002055092032968,58.95,9.9,94.2,0.13647461,0.40283203,0.81591797,0.49963028332662507,0.5001340972243556,0.500088931855772,56.4,19.05,32.4
0.014160154999999975,0.5341796900000001,0.389160155,0.49979788816735876,0.5002912435286127,0.5000432335509012,0.3,26.25,21.6,0.60644531,0.5549316400000001,0.9665527349999999,0.5000117910080942,0.5000480964745295,0.5002389502353638,59.7,7.65,93.45,0.138916015,0.3984375,0.807128905,0.4996405421101689,0.5001706692025678,0.500104919595319,56.25,20.25,32.55
0.01953125,0.5341796900000001,0.38330078,0.4998118108333348,0.5002676615124243,0.5000113912404289,0.3,26.25,21.6,0.5974121099999999,0.54638672,0.942871095,0.5000009992009967,0.5000756753819714,0.5002287580361309,58.2,10.35,94.5,0.13525390499999998,0.39379883,0.8205566400000001,0.49970729100568095,0.5001974486619458,0.5001110482317209,56.25,20.25,32.55
