IMU1_AccX,IMU1_AccY,IMU1_AccZ,IMU1_GyrX,IMU1_GyrY,IMU1_GyrZ,IMU1_MagX,IMU1_MagY,IMU1_MagZ,IMU2_AccX,IMU2_AccY,IMU2_AccZ,IMU2_GyrX,IMU2_GyrY,IMU2_GyrZ,IMU2_MagX,IMU2_MagY,IMU2_MagZ,IMU3_AccX,IMU3_AccY,IMU3_AccZ,IMU3_GyrX,IMU3_GyrY,IMU3_GyrZ,IMU3_MagX,IMU3_MagY,IMU3_MagZ
0.03833008000000001,0.48388672000000005,0.405029295,0.5000844686125423,0.5000580888335631,0.4999321186476028,2.7,23.25,22.95,0.6101074200000001,0.462402345,1.00488281,0.49991832923751506,0.4998852878858468,0.49983232848768894,58.8,5.55,94.35,0.12768554499999998,0.38208008,0.87939453,0.5002589348661644,0.4998248675542025,0.4999776171122743,57.0,15.9,31.5
0.04516601500000002,0.47119140499999995,0.407714845,0.500106851500268,0.5000173200366316,0.49990886981476873,1.5,24.9,22.5,0.6188964849999999,0.459960935,0.989746095,0.4999795490172233,0.4998649701589585,0.49979275881922003,59.55,5.25,94.35,0.146728515,0.40673828,0.8815917950000001,0.5002774540312585,0.4998518468537798,0.4999736202210207,57.3,16.2,31.2
0.030273439999999995,0.463378905,0.41357422,0.5001131799768693,0.4999888085997704,0.49994757353812924,2.7,21.45,21.6,0.665527345,0.47241211,0.9763183599999999,0.500020117886689,0.4998492488439218,0.49979175961822325,57.45,4.95,94.2,0.17651366999999998,0.467041015,0.87109375,0.5003176233075919,0.49983845712409086,0.4999652932551594,56.7,16.8,32.1
0.03930664000000002,0.4453125,0.42236328,0.5001378276910989,0.49990980243145444,0.49996715848853107,1.35,22.2,20.85,0.662109375,0.5280761700000001,0.9826660150000001,0.5000821370271946,0.4998601738196411,0.499752722798775,57.45,4.95,94.2,0.17944336,0.49755859500000005,0.865722655,0.5003567266240847,0.4998998767439984,0.49997894949662525,56.25,16.65,31.95
0.04467773499999998,0.459716795,0.422851565,0.5001455551363622,0.4998374579230941,0.49996442722278467,1.35,22.2,20.85,0.6640625,0.5537109400000001,0.9621582049999999,0.5000965926294577,0.4998825566201004,0.49977563862278784,58.8,5.25,95.1,0.189453125,0.5417480450000001,0.8537597650000001,0.500361522963402,0.4999046064117384,0.4999948039802839,56.25,16.65,31.95
0.05590820500000001,0.473876955,0.435791015,0.5001548813032202,0.4997979548389362,0.4999898078007671,3.3,21.15,22.5,0.6613769549999999,0.579589845,0.9675292950000001,0.5001212404309537,0.4999199280463764,0.49977270751684205,58.35,6.75,94.65,0.19873047000000002,0.568359375,0.833984375,0.5003491324347098,0.4999191285983125,0.5000118575924052,56.7,17.1,31.35
0.05126952999999997,0.490966795,0.43408203,0.5001652067583414,0.49979016080936195,0.500006062052091,2.7,22.5,21.3,0.6359863299999999,0.5935058599999999,0.966308595,0.5000926623225151,0.4999153981315693,0.4997866301828181,59.55,5.55,94.65,0.19482422000000002,0.55859375,0.82470703,0.5003375413540815,0.49995963097073365,0.4999922725547368,56.7,17.1,31.35
0.04833984500000003,0.501953125,0.43408203,0.5001857243254291,0.49976524658335564,0.5000013322970845,2.4,20.7,22.35,0.630371095,0.607421875,0.9587402349999999,0.5001029877776364,0.499922459384657,0.49981793955700315,59.55,4.8,93.3,0.19067383000000002,0.5588378900000001,0.81689453,0.5003332779510512,0.4999794157613349,0.5000122572728039,57.45,17.85,32.4
0.03613281499999999,0.5021972650000001,0.43359375,0.5001394930842712,0.49978896168089937,0.4999746860935949,2.4,20.7,22.35,0.6218261700000001,0.5969238299999999,0.95361328,0.5000883323351739,0.4999493055156124,0.4998130099617974,58.8,5.55,94.05,0.17236327999999998,0.544433595,0.81689453,0.5003234188479061,0.5000224494720368,0.5000175865484083,56.55,16.95,31.95
0.02026366999999999,0.50097656,0.423095705,0.5001595443866491,0.4997595842116634,0.4999890750242807,4.35,22.35,22.8,0.611816405,0.591308595,0.9538574200000001,0.500047430282354,0.4999309196064067,0.49982866460525666,58.8,5.25,94.65,0.17089843999999998,0.5166015650000001,0.8112792950000001,0.5003076975328693,0.5000223162161483,0.5000041968187193,57.0,17.7,31.95
0.009521484999999984,0.48583984500000005,0.427246095,0.5001525498051389,0.49976418071078144,0.4999776171122743,3.15,21.45,23.25,0.6032714849999999,0.5764160150000001,0.947753905,0.500018585749405,0.49993917990069053,0.4998539785989282,58.8,5.25,94.65,0.16430664,0.49902344,0.8142089849999999,0.500271991587032,0.5000509609088979,0.5000195183660909,57.0,17.4,31.5
0.0024414049999999746,0.477783205,0.434570315,0.5001439563275007,0.4998192051825102,0.4999299204054099,3.6,21.15,23.55,0.58935547,0.5573730450000001,0.9460449200000001,0.500013323145378,0.4999269892994641,0.4998874196309952,58.2,6.15,94.2,0.15332031499999998,0.486328125,0.81689453,0.5002543384543128,0.4999976018303413,0.5000390367321818,56.1,17.1,32.1
0.008789064999999993,0.47412109500000005,0.44189453,0.5001630084288821,0.4998234685855406,0.49998414551634135,3.15,21.45,23.7,0.59716797,0.5517578150000001,0.947265625,0.5000114579120064,0.499957832321673,0.4999012756253938,57.15,4.65,95.25,0.157958985,0.47290039,0.8122558599999999,0.5002211638467561,0.49999293874691225,0.5000710788828533,57.15,19.05,31.35
0.005371095000000025,0.466796875,0.44897461,0.5001785299037195,0.4998772940160733,0.49998041504959817,3.15,21.45,23.7,0.599121095,0.5383300799999999,0.94970703,0.5000165872601451,0.4999842121006523,0.4998882189917926,57.45,5.4,94.8,0.15600586,0.48461914,0.8151855450000001,0.5002221631350193,0.4999838790045646,0.5000919961303397,57.15,19.05,31.35
0.003662109999999984,0.47973633,0.44897461,0.500144955615764,0.49993051992600795,0.49992858802105894,3.45,22.2,24.0,0.5959472650000001,0.5227050799999999,0.94580078,0.5000209173347528,0.4999966692136555,0.4998466508340637,57.45,6.15,94.2,0.158203125,0.494384765,0.8078613299999999,0.5002051095228981,0.49998234686728066,0.5000775406153429,56.1,18.3,30.75
-0.003662109999999984,0.47973633,0.44604492,0.5001370283303015,0.5000019318176826,0.49992905437303503,4.2,20.7,23.25,0.596679685,0.52783203,0.9431152349999999,0.500034840000729,0.500017519876831,0.49988662018293134,57.9,5.4,93.45,0.16723633000000002,0.5078125,0.7990722650000001,0.500169137065284,0.49997142189156135,0.5000770076790559,56.4,18.3,31.35
-0.009521484999999984,0.46899414,0.42626953,0.5001400260205583,0.5000468307617559,0.4999346500731499,2.25,20.1,23.55,0.6022949200000001,0.52685547,0.928710935,0.5000496952833908,0.5000422342626379,0.49989501382037005,59.55,5.25,94.05,0.177978515,0.5324707049999999,0.8000488299999999,0.5001568797924801,0.4999836791643652,0.5000768078388566,57.15,17.1,31.8
-0.02636719000000005,0.446777345,0.40698242,0.5001100490307242,0.5000987243746061,0.4999303866701196,2.25,20.1,23.55,0.5998535150000001,0.528808595,0.9375,0.500064816990563,0.500055424239394,0.4999079371980829,59.55,5.25,94.05,0.173828125,0.53466797,0.791992185,0.5001405589568453,0.5000198514621786,0.5000810712418868,56.25,19.2,31.5
-0.03686523499999998,0.432373045,0.40698242,0.5001236386006125,0.5001234387604131,0.4999171967806299,5.1,19.8,23.55,0.59375,0.5520019549999999,0.954589845,0.5000872664625997,0.5000710122112759,0.49991193417660285,58.65,5.4,94.5,0.15380859500000002,0.5422363299999999,0.7971191400000001,0.5001076508610655,0.5000670819043334,0.5000664823837353,56.25,19.2,31.5
-0.030517579999999954,0.427734375,0.39526367,0.5001201745583796,0.5001193086132713,0.49992099383168415,3.15,20.25,22.65,0.5866699200000001,0.5686035150000001,0.9797363299999999,0.5001153782190623,0.5000742098289984,0.4999108017197177,58.95,5.4,93.75,0.142578125,0.53857422,0.807128905,0.5001039869786332,0.5000543583668198,0.5000794058487146,56.7,19.35,31.35
-0.032470704999999954,0.431884765,0.385253905,0.5000745428378197,0.5001639410455678,0.499939846092866,4.05,21.6,23.1,0.58203125,0.5769042950000001,1.00415039,0.5001199081338693,0.5001175765485215,0.49995823200207173,58.65,6.6,94.5,0.11987304499999998,0.5270996099999999,0.8195800799999999,0.5000748093495966,0.500080271793823,0.5000512940049857,56.1,19.35,30.3
-0.02050781500000005,0.43676758,0.381347655,0.5000349731693509,0.5001886554313748,0.49994144490172726,2.25,20.55,24.6,0.5939941400000001,0.5847167950000001,1.044677735,0.5000736768927114,0.500082203698772,0.4999794157613349,58.65,6.6,94.5,0.09033202999999998,0.5080566400000001,0.825683595,0.5000795390173365,0.500108916573839,0.5000521600373604,56.1,19.35,30.3
-0.01464844000000005,0.456054685,0.37060547,0.5000532259099346,0.5001847917087433,0.4999678912650175,2.25,20.55,24.6,0.5744628900000001,0.567871095,1.02661133,0.500048895835327,0.5000830696438804,0.49998734304679743,59.55,5.25,92.55,0.07788085999999998,0.49291992,0.8317871099999999,0.5000711454671642,0.500100789448177,0.500013856081665,57.0,18.0,29.85
-0.017822265000000014,0.451904295,0.356445315,0.4999963361175678,0.5001753989575742,0.49995776573736206,4.35,20.55,24.15,0.572753905,0.5524902349999999,1.041259765,0.5000151883787497,0.500079605688914,0.4999870099507097,60.0,3.45,94.5,0.07055664000000002,0.46899414,0.8425292950000001,0.5000744762535088,0.500120307814268,0.5000297105653237,57.0,18.0,29.85
-0.011474609999999984,0.442871095,0.333007815,0.49996229556490274,0.500169137065284,0.49996682539244336,3.45,19.95,22.35,0.561035155,0.5546875,1.05004883,0.5000192519415806,0.5001174433798996,0.49995969755504466,60.0,3.45,94.5,0.05517577999999997,0.462402345,0.8439941400000001,0.5000919295460288,0.500100323096201,0.4999970023097432,56.55,18.0,30.9
-0.0234375,0.440185545,0.31616211,0.4999584318422711,0.5001368950744131,0.5000006661921754,2.25,19.8,22.5,0.5563964849999999,0.5412597650000001,1.0463867199999999,0.5000333077761786,0.5001268361310686,0.4999640275423859,60.15,6.0,95.1,0.052734375,0.46411133,0.8439941400000001,0.5000718116593398,0.5000733437966236,0.500013389729689,57.0,19.5,31.2
-0.024902344999999968,0.42578125,0.31689453,0.4999245911298054,0.5001095160944371,0.5000065283168006,2.25,19.8,22.5,0.5603027349999999,0.5354003900000001,1.0600585949999999,0.5000264463632902,0.5000836692517449,0.49995157042938276,59.7,6.6,93.75,0.064453125,0.49462890499999995,0.85205078,0.5001011891285758,0.5000832028997688,0.5000355727772153,55.8,20.25,31.5
-0.033203125,0.42602539,0.33203125,0.49991213401680223,0.5000623522365933,0.5000233155044115,2.55,20.55,22.05,0.5524902349999999,0.5283203150000001,1.072265625,0.5000319088947831,0.5000905972489442,0.49994410949589635,59.55,5.55,94.35,0.04003906499999999,0.49462890499999995,0.8776855450000001,0.5000799387850017,0.5000367718184114,0.5000357059458373,57.0,18.75,31.2
-0.010253904999999975,0.440185545,0.34448242,0.49993778101929504,0.50001072513552,0.5000479632186411,3.45,21.75,21.6,0.5520019549999999,0.5129394549999999,1.0649414050000001,0.5000315757986954,0.5000878659831978,0.49993778101929504,59.55,5.55,94.35,0.04418945500000001,0.5100097650000001,0.889648435,0.5000449655283844,0.5000291110447257,0.5000309096065199,56.55,19.5,29.4
0.011962890000000016,0.44458008,0.35595703,0.49991699694043057,0.500022049791638,0.5000531592383572,3.45,22.2,23.25,0.55126953,0.5080566400000001,1.071289065,0.5000486959951276,0.5000612863640191,0.49996555976693624,60.75,4.95,91.95,0.033203125,0.509277345,0.920410155,0.500006728157,0.5000155214748374,0.5000274456515534,56.1,18.6,29.25
0.01171875,0.46923827999999995,0.37011719,0.49990800386966033,0.5000331746075567,0.500017919644496,3.15,20.25,22.65,0.568359375,0.5168457049999999,1.080078125,0.5000642840542759,0.500038703636094,0.49993118603091696,59.85,7.05,94.65,0.05517577999999997,0.51904297,0.8776855450000001,0.5000438330714992,0.500002131657882,0.5000211837592632,56.1,18.6,29.25
-0.004150390000000016,0.45751953,0.384033205,0.4999648269904498,0.500013389729689,0.5000215834396619,3.15,20.25,22.65,0.564453125,0.5378417950000001,1.02709961,0.5001104487111229,0.5,0.4999528361421563,58.35,6.3,94.35,0.08935547000000002,0.55029297,0.8483886700000001,0.5000758085505933,0.4999828798035678,0.5000284448525503,57.45,19.35,30.3
-0.02441406500000005,0.44116211,0.39770508,0.49992725572397445,0.5000271125554657,0.4999901408968549,1.8,20.55,22.05,0.5988769549999999,0.5671386700000001,1.00878906,0.5001249043133861,0.5000186523337161,0.49993904673206857,58.35,6.3,94.35,0.10229491999999998,0.5495605450000001,0.8493652349999999,0.5000732105407353,0.4999832128996555,0.5000347733291515,58.05,18.75,29.4
-0.015380859999999984,0.43676758,0.41699219,0.49992892111714665,0.4999986010313381,0.5000069279971994,2.7,21.75,21.6,0.62597656,0.5812988299999999,1.015625,0.5001129800494035,0.5000169203562328,0.49996436063847366,60.45,6.9,94.5,0.13183593999999998,0.53955078,0.8664550799999999,0.500058155417874,0.49998694336639876,0.5000586883541611,56.55,18.75,30.15
-0.00024414000000001578,0.44946289,0.43676758,0.49996322818158856,0.4999527028862679,0.5000288445329489,0.75,19.8,22.5,0.635253905,0.58984375,0.9885253900000001,0.5001021217452616,0.5000117910080942,0.49995796557756145,59.25,7.65,94.2,0.15356445500000002,0.51513672,0.862304685,0.5000471638578438,0.4999743529975072,0.5000692802337926,58.35,18.75,30.15
0.013427734999999984,0.46557617,0.455566405,0.49997155514744973,0.4999930053312232,0.5000025314255471,0.75,19.8,22.5,0.6325683599999999,0.57421875,0.9609375,0.5000742098289984,0.50002145027104,0.49999886754311484,59.55,5.25,94.05,0.17163086,0.5185546900000001,0.846191405,0.5000654831827385,0.4999769510073652,0.5000549578874179,56.7,19.35,30.3
0.01171875,0.481689455,0.455322265,0.49994710718615304,0.5000359057860366,0.5000286446927495,0.75,19.8,22.5,0.6369628900000001,0.5705566400000001,0.9455566400000001,0.5000591547061373,0.5000105918796316,0.5000108583041419,59.55,5.25,94.05,0.181396485,0.50830078,0.84326172,0.5000704126906779,0.4999531025666666,0.5000511608363637,58.05,18.75,30.15
0.014648439999999993,0.5095214849999999,0.45678711,0.499957232801075,0.5000347067448405,0.5000504946441883,2.1,20.25,22.35,0.6394042950000001,0.556640625,0.942871095,0.5000492289314147,0.5000219831200605,0.49999800151074,60.0,3.45,93.75,0.18652343999999998,0.48583984500000005,0.841308595,0.5000520934530495,0.4999555674079027,0.5000362388821243,58.05,18.75,30.15
0.007324220000000025,0.5197753900000001,0.45727539,0.4999335842005757,0.5000734103809346,0.5000113912404289,2.4,19.95,21.6,0.6328125,0.5495605450000001,0.9318847650000001,0.5000438996558102,0.5000544915354418,0.5000029976902568,60.45,5.7,95.25,0.21386718999999998,0.47290039,0.8371582049999999,0.500024647801496,0.4999608300119298,0.5000523598775598,57.3,19.2,29.1
0.00390625,0.506591795,0.45678711,0.49992026114246413,0.5001139793376667,0.4999961362773684,2.1,21.0,21.6,0.63769531,0.553222655,0.91894531,0.5000239150250096,0.500064816990563,0.49997828330444977,60.45,5.4,93.75,0.22216797000000002,0.4609375,0.837890625,0.5000151217071722,0.49998188051530457,0.5000238483534322,57.3,19.2,29.1
0.02075195500000001,0.5061035150000001,0.44628906,0.4999328514240892,0.500126969386957,0.5000016653931723,2.1,21.0,21.6,0.63232422,0.546875,0.91845703,0.5000312427026077,0.5000655497670494,0.49995336907844334,58.95,6.15,92.4,0.22607422000000002,0.46435547,0.849121095,0.5000484961549282,0.5000137228257767,0.5000289112045264,56.55,20.7,31.2
0.028808595000000024,0.49951172000000005,0.451171875,0.49994144490172726,0.5001263031947816,0.4999897412164561,2.4,22.2,20.85,0.6262207049999999,0.5417480450000001,0.9338378900000001,0.50000872664626,0.5001069180845791,0.49992952063774476,60.6,5.25,93.6,0.19775390499999998,0.451171875,0.85205078,0.5000291776290366,0.500035372937016,0.4999977350862297,55.8,19.2,30.9
0.046875,0.490478515,0.439208985,0.4999479732185279,0.5001699364260814,0.49999260565082454,2.1,22.2,22.65,0.63378906,0.53466797,0.953125,0.49999833460682774,0.5001215735270416,0.4999516371009602,60.9,6.3,92.85,0.18872070500000002,0.46533203,0.853027345,0.5000605535875327,0.4999937381077097,0.499997934926429,57.9,19.8,30.3
0.04956054499999999,0.49267577999999995,0.42993164,0.4999617626286156,0.5001928522500942,0.4999883422477942,4.05,20.55,20.7,0.6276855450000001,0.525390625,0.974609375,0.499993271843,0.5001119808484067,0.49991533154725837,60.9,6.3,92.85,0.17260741999999998,0.46435547,0.8688964849999999,0.5000752756143062,0.500024647801496,0.49999313858711164,56.1,19.8,31.05
0.03833008000000001,0.47973633,0.420654295,0.5000050627638277,0.5002010459600671,0.5000072610932871,1.8,21.6,21.45,0.626464845,0.529296875,0.9929199200000001,0.4999938713635981,0.5000972588216333,0.4998956133409681,59.1,5.55,94.05,0.15209961,0.47021484500000005,0.87451172,0.5000737434770224,0.5000484961549282,0.4999906071615645,56.1,19.8,31.05
0.03491210999999998,0.475585935,0.41064453,0.5000145221865742,0.5001858575813175,0.49999487056459485,1.8,21.6,21.45,0.6271972650000001,0.5275878900000001,0.99707031,0.4999986677029155,0.5000748759339075,0.499879092665134,61.05,6.15,94.2,0.14501952999999998,0.482666015,0.8771972650000001,0.5001290344605279,0.5000460979852696,0.5000031975304562,57.45,20.85,30.3
0.05151366999999999,0.474609375,0.396972655,0.5000638177895662,0.5001606768435343,0.5000110582316077,2.4,21.45,20.85,0.6047363299999999,0.525390625,1.0073242199999999,0.5000098591031451,0.5000658161915598,0.49986570293544497,61.5,5.7,93.75,0.130615235,0.48413086,0.86425781,0.500149085762906,0.5000452320401612,0.5000001998401994,57.6,18.75,30.9
0.05175781499999999,0.48022461,0.388183595,0.5000738101485998,0.5001132465611803,0.5000084602217496,1.2,19.8,22.05,0.6003417950000001,0.5205078150000001,1.006835935,0.5000312427026077,0.5000647504062521,0.49985904136275594,61.95,5.55,92.85,0.10791015499999998,0.5,0.8515625,0.5002172335398135,0.5000224494720368,0.5000036638824322,57.6,18.75,30.9
0.05029297000000003,0.48510742,0.376953125,0.5000526929736476,0.5000959931088598,0.5000204509827767,0.6,20.25,20.55,0.5891113299999999,0.52294922,1.0063476550000001,0.5000309096065199,0.500044099583276,0.4998710987953604,60.15,4.5,92.55,0.10522460999999998,0.49755859500000005,0.857421875,0.5002147687858438,0.5000300436614116,0.4999995336480239,55.5,20.25,30.45
0.05541991999999999,0.49169922000000005,0.368408205,0.5001149119543525,0.5000664157994243,0.5000109249757193,0.6,20.25,20.55,0.5729980450000001,0.54345703,1.01538086,0.5000844020282313,0.5000650168307623,0.4998324617435773,60.0,5.7,94.2,0.10229491999999998,0.505371095,0.8894042950000001,0.5002244280487896,0.500047430282354,0.5000721447554275,55.5,20.25,30.45
0.04394531499999999,0.479248045,0.34765625,0.5001081171257752,0.5000319088947831,0.49997055585918654,0.75,19.35,22.8,0.5634765650000001,0.5393066400000001,1.030029295,0.5000806715614882,0.5000521600373604,0.4998510474929824,60.0,5.7,94.2,0.08911133000000002,0.498291015,0.88232422,0.5002499417953941,0.5000102587835439,0.5000333077761786,57.0,21.75,29.85
0.029541015000000014,0.46801758,0.34448242,0.5001165773475248,0.4999751523583046,0.4999557672481021,1.35,19.2,20.55,0.5622558599999999,0.548339845,1.0356445300000001,0.5000676148406205,0.5000448989440734,0.49983146245531407,61.95,5.25,92.85,0.08862304499999998,0.51513672,0.8708496099999999,0.5002777871273462,0.4999887419281929,0.5000432335509012,57.15,20.85,31.05
0.020996095000000024,0.47265625,0.352539065,0.500149618699193,0.4999014754655932,0.499997934926429,2.7,21.75,21.9,0.5563964849999999,0.544921875,1.029296875,0.5000559570884147,0.5000155214748374,0.4998218031923683,61.35,4.8,92.25,0.08251952999999998,0.50097656,0.85644531,0.5002782534793223,0.49998334606827743,0.5000424341901037,56.7,19.8,31.05
0.020019529999999976,0.46533203,0.357177735,0.5001454884647847,0.499886353758421,0.4999950704047942,0.3,20.25,20.25,0.5617675799999999,0.5446777349999999,1.02368164,0.5000558239197928,0.500003464042233,0.4998351263377463,61.65,6.0,91.8,0.09912109500000002,0.5144042950000001,0.85986328,0.5003070980122712,0.4999662924561562,0.5000679479367082,56.55,21.45,30.15
0.02026366999999999,0.46435547,0.37060547,0.5001839257636349,0.4998655696795566,0.5000102587835439,0.3,20.25,20.25,0.572753905,0.5500488299999999,1.03027344,0.5000411018057528,0.49997348696513233,0.4998156079716554,61.65,6.0,91.8,0.10375976500000002,0.517578125,0.8552246099999999,0.5002851814765217,0.4999050727637145,0.5000532924942456,56.55,21.45,30.15
0.006591794999999991,0.46875,0.376953125,0.5001921860579187,0.4998634379344082,0.5000069946687767,1.05,19.95,21.6,0.5764160150000001,0.548828125,1.01245117,0.5000639509581881,0.4999275222357512,0.4998001531683955,61.5,6.6,93.75,0.12133789000000002,0.5207519549999999,0.8493652349999999,0.5002607335152249,0.4999274555641738,0.500038037531185,56.25,20.7,30.45
0.0024414049999999746,0.47509765499999995,0.37548828,0.5001961830364386,0.49987343029344167,0.4999640275423859,2.7,20.7,20.85,0.5866699200000001,0.5705566400000001,1.01464844,0.5000490290912153,0.49992592342688996,0.49982040431097285,60.0,4.95,93.15,0.13818359500000002,0.52783203,0.8469238299999999,0.5002431469668166,0.4999515038450718,0.5000093928384355,56.25,20.7,30.45
-0.018066405000000032,0.47900390499999995,0.399658205,0.5002049762670097,0.49988249003578944,0.49994697393026466,3.15,20.7,22.35,0.59472656,0.5773925799999999,1.002685545,0.5000596875551578,0.4999339838809744,0.49979728864676065,60.0,4.95,93.15,0.14038086,0.5256347650000001,0.84863281,0.5002342204803573,0.4999467075057544,0.49998361258005425,56.7,20.55,31.05
-0.013671875,0.482421875,0.412109375,0.5002084403092426,0.49986623587173207,0.49994044561346407,3.15,20.7,22.35,0.5988769549999999,0.5859375,0.9934082049999999,0.500051427260874,0.4999275222357512,0.4998218698639457,60.75,4.95,93.45,0.14819336,0.533691405,0.845703125,0.5002080405415774,0.49994244410272404,0.49999313858711164,56.55,20.25,29.4
-0.013671875,0.469970705,0.42944336,0.5001622090680846,0.4998982113508262,0.4999179295571164,2.4,19.95,20.55,0.60205078,0.5891113299999999,0.9777832049999999,0.500056156928614,0.49993977950855506,0.4998192718540877,61.65,6.0,92.85,0.15234375,0.53076172,0.84472656,0.5002358858735295,0.4999363154663221,0.4999751523583046,56.7,21.15,30.0
-0.01098633000000001,0.453125,0.426757815,0.500153815430646,0.4999483063146157,0.49993258499957893,3.45,19.2,22.65,0.6013183599999999,0.5812988299999999,0.978515625,0.500040102604756,0.49995876493835884,0.4998194050227096,61.5,4.95,94.5,0.15673827999999998,0.545410155,0.8439941400000001,0.5002635980368598,0.49994757353812924,0.4999769510073652,56.4,20.1,30.0
-0.025878905000000032,0.45410156,0.41723633,0.5001540819424227,0.49996129636390596,0.49997788362405104,2.55,19.05,20.4,0.60986328,0.5793457049999999,0.9753417950000001,0.5000243812897193,0.49996382770218656,0.49982713246797283,61.5,4.95,94.5,0.15161133000000002,0.546875,0.8513183599999999,0.5002456783923638,0.4999548346314163,0.4999791493368246,54.45,20.7,30.15
-0.027587890000000014,0.439453125,0.412597655,0.5001421577657067,0.5000189854298038,0.4999584984265821,2.55,18.6,20.7,0.60888672,0.5676269549999999,0.9768066400000001,0.5000369716586108,0.4999688904660143,0.49981580781185475,61.8,6.15,94.5,0.15185547000000002,0.5390625,0.8425292950000001,0.5002836493392377,0.49997928250544654,0.4999493720999234,57.3,20.7,29.1
-0.031982420000000046,0.4375,0.41088867,0.5001215735270416,0.5000248476416954,0.4999792159211356,2.55,18.6,20.7,0.60498047,0.584960935,0.9704589849999999,0.5000362388821243,0.49998967454487875,0.49982533381891214,61.65,5.55,94.05,0.15185547000000002,0.5361328150000001,0.841308595,0.5002834494990385,0.49998274654767944,0.4999812144103955,57.3,20.7,29.1
-0.025878905000000032,0.43774414,0.40234375,0.5001564801120815,0.5000429670391244,0.5000191852700031,2.25,19.8,21.45,0.6047363299999999,0.57421875,0.9758300799999999,0.5000417014136173,0.5000006661921754,0.49981547471576704,61.95,6.75,94.65,0.150634765,0.5476074200000001,0.8527832049999999,0.5002727909478294,0.4999854111418484,0.4999870099507097,55.8,21.75,31.5
-0.021728515000000014,0.44213867,0.396484375,0.5001426240304163,0.5000604203316443,0.5000142557620638,2.1,18.0,21.6,0.58935547,0.5769042950000001,0.9772949200000001,0.5000310428624083,0.5000378376909856,0.499857642394094,61.35,5.25,93.3,0.12939452999999998,0.540527345,0.85253906,0.5002780535518565,0.4999970688940542,0.49997561871028073,55.8,21.75,31.5
-0.007324220000000025,0.44140625,0.39355469,0.5001428238706156,0.5000520267814721,0.4999997335754897,2.1,19.2,21.9,0.5798339849999999,0.563964845,0.990234375,0.5000309096065199,0.5000574226413875,0.49984831622723597,60.15,5.25,94.35,0.13232422000000002,0.5546875,0.842773435,0.5002810513293797,0.49997401990141943,0.4999780834642504,55.8,22.2,30.15
-0.0024414049999999746,0.435791015,0.384521485,0.5001378276910989,0.5000658828631372,0.5000325084153812,2.1,19.2,21.9,0.5764160150000001,0.568359375,1.01538086,0.5000197182062902,0.5000624854924818,0.49983126261511474,62.25,6.6,93.45,0.11669922000000002,0.5568847650000001,0.842773435,0.5002912435286127,0.49998994105665556,0.49998780931150716,55.5,21.45,29.4
0.007568359999999984,0.447753905,0.385009765,0.5000938613637114,0.5000817373467958,0.500010791719831,2.1,18.45,21.6,0.56738281,0.55517578,1.0151367199999999,0.5000338407124657,0.5000681477769074,0.4998331278484864,62.25,6.6,93.45,0.11499023499999998,0.57128906,0.84472656,0.5003113614153015,0.4999743529975072,0.4999844785251626,55.5,21.45,29.4
0.01684570500000001,0.440185545,0.373291015,0.5001034540423461,0.5000805383055997,0.5000014655529729,1.05,18.45,20.55,0.55859375,0.5627441400000001,1.021484375,0.5000522266216714,0.5000458315607592,0.49984192116632375,62.25,6.6,93.45,0.11108398499999998,0.580566405,0.84423828,0.500300836119981,0.4999861439183349,0.49999713556563163,56.1,20.1,28.65
0.01171875,0.43774414,0.36376953,0.500124371377099,0.5000484961549282,0.5000270459711548,1.2,17.55,20.7,0.55859375,0.5710449200000001,1.017578125,0.5000558239197928,0.5000538254305328,0.4998501814606076,61.5,4.65,91.95,0.10693359500000002,0.5993652349999999,0.8586425799999999,0.5002735237243159,0.49998014853782136,0.49999207271453744,57.0,21.75,31.2
0.004638669999999991,0.432373045,0.35083008,0.5000665489680463,0.5000461646568469,0.5000139226659761,1.05,18.75,20.85,0.5603027349999999,0.575683595,1.02709961,0.5000611531081308,0.5000321753192934,0.49986270524518817,62.25,6.15,93.75,0.10424804499999998,0.6003417950000001,0.86425781,0.5002322220783637,0.49999067383314194,0.499993405011622,56.7,21.15,30.0
0.00048827999999997475,0.440185545,0.350341795,0.5000817373467958,0.5000309096065199,0.49999540350088195,1.05,18.75,20.85,0.5622558599999999,0.604492185,1.03588867,0.500084335356654,0.5000081937099728,0.4998862205025326,60.45,3.9,93.45,0.10766601500000002,0.6286621099999999,0.8864746099999999,0.5002412151491341,0.49997455283770653,0.49998534455753746,57.0,21.0,29.85
0.018066404999999976,0.44970703,0.36376953,0.5000899977283462,0.49997008959447686,0.49998960796056774,1.05,18.75,20.85,0.5695800799999999,0.62109375,1.0390625,0.5000887985998836,0.5000037970510541,0.49991493186685965,60.75,5.7,92.7,0.08959960999999998,0.65234375,0.8703613299999999,0.5002153683064419,0.49996749158461884,0.49998101457019617,57.0,21.0,29.85
0.03393554499999999,0.44555664,0.385253905,0.5000256470024929,0.49995063781269694,0.5000105252953206,2.1,18.45,19.8,0.5607910150000001,0.6335449200000001,1.024414065,0.5000950604921739,0.4999760849749904,0.49990760410199514,62.25,4.65,93.75,0.11254883000000002,0.6789550799999999,0.768554685,0.5003904341679284,0.49995516772750404,0.4999951370763716,56.25,21.0,29.85
0.04663085999999998,0.44165039,0.403808595,0.5000013322970845,0.4999611631080176,0.49995949771484527,2.25,18.6,21.0,0.5661621099999999,0.6525878900000001,1.0209960949999999,0.5001032542021467,0.4999407121252408,0.4999503713881866,61.95,5.25,92.55,0.12084960999999998,0.677246095,0.8186035150000001,0.5002749226929778,0.5000225160563477,0.5000051294354051,56.4,20.85,31.05
0.04541015499999997,0.44458008,0.39086914,0.5000061952207129,0.49993758117909565,0.4999891416958581,3.6,16.8,21.0,0.5627441400000001,0.6486816400000001,0.9904785150000001,0.5001292343007273,0.4999435765596092,0.49998141425059495,61.95,5.25,92.55,0.14721679499999998,0.6765136700000001,0.885742185,0.500057555897276,0.5000140559218645,0.500026646290756,56.55,21.45,30.15
0.02221679499999999,0.443115235,0.37939453,0.49994304362332215,0.49993012024560923,0.49995829858638274,3.6,16.8,21.0,0.580566405,0.6638183599999999,0.9938964849999999,0.5000943277156874,0.49993818069969376,0.5000089264864593,61.95,4.8,92.85,0.13671875,0.6818847650000001,0.8444824200000001,0.5000726110201372,0.4999997335754897,0.5000318422232056,56.25,21.45,29.85
0.010742189999999993,0.44628906,0.388671875,0.4999172633649409,0.49991319988937644,0.49994231084683566,2.4,18.75,21.6,0.5842285150000001,0.6628417950000001,0.9899902349999999,0.5000584885139617,0.49992425803371765,0.5000361722978134,61.8,4.65,93.75,0.14379883000000002,0.6818847650000001,0.81591797,0.5000371049144993,0.5000076607736857,0.500007327677598,56.55,22.2,30.45
0.03393554499999999,0.454833985,0.395507815,0.49993917990069053,0.4998949471487926,0.49992099383168415,2.1,19.2,20.85,0.57910156,0.66796875,0.96484375,0.5000398361802457,0.49992485755431576,0.5000798055291132,61.5,4.95,92.7,0.16381836,0.65673828,0.8352050799999999,0.49995323582255496,0.4999880091517065,0.5000183859092058,55.8,21.75,28.35
0.04052734500000003,0.46435547,0.411132815,0.4998752955268133,0.49990220824207965,0.4998874196309952,1.65,18.75,21.9,0.580566405,0.66015625,0.95019531,0.5000565566962792,0.49992712255535254,0.5001240382810113,61.5,4.95,92.7,0.17333984500000002,0.645996095,0.828125,0.49987995869750873,0.49997308728473366,0.5000019318176826,55.8,21.75,28.35
0.03613281499999999,0.456054685,0.423828125,0.4998167404285406,0.4999083368784816,0.4998694334021882,1.5,19.05,21.75,0.591308595,0.64501953,0.952148435,0.5000423009342153,0.4999090030706571,0.5001750658614865,62.4,4.05,94.05,0.17236327999999998,0.642089845,0.8283691400000001,0.49984884916352307,0.49995197010978143,0.5000115244963174,56.7,21.6,30.0
0.03442383000000001,0.46435547,0.427001955,0.49980681465381804,0.4998742297415056,0.4998698996668978,1.5,19.05,21.75,0.595214845,0.6511230450000001,0.9416503900000001,0.5000437664871883,0.4999274555641738,0.5001742665006891,61.8,4.65,94.2,0.19091797000000002,0.61279297,0.837402345,0.4997896278730749,0.4999783498887607,0.4999970023097432,56.7,21.6,30.0
0.03808593999999999,0.45776367,0.428466795,0.49975325573506213,0.4998982113508262,0.499823601841429,2.4,17.7,21.3,0.599121095,0.642089845,0.9475097650000001,0.5000302435016108,0.49993531626532534,0.5001750658614865,61.8,4.65,94.2,0.17871093999999998,0.6052246099999999,0.8359375,0.4997823001082104,0.4999776171122743,0.5000161209954355,56.7,20.85,28.2
0.03564452999999997,0.46435547,0.43847656,0.49968677335132683,0.49988388900445135,0.499761316276413,2.7,17.7,20.85,0.60595703,0.639160155,0.94238281,0.4999937381077097,0.49994783996263953,0.5002215635271547,61.05,5.7,91.95,0.17163086,0.5891113299999999,0.8312988299999999,0.49978376566118327,0.4999497051960111,0.49998041504959817,57.3,21.75,30.15
0.04077148499999998,0.47753906,0.43847656,0.4996822435237862,0.49990487292351515,0.4997715750599569,2.7,19.2,21.3,0.60498047,0.6328125,0.94628906,0.49999293874691225,0.49996922356210205,0.5002476102973128,62.25,5.4,93.75,0.16894531499999998,0.5700683599999999,0.8225097650000001,0.49977370671783883,0.49995503447161566,0.4999746860935949,55.8,21.0,30.15
0.03466797000000003,0.467041015,0.427001955,0.49960603520552777,0.4999159977394338,0.4997219464481435,2.7,19.2,21.3,0.60986328,0.6125488299999999,0.9514160150000001,0.499964627062984,0.5000011324568852,0.5002349532568438,61.65,4.8,94.65,0.17700195500000002,0.564453125,0.837402345,0.49976178254112275,0.4999670252326427,0.49994943877150083,56.7,22.35,30.75
0.030273439999999995,0.447753905,0.43261719,0.4995392863972821,0.49991339972957577,0.4997033606114719,3.0,19.35,21.75,0.6135253900000001,0.59326172,0.9685058599999999,0.4999570995451866,0.5000361722978134,0.5002502082199043,61.65,4.8,94.65,0.17041015499999998,0.549316405,0.8615722650000001,0.4997618491254337,0.4999910735135407,0.4999516371009602,55.8,22.2,30.45
0.03125,0.423339845,0.423339845,0.4994896576982023,0.4998621723089011,0.49973660180333956,2.55,19.35,21.0,0.6105957049999999,0.579589845,0.9919433599999999,0.4999411783899505,0.5000215168553509,0.5002484762424211,60.45,5.7,93.75,0.15136718999999998,0.5373535150000001,0.854492185,0.49983206206317865,0.5000105918796316,0.4999472404420415,55.8,21.75,30.45
0.029052734999999986,0.40625,0.40625,0.49943443338627413,0.49987189815615785,0.499707890526279,3.3,18.6,22.5,0.59716797,0.5703125,1.0073242199999999,0.4999580321618724,0.5000405688694657,0.5002572028886811,61.35,6.75,93.6,0.13305664,0.55126953,0.849121095,0.499886353758421,0.5000073943491754,0.4999219265356364,55.8,21.75,30.45
0.025390625,0.39111328,0.395996095,0.4994087863837813,0.499873030613043,0.49974805971534597,2.55,19.35,22.05,0.59765625,0.5612792950000001,1.00805664,0.5000077940295742,0.5000143889306857,0.5002601339946269,61.35,6.75,93.6,0.13427734500000002,0.5568847650000001,0.849609375,0.4998994103920223,0.4999948039802839,0.49991633074825514,55.65,21.15,30.0
0.018066404999999976,0.391845705,0.384277345,0.49942677261258833,0.4998327281680876,0.4998080803665916,2.55,19.35,22.05,0.54296875,0.5832519549999999,0.9963378900000001,0.5000272458113542,0.5002553376553095,0.5002671286634036,59.85,5.55,94.05,0.12377929499999998,0.557128905,0.849121095,0.4998785597288468,0.5000121240169154,0.4999153981315693,55.65,21.15,30.0
0.01049804499999999,0.37890625,0.37451172,0.49943949623736833,0.4998166071726522,0.4998485827390128,4.2,20.7,22.65,0.573242185,0.5651855450000001,0.9855957049999999,0.49998927486448,0.5000288445329489,0.5002579356651675,60.6,6.3,93.6,0.11206054499999998,0.5690917950000001,0.8376464849999999,0.49983406046517215,0.5000341738085534,0.49991533154725837,55.65,21.15,30.0
0.007080080000000009,0.37890625,0.384033205,0.49942637284492314,0.49982939738174315,0.49988615391822167,3.0,17.85,23.55,0.5703125,0.5705566400000001,1.02026367,0.4999794157613349,0.5000006661921754,0.5003035008014164,60.6,6.3,94.35,0.10766601500000002,0.5676269549999999,0.8359375,0.4998393231564657,0.5000742098289984,0.4999462411537783,57.15,19.8,30.0
0.009277345000000025,0.380126955,0.38671875,0.4994712052046856,0.4997850980455343,0.4999339172966634,3.75,19.95,23.25,0.5595703150000001,0.5615234400000001,0.9953613299999999,0.4999837457486762,0.4999998667441116,0.5002745230125791,60.6,6.3,94.35,0.11376952999999998,0.567871095,0.8293457049999999,0.4997884288318788,0.50009625953337,0.49996109643644016,55.35,21.6,31.05
0.00854491999999999,0.396972655,0.399658205,0.4995224326253602,0.49981520829125675,0.5000043299873413,3.75,19.95,23.25,0.5595703150000001,0.5576171900000001,1.006591795,0.4999942710439968,0.5000295107251244,0.5003104287986158,60.0,6.15,93.15,0.11181640499999998,0.572265625,0.83203125,0.4997626485734975,0.5000538920148437,0.4999737534769091,56.55,21.0,30.9
0.0031738300000000094,0.404052735,0.40209961,0.4995246309548196,0.49984951535569855,0.49999007431254394,3.0,20.85,23.55,0.5559082049999999,0.5546875,0.99609375,0.5000099256874561,0.5000310428624083,0.5003023016729539,61.65,6.75,93.3,0.11987304499999998,0.568847655,0.826171875,0.4997150183636777,0.5000033307863445,0.4999543682794401,57.3,21.45,30.9
-0.012451170000000048,0.41357422,0.3984375,0.4995758583754943,0.4998327281680876,0.5000352396811276,3.75,21.0,23.25,0.568359375,0.5524902349999999,0.9919433599999999,0.5000206508229761,0.4999682909454162,0.5003276822509364,60.15,6.3,92.85,0.12475585999999998,0.5490722650000001,0.8303222650000001,0.4996912365945565,0.5000146554424625,0.49998867534388197,57.3,21.45,30.9
-0.037841795000000046,0.424316405,0.399414065,0.4996211569999664,0.4998525796302663,0.5000605535875327,3.3,21.15,21.45,0.5847167950000001,0.55078125,0.9875488299999999,0.5000410352214418,0.49997648465538913,0.5003211539341358,60.45,7.65,92.7,0.13671875,0.548339845,0.8200683599999999,0.4996826432041849,0.4999780168799394,0.5000202511425773,57.15,20.55,30.75
-0.05371094000000005,0.456054685,0.400878905,0.4996419410788308,0.49989954364791067,0.5000183193248948,3.45,21.45,24.75,0.5974121099999999,0.55126953,0.9821777349999999,0.5000285115241276,0.49996962324250077,0.5003230857518183,60.6,7.5,92.55,0.15747070500000002,0.5205078150000001,0.81689453,0.49961962477541605,0.49999800151074,0.49998867534388197,57.15,20.55,30.75
-0.037109375,0.47314452999999995,0.40283203,0.49968537438266486,0.49987829330433653,0.500076141646681,3.45,21.45,24.75,0.6027832049999999,0.5461425799999999,0.966796875,0.5000007993607974,0.4999982680225168,0.5003269494744499,60.75,6.9,94.5,0.166259765,0.5056152349999999,0.8288574200000001,0.499621023744078,0.500008660061949,0.4999993338078245,56.55,18.75,31.2
-0.041015625,0.483398435,0.420410155,0.4997154847156538,0.4999076707735725,0.5000057955403142,4.2,22.5,23.25,0.6057128900000001,0.548828125,0.9714355450000001,0.4999862105899123,0.5000079272854626,0.5003061653955855,60.75,6.9,94.5,0.150390625,0.4921875,0.846191405,0.4996126301939058,0.5000257802583812,0.5000102587835439,55.8,21.0,29.85
-0.026611329999999954,0.47412109500000005,0.42529297,0.49969669903878294,0.49997854972896005,0.49999800151074,4.35,21.15,23.55,0.6015625,0.5393066400000001,0.9670410150000001,0.49998827566348325,0.5000389701478708,0.5003165574350177,60.45,8.4,93.15,0.15478515499999998,0.487060545,0.8410644549999999,0.4996443391612231,0.5000148552826619,0.5000151883787497,57.6,18.45,30.15
-0.029296875,0.46411133,0.44116211,0.4997080236949009,0.4999942710439968,0.5000037304667432,4.35,21.6,23.55,0.611328125,0.5402832049999999,0.9870605450000001,0.49998654368600004,0.5000502282196779,0.5002798522009172,59.85,6.75,93.6,0.15307616999999998,0.48022461,0.841308595,0.4996605934125469,0.5000147886983509,0.5000497618677018,55.8,20.25,30.15
-0.02832031500000005,0.4609375,0.44238281,0.4997470605143492,0.5000167205160335,0.49998960796056774,4.35,21.6,23.55,0.6076660150000001,0.5363769549999999,1.0014648449999999,0.49997108879547364,0.5000818040183733,0.5002707258742585,61.65,7.5,93.6,0.14038086,0.475585935,0.8483886700000001,0.4996577955624895,0.500017919644496,0.5000490956755264,57.0,19.5,30.45
-0.02441406500000005,0.46459961,0.43359375,0.4997246110423125,0.500084335356654,0.4999774172720749,4.5,22.2,22.65,0.6037597650000001,0.5334472650000001,1.0063476550000001,0.49998414551634135,0.50007880624085,0.500245212127654,61.65,7.5,93.6,0.13403320500000002,0.46484375,0.86767578,0.4996705857715804,0.5000318422232056,0.5000530926540463,56.25,19.95,30.45
-0.0390625,0.467529295,0.424316405,0.49978589740633167,0.5001095160944371,0.5000350398409282,4.5,22.5,23.7,0.60205078,0.5207519549999999,1.0234375,0.499980015281933,0.5000702128504785,0.5002327549273844,60.6,7.05,93.3,0.12084960999999998,0.466308595,0.87060547,0.49966152602923275,0.500047363698043,0.5000377710194083,56.25,19.95,30.45
-0.039794920000000046,0.459472655,0.41796875,0.49979728864676065,0.5001225727280383,0.5000375711792089,3.0,23.4,24.9,0.6047363299999999,0.521484375,1.03027344,0.49998927486448,0.5000623522365933,0.5001789295841181,60.75,8.1,94.2,0.12011719,0.463378905,0.868652345,0.49970016308101584,0.5000783399761404,0.5000540252707321,56.4,19.8,30.0
-0.04077148499999998,0.473876955,0.416259765,0.4998057488685103,0.5001384272989634,0.5000360390419251,2.55,23.1,23.85,0.606933595,0.524902345,1.03051758,0.5000050627638277,0.5000511608363637,0.5001731339565375,61.05,9.6,94.8,0.131103515,0.466064455,0.8620605450000001,0.4997513905016905,0.500116310835748,0.500026646290756,56.4,19.8,30.0
-0.029785155000000032,0.481689455,0.411621095,0.49985224653417853,0.500139759596048,0.5000565566962792,2.55,23.1,23.85,0.600097655,0.5368652349999999,1.012939455,0.5000213835994626,0.5000519601971611,0.5001427572863046,61.05,9.6,94.8,0.11547851500000002,0.469970705,0.87109375,0.49977643798358523,0.5000987909589171,0.5000297771496347,57.45,20.1,30.75
-0.021972655000000032,0.482177735,0.396240235,0.4998701661786746,0.5001483529864196,0.500097591917721,3.15,25.05,22.65,0.6047363299999999,0.5432128900000001,1.01855469,0.49999094025765234,0.5000489625069043,0.5001197748779809,59.85,7.5,92.55,0.11743164000000002,0.47412109500000005,0.8747558599999999,0.49980128562528064,0.5000774739437656,0.5000265130348677,57.15,20.55,30.0
-0.031982420000000046,0.474365235,0.395507815,0.49988102448281646,0.5001666723113143,0.5000699464259681,3.3,22.35,22.05,0.5974121099999999,0.553222655,1.021728515,0.49999726873425354,0.5000825367948597,0.5001005896079778,60.15,8.55,93.3,0.11889648499999998,0.47998047000000005,0.868652345,0.4998213369276586,0.5001054525316061,0.500020117886689,56.7,19.8,30.3
-0.024658204999999954,0.46044922,0.39111328,0.49993937982815634,0.5001340306400447,0.5001047197551197,4.2,23.7,22.65,0.60205078,0.56591797,1.00878906,0.49998294638787877,0.5000871998782888,0.5001207740789777,60.0,8.85,93.75,0.118164065,0.49243164,0.8571777349999999,0.4998429869516315,0.5001033207864577,0.500025313906405,55.35,20.1,31.8
-0.008056640000000016,0.45336914,0.397216795,0.4999756852945917,0.5001370949146124,0.5001219732074402,3.45,24.3,23.25,0.59716797,0.544433595,1.025146485,0.49999726873425354,0.5000717449877623,0.5000887985998836,60.0,8.85,93.75,0.12353515499999998,0.48974609500000005,0.8620605450000001,0.4998305298386283,0.5001224394721498,0.5000040635628309,56.55,19.95,31.95
0.008300779999999975,0.45678711,0.404541015,0.49998341273985486,0.500156413440504,0.5000897978881468,3.45,24.3,23.25,0.5837402349999999,0.536621095,1.005859375,0.5000122572728039,0.500033973968354,0.5000749426054849,61.35,9.0,93.3,0.12963866999999998,0.48022461,0.86376953,0.4998315291268915,0.5001047863394307,0.5000161209954355,58.2,20.85,31.35
0.01440429499999999,0.454589845,0.404296875,0.500042767198925,0.5001632082690814,0.5001446891039872,1.2,24.15,23.55,0.59082031,0.5363769549999999,0.99658203,0.500009326166858,0.5000576891531644,0.5000813376663972,60.9,7.8,93.3,0.135009765,0.48046875,0.8610839849999999,0.49984605131346566,0.5001053192757177,0.5000201845582664,58.2,20.85,31.35
0.008056640000000016,0.478271485,0.403564455,0.500068347617107,0.5001476202099331,0.5001591447062504,5.1,24.9,22.05,0.599609375,0.5202636700000001,1.002685545,0.5000059287962025,0.5000386370517831,0.5000580221619856,60.9,7.8,93.3,0.14208984500000002,0.478515625,0.8571777349999999,0.49986663555213073,0.5000840022605662,0.5000223162161483,58.2,20.85,31.35
0.020019529999999976,0.477783205,0.40185547,0.5000894647920591,0.5001491523472169,0.5001438897431898,4.05,24.6,21.75,0.6013183599999999,0.5388183599999999,0.97753906,0.500017519876831,0.5000740765731101,0.5000516271010734,60.6,7.5,94.35,0.14965820500000002,0.48071289,0.865722655,0.49987263093264434,0.500050827740276,0.500024647801496,57.6,19.95,31.2
0.01684570500000001,0.494140625,0.396484375,0.5001327649272712,0.5001229724084371,0.500131699054697,4.05,24.6,21.75,0.6115722650000001,0.52783203,0.9953613299999999,0.5000264463632902,0.5000428338705024,0.5000205176543542,60.45,9.15,94.2,0.14501952999999998,0.485595705,0.86035156,0.49989241581051197,0.5000360390419251,0.500029377469236,56.55,20.7,30.15
0.023193359999999986,0.49584961,0.399658205,0.5001512840923653,0.5001144456023764,0.500113113305292,2.7,24.3,22.35,0.6037597650000001,0.54296875,0.9772949200000001,0.5000144556022632,0.5000602871630224,0.5000256470024929,59.85,7.05,92.85,0.154296875,0.478515625,0.8527832049999999,0.49990780394219453,0.5000442994234754,0.5000329747673573,56.7,19.8,30.0
0.03344726500000002,0.49267577999999995,0.395996095,0.5001528162296492,0.5001255704182951,0.5001041202345216,3.75,23.25,21.6,0.6015625,0.548828125,0.978515625,0.5000292443006141,0.5000303100859218,0.49999693563816583,59.85,7.05,92.85,0.14941406499999998,0.485595705,0.860839845,0.4998953468291913,0.5000486294108166,0.5000233155044115,55.8,18.75,31.5
0.03979491999999999,0.487304685,0.39819336,0.5001479533060208,0.5000905972489442,0.5000630850130798,2.25,22.65,22.05,0.59326172,0.5498046900000001,0.97705078,0.49997868298484843,0.5000393032439586,0.49999173970571614,60.6,8.25,94.05,0.15161133000000002,0.490966795,0.8454589849999999,0.49993291809566665,0.5000403024449553,0.5000551577276172,56.25,19.95,29.4
0.04541015499999997,0.48510742,0.403564455,0.5001909203451451,0.5000585550982727,0.5000830030595694,2.7,22.5,21.3,0.5925292950000001,0.5451660150000001,0.9660644549999999,0.5000129900492903,0.5000291776290366,0.49997581855048007,61.5,8.85,93.45,0.146728515,0.483154295,0.84863281,0.49992559033080214,0.5000552909835057,0.5000385037958948,56.1,20.1,30.0
0.05883789000000002,0.477783205,0.404052735,0.5001781968076318,0.500079605688914,0.5000293108849251,2.7,22.5,21.3,0.58544922,0.5549316400000001,0.97753906,0.5000010658725742,0.5000279785878405,0.4999694234023014,61.5,8.85,93.45,0.14599609500000002,0.490234375,0.849121095,0.4999482396430382,0.5000369716586108,0.5000176531327193,56.1,20.1,30.0
0.05908202999999997,0.479492185,0.40307617,0.5001919862177193,0.5000784732320288,0.5000329080957798,2.55,24.6,20.7,0.59033203,0.5607910150000001,0.9816894549999999,0.5000135895698883,0.5000425007744147,0.4999713553072504,59.85,7.8,93.3,0.14721679499999998,0.5017089849999999,0.85253906,0.49994910567541306,0.500042634030303,0.5000586883541611,57.9,21.15,31.05
0.056640625,0.48828125,0.405029295,0.5002121707759858,0.5000584219296508,0.5000187190052935,2.1,24.75,20.85,0.5974121099999999,0.5539550799999999,0.9890136700000001,0.50001072513552,0.49999600302148,0.49998347932416587,61.8,7.65,93.15,0.13989258000000002,0.5036621099999999,0.85107422,0.4999565000245885,0.5000491623471037,0.5000614196199076,57.9,21.15,31.05
0.03808593999999999,0.47265625,0.40234375,0.5001932519304929,0.5000719449152282,0.4999726876043349,0.6,23.25,21.6,0.58691406,0.5686035150000001,0.98095703,0.5000167871003445,0.5000069946687767,0.49999840119113875,60.45,7.65,92.7,0.142822265,0.5134277349999999,0.857910155,0.49992499081020414,0.5000613529483301,0.5000159211552361,57.15,21.15,30.0
0.02807616999999999,0.4765625,0.39770508,0.5002023116728407,0.5000164540915232,0.49997974885742263,0.6,23.25,21.6,0.60546875,0.5734863299999999,0.9997558599999999,0.5000241148652089,0.5000003330960877,0.49995689970498725,60.45,7.65,92.7,0.13647461,0.52783203,0.860839845,0.49991439893057255,0.5000745428378197,0.500038703636094,55.65,19.8,30.3
0.025390625,0.46435547,0.39794922,0.5001863238460271,0.5000147220267734,0.4999961362773684,1.65,23.7,21.9,0.59765625,0.5739746099999999,0.99609375,0.5000232488328341,0.4999743529975072,0.49999946706371295,60.75,8.4,93.45,0.12988281499999998,0.5349121099999999,0.8557128900000001,0.49991233385700157,0.5000937281950893,0.5000351064252392,56.7,19.8,30.3
0.017333984999999986,0.451904295,0.396728515,0.5001538821022233,0.5000124571130031,0.4999559670883015,2.55,22.65,20.7,0.609375,0.5856933599999999,0.9890136700000001,0.5000501615481006,0.49999693563816583,0.5000077940295742,61.35,8.25,94.05,0.13354491999999998,0.5344238299999999,0.8640136700000001,0.4999129333775996,0.5000866669420017,0.5000235153446109,56.7,20.85,30.75
0.020996095000000024,0.456054685,0.404296875,0.5001302335017241,0.5000094594227464,0.4999541684392408,2.1,22.95,20.85,0.6003417950000001,0.5954589849999999,1.0024414050000001,0.5000452986244721,0.49996289508550074,0.4999986010313381,60.45,8.4,93.75,0.12402344,0.5222167950000001,0.860839845,0.499905805540201,0.5000506279000766,0.5000316423830063,56.25,20.25,29.85
0.030761720000000024,0.453125,0.408203125,0.5001323652468725,0.49996456047867305,0.4999347833290383,3.0,23.1,21.45,0.6198730450000001,0.595214845,0.9855957049999999,0.5000185191650941,0.4999821470270813,0.500033507616378,60.15,7.05,92.85,0.12255859500000002,0.5476074200000001,0.853027345,0.49993977950855506,0.500038104115496,0.5000123905286922,57.45,20.1,30.0
0.04809570500000001,0.45336914,0.41333008,0.5000808047301101,0.500022049791638,0.4999308530220957,3.0,23.1,21.45,0.5969238299999999,0.6110839849999999,0.998535155,0.500011324656118,0.49994564163318017,0.5000156546434593,59.25,9.15,93.45,0.12475585999999998,0.5537109400000001,0.8356933599999999,0.4999439762400079,0.5000021983294594,0.500009259582547,57.45,20.1,30.0
0.04272460999999998,0.44848633,0.403564455,0.5000768078388566,0.5000366385625231,0.4999363154663221,2.55,23.1,22.05,0.57128906,0.6198730450000001,0.9777832049999999,0.49999453755577355,0.4999475068665518,0.5000383706272727,61.5,7.35,93.75,0.12622070500000002,0.5439453150000001,0.8415527349999999,0.499915131707059,0.500000066584311,0.4999854111418484,56.55,21.0,31.2
0.01831054499999999,0.458740235,0.403320315,0.5000556906639043,0.5000163874199458,0.49997308728473366,2.1,22.2,21.3,0.59082031,0.6149902349999999,0.994628905,0.4999650934149601,0.49994044561346407,0.5000705459465662,61.5,7.35,93.75,0.12744140499999998,0.55126953,0.849121095,0.4998925489791339,0.5000033307863445,0.4999949372361723,57.9,20.55,30.0
0.0029296899999999935,0.45751953,0.392333985,0.5000078606138851,0.5000265130348677,0.4999426439429234,3.45,22.5,21.9,0.588867185,0.611816405,1.002929685,0.4999427105272344,0.4999539020147305,0.5001159111553493,59.7,8.85,94.2,0.13037109500000002,0.5300292950000001,0.84423828,0.49987069911496174,0.50001945178178,0.4999755520387033,57.15,20.1,29.7
-0.015869140000000014,0.448242185,0.3828125,0.5000077274452632,0.5000188522611819,0.49996902372190266,3.45,22.5,21.9,0.5998535150000001,0.6032714849999999,0.99169922,0.49994111180563955,0.4999555007363253,0.5001260367702712,59.85,9.0,94.05,0.14038086,0.541503905,0.8234863299999999,0.4998516470135805,0.5000041968187193,0.4999594311305343,57.3,19.2,29.4
-0.027587890000000014,0.435058595,0.377685545,0.5000044632432297,0.4999825467074801,0.5000195183660909,1.35,21.75,22.35,0.6115722650000001,0.5993652349999999,0.9919433599999999,0.49992932079754543,0.49997155514744973,0.5001326983429603,60.6,7.8,94.35,0.13574218999999998,0.5397949200000001,0.8244628900000001,0.49981121131273676,0.5000075941893748,0.49998341273985486,56.7,19.05,30.3
-0.031005859999999986,0.419677735,0.38256836,0.4999824801231691,0.49998840891937163,0.5000111248159187,1.8,21.9,22.8,0.6037597650000001,0.5915527349999999,0.98486328,0.49994284378312276,0.49999353826751036,0.5001439563275007,61.35,8.55,94.35,0.138427735,0.5341796900000001,0.837890625,0.499770109506984,0.499988608759571,0.49997681775147684,57.3,21.0,29.85
-0.03222656500000005,0.41870117,0.38720703,0.49999114009785167,0.4999780168799394,0.4999729540288453,3.0,22.35,22.05,0.6208496099999999,0.577148435,0.9826660150000001,0.49994444259198406,0.5000035306265439,0.5001983146943206,60.15,9.0,93.3,0.14746093999999998,0.5329589849999999,0.8332519549999999,0.4997430635358292,0.4999748192622168,0.4999908736733413,57.3,21.0,29.85
-0.015380859999999984,0.42602539,0.400634765,0.5000047963393174,0.49993864705166985,0.5000414349018405,1.35,23.25,22.95,0.61035156,0.56640625,0.98925781,0.4999527028862679,0.5000303100859218,0.5001648736622537,60.45,8.85,93.3,0.14208984500000002,0.53857422,0.8117675799999999,0.49977390655803816,0.5000122572728039,0.5000013322970845,57.3,21.0,29.85
0.0014648450000000254,0.453125,0.400390625,0.4999855443977368,0.4999743529975072,0.5000415015734179,1.35,23.25,22.95,0.606933595,0.5703125,0.9802246099999999,0.4999419778380144,0.5000245145456076,0.5001933851863813,60.45,8.85,94.2,0.140625,0.5153808599999999,0.8171386700000001,0.4997475934506363,0.5000322419908709,0.4999852779732265,56.55,20.25,30.15
-0.0017089849999999843,0.458496095,0.403320315,0.49998201377119295,0.5000163874199458,0.5000201845582664,2.7,22.5,22.35,0.6228027349999999,0.5729980450000001,0.986328125,0.49998727637522006,0.5000606201718436,0.5001981148541212,60.45,8.85,94.2,0.14721679499999998,0.5383300799999999,0.817871095,0.4996976983270462,0.5000611531081308,0.5000169203562328,56.55,20.25,30.15
-0.003662109999999984,0.454345705,0.392333985,0.49997768378385166,0.5000243812897193,0.5000558239197928,1.5,21.9,23.1,0.592285155,0.579589845,0.9982910150000001,0.5000215168553509,0.5001638077896795,0.5001685375446859,60.0,7.65,94.5,0.12939452999999998,0.5126953150000001,0.8459472650000001,0.49970122895359004,0.5000657496072488,0.49999313858711164,56.4,19.35,31.05
-0.004638669999999991,0.462890625,0.396484375,0.4999302534142312,0.5000465643372457,0.5000543583668198,0.6,21.45,21.6,0.5617675799999999,0.5529785150000001,0.97998047,0.4999941377881084,0.5001027879374371,0.5001961830364386,61.05,7.35,94.5,0.11596679499999998,0.5021972650000001,0.837890625,0.4997316056238228,0.5000399693488676,0.5000041968187193,56.1,20.1,29.7
-0.012939454999999952,0.466552735,0.384521485,0.4999340505525518,0.5000784732320288,0.5000407021253541,0.6,21.45,21.6,0.5632324200000001,0.55517578,0.99267578,0.5000009326166858,0.5000582220894514,0.5001899211441484,59.85,7.5,92.55,0.114257815,0.505126955,0.8381347650000001,0.4997675114971259,0.5000311761182967,0.5000329080957798,57.0,20.7,31.2
-0.0048828100000000065,0.46582031,0.384277345,0.4999349164976602,0.500064150885654,0.5000484295706172,0.6,21.45,21.6,0.5710449200000001,0.5361328150000001,0.997558595,0.5000093928384355,0.5001005896079778,0.5001736668928246,59.85,7.5,92.55,0.10205077999999998,0.47583008,0.8391113299999999,0.49975638668120725,0.5000679479367082,0.500034040552665,55.65,18.3,31.35
-0.00854491999999999,0.474853515,0.388671875,0.4999097358471435,0.5001050528512074,0.5000433668067895,1.65,21.75,21.6,0.5754394549999999,0.533691405,1.00366211,0.5000256470024929,0.5000895980479474,0.5001569463767911,61.5,7.65,93.75,0.11328125,0.46557617,0.86035156,0.4997386002925996,0.5000664157994243,0.500011324656118,58.2,19.8,30.75
-0.013183594999999968,0.471679685,0.38208008,0.4998868200231307,0.5001294341409267,0.5000448989440734,1.65,23.25,20.85,0.5925292950000001,0.54638672,1.01538086,0.5000518935255837,0.5000571562168772,0.5001745329251994,60.75,8.4,94.5,0.12011719,0.475341795,0.8552246099999999,0.49975971746755177,0.5000656163513604,0.5000615528757959,56.7,19.05,31.35
-0.005615234999999984,0.458740235,0.380126955,0.4998957465968565,0.5001026546815487,0.5000788729124275,2.55,23.1,22.05,0.5812988299999999,0.5400390650000001,0.998535155,0.5000412350616411,0.500040036020445,0.500137694522477,60.75,8.4,94.5,0.130859375,0.458740235,0.8327636700000001,0.4997715750599569,0.5000953269166842,0.5000069279971994,56.7,19.05,31.35
