IMU1_AccX,IMU1_AccY,IMU1_AccZ,IMU1_GyrX,IMU1_GyrY,IMU1_GyrZ,IMU1_MagX,IMU1_MagY,IMU1_MagZ,IMU2_AccX,IMU2_AccY,IMU2_AccZ,IMU2_GyrX,IMU2_GyrY,IMU2_GyrZ,IMU2_MagX,IMU2_MagY,IMU2_MagZ,IMU3_AccX,IMU3_AccY,IMU3_AccZ,IMU3_GyrX,IMU3_GyrY,IMU3_GyrZ,IMU3_MagX,IMU3_MagY,IMU3_MagZ
-0.03344726500000002,0.493164065,0.47583008,0.49970702449390414,0.5003189556046764,0.5000618858846172,5.1,24.15,25.2,0.5925292950000001,0.556640625,0.9826660150000001,0.5000227825681245,0.5001413583176427,0.5003146256173351,55.65,7.65,96.6,0.09619140499999998,0.44140625,0.799804685,0.4996783132168436,0.5000590880345598,0.4999936049390878,56.1,17.85,31.8
-0.07714844000000005,0.49511719,0.420410155,0.4996775804403572,0.5003792427676987,0.5000777404555423,4.35,24.15,25.65,0.5930175799999999,0.5349121099999999,0.994140625,0.5000043966589187,0.5001312327899874,0.5003265497940512,56.1,8.4,95.55,0.10498047000000002,0.42895508,0.7976074200000001,0.4996468040024592,0.5001009892883764,0.4999849448771388,54.9,17.1,33.45
-0.12036132999999995,0.49658202999999995,0.388427735,0.4996454717053747,0.500445791735745,0.5001009227040655,4.65,22.35,24.6,0.614746095,0.510253905,0.981933595,0.5000007993607974,0.5001705359466794,0.500350131722973,56.55,7.05,95.7,0.10546875,0.423339845,0.8225097650000001,0.4996490689162295,0.5001281018438422,0.5000317090545837,55.8,19.5,33.3
-0.14111328000000004,0.487304685,0.372314455,0.49964373964062503,0.5004296041559986,0.5001413583176427,4.5,22.95,25.05,0.622558595,0.48754883,0.991210935,0.5000031975304562,0.5001815941782871,0.5003396730119634,54.9,9.15,95.55,0.10766601500000002,0.431884765,0.8249511700000001,0.4996476699475676,0.5001367619057911,0.5000148552826619,54.6,19.05,33.9
-0.11889648499999998,0.47802734500000005,0.36767578,0.4996460046416618,0.5003945643150703,0.5001139127533557,4.5,22.95,25.05,0.6281738299999999,0.462646485,1.005126955,0.5000548913031069,0.5001831929871484,0.500338274130568,56.4,8.85,95.25,0.10327148499999998,0.41796875,0.8125,0.4996634579341817,0.5001312993742983,0.500039503084158,54.6,19.05,33.9
-0.09301757999999995,0.490478515,0.37182617,0.49960736750261225,0.5003617228036015,0.5001208407505551,3.15,24.3,24.3,0.627441405,0.455078125,1.0034179699999999,0.5001155114749506,0.5002432136383941,0.5003244846332138,56.4,8.85,95.25,0.12329101500000002,0.420166015,0.81591797,0.499643806224936,0.5001092495826603,0.5000716784034513,57.15,18.6,32.85
-0.060546875,0.478515625,0.385253905,0.4996320153041083,0.5003749126930911,0.5001883890068646,2.7,24.75,24.3,0.6218261700000001,0.45751953,0.9953613299999999,0.5001687373848853,0.5002075076925567,0.5002950405796668,57.3,7.5,94.65,0.1171875,0.419677735,0.81689453,0.4996341470492567,0.500147087273646,0.500064883574874,57.15,18.6,32.85
-0.020996094999999968,0.49169922000000005,0.40136719,0.4996547978722327,0.5003424708620209,0.5002260934419618,3.75,26.25,24.3,0.6223144549999999,0.47290039,1.016845705,0.5001775306154562,0.5002065749886044,0.5002495421149953,56.7,6.15,94.8,0.12109375,0.412597655,0.822265625,0.4996701194196043,0.5001399594362473,0.5000885321753732,57.15,18.6,32.85
0.009521484999999984,0.5212402349999999,0.42944336,0.4996353460904528,0.500360990027115,0.5002284249400432,2.1,26.25,24.0,0.6228027349999999,0.50073242,1.015625,0.5002124372004961,0.500162408908284,0.500193185346182,57.45,8.4,93.75,0.12084960999999998,0.42138672,0.82128906,0.4996960329338739,0.500123505344724,0.500047363698043,56.1,16.8,31.35
0.03393554499999999,0.549316405,0.427246095,0.49967345020594883,0.5003677182713814,0.5002152350505534,2.1,26.25,24.0,0.603027345,0.501220705,0.9865722650000001,0.5002110383191006,0.5001326316713828,0.500184458699922,57.45,8.4,93.75,0.11474609500000002,0.42163086,0.8176269549999999,0.4997122205136203,0.5001086500620622,0.5000951937480623,55.2,17.7,32.55
0.05859375,0.5729980450000001,0.421875,0.4997090895674751,0.5003822404579555,0.5002277588351342,2.25,26.7,22.8,0.6062011700000001,0.53076172,0.970703125,0.5002153016348644,0.5001235720163015,0.5001622090680846,57.3,9.75,95.4,0.12475585999999998,0.41796875,0.8259277349999999,0.49973073967871445,0.5001492190187944,0.5001074510208661,56.25,17.7,33.3
0.05590820500000001,0.577148435,0.4140625,0.4997080236949009,0.5004087534055568,0.5001579456650543,2.7,27.75,23.7,0.60595703,0.557128905,0.9738769549999999,0.5001732006281149,0.5001462213285376,0.5001500183795917,57.0,9.3,95.4,0.11889648499999998,0.39794922,0.8356933599999999,0.4997621822215214,0.5002362856411947,0.5000875995586875,57.3,18.45,32.55
0.04638672000000003,0.576171875,0.403564455,0.49973953290928536,0.5004068881721851,0.5001755321261961,1.65,27.0,22.65,0.6218261700000001,0.55126953,0.995117185,0.5001709357143447,0.5001405589568453,0.5001261700261596,57.0,9.3,95.4,0.11352539000000002,0.384765625,0.8615722650000001,0.4997847649494465,0.5002436133187927,0.5000750757741068,56.25,18.45,30.9
0.03637695500000001,0.57470703,0.401123045,0.499770109506984,0.500388901943378,0.500136362138126,1.65,27.0,22.65,0.6130371099999999,0.5544433599999999,0.98828125,0.5001404923725343,0.50019378486678,0.5001467541775583,57.0,10.05,94.35,0.10522460999999998,0.39135742,0.8610839849999999,0.49985237979006697,0.5002470106894482,0.500109049742461,57.3,17.7,32.25
0.025390625,0.5651855450000001,0.38354492,0.49976331467840657,0.5004363988973096,0.5000659494474482,1.05,29.55,22.95,0.6232910150000001,0.5458984400000001,1.0063476550000001,0.5001067182443797,0.5001779969674323,0.5001509509962776,57.0,11.25,95.1,0.106445315,0.40161133,0.859375,0.499897145478252,0.50022669296256,0.5001317657262744,57.3,17.7,32.25
0.025634765000000014,0.5612792950000001,0.38354492,0.49984138823003665,0.5003396730119634,0.5001061853080926,1.65,28.8,21.3,0.62548828,0.5305175799999999,1.001220705,0.5001031209462583,0.5002124372004961,0.5001516171884531,56.7,10.65,94.8,0.11743164000000002,0.39916992,0.850585935,0.4999449088566937,0.5001693369054833,0.5001442894235886,56.55,18.45,30.45
0.025390625,0.560546875,0.36791992,0.49986230547752303,0.5003358759609092,0.5000824701232823,0.0,27.75,21.6,0.639160155,0.5283203150000001,1.00415039,0.5001190421014945,0.5001925191540064,0.5001059854678932,56.7,10.65,94.8,0.125,0.40185547,0.846679685,0.49997628481518974,0.500201112544378,0.5001420910941292,58.35,18.75,30.9
0.007080080000000009,0.560058595,0.357177735,0.4998724310924449,0.5002709922987688,0.5000480298902186,0.3,28.05,21.3,0.6271972650000001,0.5266113299999999,0.98876953,0.500111647752319,0.5001943843873781,0.5000941944597991,58.2,8.1,93.75,0.11791991999999998,0.395996095,0.821777345,0.49998987438507814,0.5002293575567289,0.500166472471115,57.9,18.3,31.05
0.005371095000000025,0.5598144549999999,0.357910155,0.49992918762892347,0.5002065749886044,0.5000567565364785,0.3,28.05,21.3,0.614746095,0.529296875,0.9875488299999999,0.5001160444112377,0.5001623422367066,0.5000748759339075,58.05,11.55,96.15,0.12109375,0.418945315,0.8312988299999999,0.49998441194085164,0.5002630651005727,0.5001536822620241,57.45,19.35,29.25
0.011962890000000016,0.5568847650000001,0.368164065,0.4999679578493285,0.500178396647831,0.5000440329116985,1.05,29.85,21.9,0.6271972650000001,0.54345703,0.981933595,0.5001169104436125,0.5001724012673175,0.5000724111799378,57.45,10.35,93.45,0.125,0.41308594,0.819335935,0.4999992672235135,0.5002546715504005,0.5001502848041021,57.15,19.05,31.35
0.03173827999999997,0.5554199200000001,0.376708985,0.4999838790045646,0.5001510842521659,0.5000038637226316,0.3,28.5,20.85,0.62841797,0.5725097650000001,0.9689941400000001,0.5000820704428836,0.500194450971689,0.5000219165357496,58.35,10.8,94.35,0.10839844,0.42602539,0.80957031,0.4999704226905646,0.5002512075081675,0.5000953935882616,56.25,18.0,29.1
0.05834960999999998,0.56201172,0.384521485,0.5000123905286922,0.5001364953940144,0.5000263797789792,-0.3,29.25,22.65,0.5798339849999999,0.5959472650000001,0.9938964849999999,0.5000877328145759,0.500210438711236,0.5000417679979283,59.85,12.0,94.05,0.12133789000000002,0.44165039,0.796875,0.49996122969232853,0.5002169670280368,0.5000712787230527,56.25,18.0,29.1
0.063476565,0.5646972650000001,0.380615235,0.5000255137466044,0.500160410419024,0.5000234486730334,-0.3,29.25,22.65,0.5915527349999999,0.6447753900000001,1.001708985,0.500026779459378,0.5001188422612951,0.5000817373467958,59.7,11.1,94.2,0.12646484500000002,0.44604492,0.8073730450000001,0.4999294540534338,0.5002169670280368,0.5000652833425392,57.15,19.05,29.7
0.07592773499999998,0.5739746099999999,0.38623047,0.49999233922631425,0.5002109050632122,0.49999527033226004,-0.15,28.2,22.5,0.5910644549999999,0.5837402349999999,0.9704589849999999,0.5000343070644419,0.5000867335263126,0.5000381707870735,59.7,11.1,94.2,0.102539065,0.443359375,0.81640625,0.49992425803371765,0.5001833928273478,0.5000345069046412,57.15,19.05,29.7
0.08032226500000002,0.581054685,0.38232422,0.5000144556022632,0.5002131033926716,0.5000103920394322,-0.45,28.2,21.75,0.533691405,0.6208496099999999,0.9943847650000001,0.5000124571130031,0.500084335356654,0.500044832272496,59.7,11.1,94.2,0.10693359500000002,0.44165039,0.826660155,0.49988149083479266,0.5001305000135009,0.5000231822485232,59.1,17.7,29.1
0.07397460999999998,0.5729980450000001,0.369873045,0.5000117910080942,0.5002185658368979,0.5000393032439586,-0.15,30.45,21.75,0.5808105450000001,0.6171875,1.002685545,0.49999573659696966,0.5001265030349809,0.5000482963147289,59.1,9.0,93.6,0.087890625,0.44213867,0.83642578,0.4998710987953604,0.5001269027153795,0.5000152549630607,58.05,18.75,29.85
0.06030273499999998,0.5778808599999999,0.35083008,0.499975951719102,0.5002569364641708,0.4999904739929426,-1.35,28.05,22.35,0.5827636700000001,0.6140136700000001,1.0024414050000001,0.49993518300943696,0.5002007128639794,0.5000835359958565,59.55,9.75,94.65,0.06152343999999999,0.459716795,0.8312988299999999,0.4998506478125837,0.5000852013890288,0.5000212503435741,57.6,19.5,27.3
0.04565429499999999,0.5715332049999999,0.337158205,0.5000023981696587,0.5002361523853064,0.5000030643618342,-1.35,28.05,22.35,0.5700683599999999,0.611328125,0.98828125,0.5000309096065199,0.5001300336615248,0.4999986010313381,58.2,11.85,94.5,0.05029297000000003,0.44238281,0.8317871099999999,0.49983206206317865,0.5000615528757959,0.4999907404174529,56.4,19.35,29.25
0.04638672000000003,0.55029297,0.32470703,0.5000136562414658,0.5002177664761006,0.5000209839190638,-2.7,28.5,21.6,0.5490722650000001,0.59472656,1.0502929699999999,0.4997832993964736,0.5001257036741834,0.5001154448906396,58.35,10.05,93.6,0.07543945500000002,0.40576172,0.837402345,0.49981374273828383,0.5000338407124657,0.5000038637226316,57.45,18.6,29.25
0.04028320500000001,0.5437011700000001,0.31713867,0.4999818139309936,0.5002038438101245,0.49998454519674007,-1.65,29.55,20.85,0.5773925799999999,0.5456542950000001,0.9685058599999999,0.4998958797654784,0.5000098591031451,0.5000820038585726,59.85,10.05,93.3,0.07348633000000002,0.395507815,0.8454589849999999,0.4998381906995805,0.4999980681823174,0.49999127335374005,57.15,17.85,30.3
0.03662109500000003,0.545410155,0.3203125,0.5000121240169154,0.5001406255411563,0.49998361258005425,-2.1,28.8,20.85,0.576660155,0.5187988299999999,0.970214845,0.4999796822731117,0.5000999234158022,0.4999956700126587,60.45,9.9,94.5,0.08178710999999998,0.39404297,0.849609375,0.49985944104315466,0.49997894949662525,0.4999977350862297,57.15,17.85,30.3
0.04003906499999999,0.5397949200000001,0.326660155,0.5000209839190638,0.5001268361310686,0.4999998667441116,-2.1,28.8,20.85,0.6086425799999999,0.5339355450000001,1.0249023449999999,0.4998740964856172,0.4999880758232839,0.5000480298902186,60.45,9.9,94.5,0.07934570500000002,0.38671875,0.8469238299999999,0.4998629050853875,0.4999636944462982,0.4999948039802839,57.15,17.85,30.3
0.04833984500000003,0.5466308599999999,0.342285155,0.5000061286364019,0.5001108483915215,0.4999791493368246,-2.1,28.8,20.85,0.581054685,0.5270996099999999,1.00805664,0.49987363013364106,0.49996296175707816,0.5000680145210191,59.1,10.8,94.65,0.08862304499999998,0.387695315,0.842285155,0.4998779602082488,0.49991286679328867,0.4999744862533956,57.6,17.7,29.1
0.05932616999999999,0.5400390650000001,0.361816405,0.500031375958496,0.5000871998782888,0.49995916461875756,-1.8,27.9,19.35,0.5998535150000001,0.50854492,1.00366211,0.4999112679844274,0.49994470901649435,0.500024780970118,58.8,10.8,94.35,0.090820315,0.39135742,0.837890625,0.49989341501150875,0.4998994103920223,0.4999897412164561,57.6,17.7,29.1
0.06811523499999998,0.5295410150000001,0.360595705,0.500046697593134,0.5000520934530495,0.4999728208602233,-2.1,28.5,20.85,0.608398435,0.5207519549999999,1.010498045,0.4999313192868054,0.49990660490099836,0.5000144556022632,59.7,9.9,93.15,0.09619140499999998,0.391845705,0.830078125,0.4998660360315327,0.4999179295571164,0.4999769510073652,58.35,19.2,28.8
0.064453125,0.5244140650000001,0.350097655,0.5000427006146141,0.5000573560570766,0.4999580321618724,-2.25,29.7,19.95,0.5939941400000001,0.5114746099999999,1.00097656,0.49992652294748796,0.4999401125173763,0.5000135895698883,59.7,9.9,93.15,0.094726565,0.39526367,0.841796875,0.49987416306992816,0.49989721206256293,0.4999781500485614,56.4,19.8,28.95
0.05297851500000002,0.5234375,0.34692383,0.5000694800739921,0.5000635512777895,0.4999493720999234,-1.8,30.15,19.35,0.607910155,0.501220705,1.00024414,0.4999426439429234,0.49989008422516423,0.4999755520387033,59.7,10.35,94.5,0.10009765499999998,0.39013672,0.8420410150000001,0.4999174632051403,0.49992339200134284,0.4999742197416188,57.3,17.4,29.1
0.03369140499999997,0.517089845,0.353515625,0.5001004563520893,0.5000111248159187,0.49995117074898404,-1.8,30.15,19.35,0.6154785150000001,0.51220703,0.9958496099999999,0.499932518415268,0.49988715311921844,0.4999952036606826,59.25,9.15,94.2,0.1015625,0.3984375,0.8303222650000001,0.4999323851593796,0.4998812243230159,0.49998734304679743,56.1,19.05,29.7
0.03735351500000002,0.501464845,0.35839844,0.5001057856276939,0.5000217166955503,0.4999875428869968,-1.5,27.9,18.9,0.625,0.502929685,0.999023435,0.49996662555224397,0.4998797587700429,0.4999910735135407,59.25,9.15,94.2,0.10400390499999998,0.391601565,0.8395996099999999,0.49990893648634616,0.4998802917063301,0.5000022649137703,57.15,17.55,29.7
0.03247070500000001,0.508789065,0.357177735,0.500142957126504,0.5000070612530877,0.4999676248405072,-2.1,28.8,20.25,0.6022949200000001,0.51098633,1.013427735,0.4999882089919058,0.4998734969650191,0.49998307964376715,58.2,9.15,93.15,0.103515625,0.384765625,0.8464355450000001,0.4999140658344848,0.49988522130153584,0.4999862771742233,56.7,19.05,28.95
0.03881835999999998,0.510253905,0.36743164,0.5001823935390846,0.49998747630268586,0.500000066584311,-2.55,26.7,21.45,0.619628905,0.5207519549999999,1.01953125,0.5000137228257767,0.49985637668132044,0.4999821470270813,59.85,9.3,93.6,0.10449219,0.377197265,0.84716797,0.4999103353677416,0.499897078893941,0.49998507813302717,56.7,19.05,28.95
0.022949220000000024,0.5158691400000001,0.35986328,0.5001837925077465,0.5000147220267734,0.49997495251810525,-2.55,26.7,21.45,0.6306152349999999,0.537109375,1.02319336,0.49999853444702713,0.49985038130080695,0.4999914731939394,58.8,10.05,94.35,0.102539065,0.377685545,0.8542480450000001,0.499906338476488,0.49989581318116744,0.49998081472999684,56.4,20.1,31.05
0.017578125,0.51953125,0.368896485,0.5001591447062504,0.5000212503435741,0.4999682243611053,-1.5,28.2,18.6,0.6237792950000001,0.5295410150000001,1.017578125,0.49999500382048323,0.49983899006037796,0.4999806148897975,58.8,10.05,94.35,0.1015625,0.36254883,0.8664550799999999,0.4999108017197177,0.49988402217307326,0.49996156278841625,57.0,19.95,30.15
0.008300779999999975,0.52294922,0.37011719,0.5001745329251994,0.4999835459084768,0.5000079938697736,-1.8,27.15,20.7,0.626953125,0.53125,1.02416992,0.4999918062900271,0.4998311960308038,0.49996142953252787,57.9,9.6,94.5,0.1015625,0.35522461,0.8571777349999999,0.4999407121252408,0.49982413477771603,0.4999830130594562,58.5,17.55,31.05
0.009277345000000025,0.5263671900000001,0.37158203,0.5001480198903318,0.500009259582547,0.49993951299677825,-1.5,28.2,19.65,0.627929685,0.5341796900000001,1.02636719,0.4999616293727272,0.49982606659539863,0.49996276182961236,58.35,8.55,93.3,0.10400390499999998,0.356933595,0.8566894549999999,0.500007327677598,0.4998099455999632,0.499948506154815,57.3,18.0,30.15
-0.0014648450000000254,0.5231933599999999,0.37011719,0.500125037482008,0.4999998667441116,0.4999423775184131,-1.35,27.3,19.2,0.6418457049999999,0.5178222650000001,1.018310545,0.4999321186476028,0.49981747320502706,0.49994390965569696,58.35,10.8,94.05,0.11230469,0.354003905,0.866210935,0.5000355727772153,0.49984032235746245,0.4999435765596092,57.3,18.45,31.5
-0.0026855449999999906,0.5300292950000001,0.36352539,0.5001438897431898,0.4999571661294976,0.4999871432065981,-1.35,27.3,19.2,0.6389160150000001,0.50317383,1.00854492,0.4999252572347144,0.4997825000356762,0.4999481064744163,57.45,8.4,94.8,0.11059570500000002,0.34301758,0.87207031,0.5000770076790559,0.49983386062497276,0.49993071976620734,57.45,17.1,31.8
-0.0017089849999999843,0.5322265650000001,0.35961914,0.5001002565118899,0.49996535983947044,0.4999707556993859,-2.25,26.1,19.95,0.654785155,0.506835935,1.012939455,0.49991533154725837,0.4997922924672439,0.4999181293973157,58.65,11.1,94.8,0.11279297000000002,0.337158205,0.876953125,0.500131699054697,0.49980961259114187,0.49991699694043057,57.45,17.1,31.8
-0.0034179700000000254,0.5178222650000001,0.35864258,0.5001013889687752,0.4999650934149601,0.4999497051960111,-2.4,25.8,18.45,0.650878905,0.5144042950000001,1.017822265,0.4999165972600319,0.49977856964146716,0.49990347395485324,57.75,9.75,94.65,0.11083984500000002,0.344726565,0.8786621099999999,0.5001374280107002,0.49979402453199356,0.49995303598235563,57.3,18.75,31.5
-0.006591794999999991,0.51171875,0.368164065,0.500113579657268,0.49993864705166985,0.4999613629482169,-1.2,26.4,20.4,0.6579589849999999,0.5227050799999999,1.04321289,0.4999126002815119,0.4997859639906426,0.4998834226524752,57.75,9.75,94.65,0.102539065,0.35205078,0.896484375,0.5001592112905614,0.49981221060099995,0.4999352495937479,57.3,18.75,31.5
-0.0048828100000000065,0.506835935,0.364501955,0.5000953269166842,0.49996349460609885,0.49995456811963945,-1.2,26.4,20.4,0.6535644549999999,0.52392578,1.037109375,0.4999113345687384,0.49978463169355813,0.49986756816881656,57.0,9.3,94.35,0.08203125,0.34667969,0.913085935,0.5001888552715742,0.4998341937210606,0.49991233385700157,57.3,18.0,30.15
-0.004638669999999991,0.49462890499999995,0.37084961,0.5000780734643636,0.499939846092866,0.4999527028862679,-2.55,26.7,19.35,0.6408691400000001,0.520996095,1.04589844,0.49986410412658366,0.4997562534253188,0.49988355590836364,56.4,10.35,95.25,0.06372070500000002,0.36645508,0.8991699200000001,0.5002474770414244,0.49977150838837947,0.49990520593233645,57.15,18.3,31.8
0.0026855449999999906,0.498779295,0.376220705,0.50009625953337,0.4999124004413125,0.4999594311305343,-1.5,26.4,19.95,0.638183595,0.51123047,1.0395507800000001,0.4998697664982759,0.49973640196314023,0.4998381906995805,57.0,8.25,95.1,0.07080077999999998,0.364746095,0.89013672,0.5003033675455281,0.49970975575965065,0.49989967690379905,56.55,18.0,33.75
0.006591794999999991,0.50073242,0.368652345,0.5000765413270797,0.49993917990069053,0.49994410949589635,-2.25,27.45,20.7,0.6359863299999999,0.49194336,1.02807617,0.4998621056373237,0.499741398142657,0.49985937445884365,56.1,10.35,96.6,0.09350585999999998,0.379882815,0.880371095,0.500319421869386,0.4997020283143874,0.4999243246180286,55.2,18.0,32.25
0.007568359999999984,0.50732422,0.36352539,0.500073610221134,0.4999289877887241,0.49996442722278467,-1.2,26.1,19.65,0.63720703,0.49633789,1.0131835949999999,0.49990607196471126,0.49978956128876395,0.49983625879463145,56.7,8.85,95.25,0.09423827999999998,0.39501953,0.8671875,0.5003395398433415,0.4997402656857718,0.4999303200858086,55.2,18.0,32.25
0.016601564999999995,0.509765625,0.353759765,0.5000954601725726,0.49992425803371765,0.49997495251810525,-1.2,26.1,19.65,0.6364746099999999,0.4921875,1.0190429699999999,0.49994410949589635,0.4998334609445741,0.49980861330287873,55.2,9.3,95.7,0.10864258000000002,0.408935545,0.857421875,0.500358392017257,0.49977910257775426,0.4999220597042583,55.65,19.05,33.9
0.006591794999999991,0.50732422,0.34692383,0.5000786064006507,0.4998874196309952,0.499941844582126,-1.2,27.15,19.35,0.6325683599999999,0.5148925799999999,1.0078125,0.5000053292756045,0.4998295972219425,0.4997732404531291,55.2,9.3,95.7,0.12133789000000002,0.428466795,0.854003905,0.5003862373492091,0.4998186056619122,0.49993818069969376,56.25,17.4,31.95
-0.005126955000000009,0.51513672,0.345214845,0.5000875995586875,0.4999117343364035,0.4999327182554673,0.0,26.25,21.3,0.634765625,0.5471191400000001,0.9909667950000001,0.5000515605167625,0.4998400558456857,0.49977030934718336,55.35,11.1,95.25,0.12890625,0.452148435,0.84814453,0.5003711822263478,0.4998580420744927,0.4999328514240892,56.25,17.4,31.95
-0.00390625,0.513671875,0.34301758,0.5001352963528183,0.49983352752888505,0.4999571661294976,0.0,27.3,20.55,0.659179685,0.5625,1.006835935,0.5000226493122361,0.499824201362027,0.4997679111775246,54.75,9.0,96.45,0.14892577999999998,0.475341795,0.837890625,0.5003328116863416,0.4998407887094386,0.49996682539244336,56.1,17.55,32.85
-0.011474609999999984,0.506347655,0.3515625,0.5001216401113525,0.4998506478125837,0.49990513934802544,0.0,27.3,20.55,0.6892089849999999,0.58544922,0.9992675799999999,0.4999996669039123,0.499841588070236,0.4997813009072136,56.1,8.85,94.5,0.154541015,0.49462890499999995,0.8395996099999999,0.5002989708866094,0.49988861867219136,0.4999622289805918,55.8,18.45,33.0
-0.013427734999999984,0.49658202999999995,0.36279297,0.5001482864021086,0.49982020447077347,0.4999318522230925,0.3,25.8,20.25,0.674804685,0.5969238299999999,0.99707031,0.4999980681823174,0.49981787288542573,0.4998114778245135,56.1,8.85,94.5,0.14819336,0.5021972650000001,0.85107422,0.5002588682818533,0.4998673016570398,0.4999585650981595,56.25,17.4,33.0
-0.01464844000000005,0.491210935,0.353271485,0.5001553476551963,0.4997489923320318,0.4999858109095136,-1.35,25.05,19.5,0.6882324200000001,0.5925292950000001,0.9846191400000001,0.49996882388170333,0.49983179555140184,0.4998363253789425,56.1,8.85,94.5,0.15527343999999998,0.49951172000000005,0.8430175799999999,0.5002204977418471,0.49988615391822167,0.4999283881808596,54.9,17.55,34.95
-0.010253904999999975,0.486572265,0.35571289,0.5001634746935917,0.4997475934506363,0.5000037970510541,-0.3,26.25,20.25,0.6828613299999999,0.57910156,0.9924316400000001,0.499931119446606,0.49979868761542257,0.4998539785989282,54.9,9.15,96.6,0.131103515,0.49609375,0.8464355450000001,0.5002020451610638,0.4999216600238596,0.4999770175916762,55.8,18.75,33.75
-0.011962890000000016,0.490478515,0.34814453,0.5001828598910607,0.49970089585750227,0.49999673579796644,-0.6,26.25,19.5,0.6560058599999999,0.560546875,1.012939455,0.4999546347912169,0.49983719141131727,0.49988468836524874,55.5,8.55,95.1,0.10693359500000002,0.487060545,0.837890625,0.5001885888470639,0.49993937982815634,0.499957898905984,55.8,18.0,33.3
-0.006103515000000016,0.489990235,0.34326172,0.5001579456650543,0.4996956332534752,0.49995823200207173,-0.6,26.25,19.5,0.6467285150000001,0.52734375,0.9821777349999999,0.4999464410812441,0.49984358655949596,0.4999004762645965,55.5,8.55,95.1,0.11108398499999998,0.486083985,0.838867185,0.5001989142149187,0.49990760410199514,0.49998694336639876,55.8,18.0,33.3
-0.010742185000000007,0.486083985,0.33886719,0.5001977151737226,0.49965719604189146,0.5000131898894896,0.0,24.75,20.25,0.6276855450000001,0.5339355450000001,0.96533203,0.49999726873425354,0.4998611730206379,0.49989787825473836,55.8,6.3,95.7,0.12158202999999998,0.483398435,0.8156738299999999,0.5001524165492505,0.49990247475385646,0.500012790209091,56.4,17.85,32.4
-0.011230470000000025,0.47998047000000005,0.345458985,0.500182460210662,0.4996723177490637,0.5000109249757193,-0.75,25.35,20.4,0.61035156,0.54736328,0.9597167950000001,0.5000319088947831,0.49984565163306693,0.4998654364236682,55.2,9.0,95.4,0.12939452999999998,0.497070315,0.807617185,0.5001107818072106,0.49990800386966033,0.5000139226659761,56.4,17.85,32.4
-0.025390625,0.475585935,0.35083008,0.5001843254440336,0.499652466286885,0.49998347932416587,0.0,25.5,19.2,0.6135253900000001,0.568359375,0.955078125,0.5000677480965088,0.49986803443352623,0.49989827793513714,55.5,7.8,94.65,0.16333008000000002,0.50048828,0.82128906,0.5000860674214036,0.4999523032058692,0.5000402358606444,55.2,20.25,33.3
-0.017578125,0.47314452999999995,0.3671875,0.5001905872490574,0.4996759149599185,0.49998900843996974,0.0,25.5,19.2,0.6223144549999999,0.58544922,0.9650878900000001,0.5000290443731483,0.4998673683286172,0.49990966926283253,55.5,7.8,94.65,0.15722656499999998,0.513671875,0.8308105450000001,0.5000397695086682,0.4999488391636363,0.5000209839190638,56.25,17.7,34.8
-0.007568359999999984,0.48291015499999995,0.392822265,0.5002024448414626,0.4996848415336443,0.5000298438212122,0.0,25.5,19.2,0.6335449200000001,0.5886230450000001,0.9602050799999999,0.49999993341568905,0.49986890046590104,0.49998307964376715,53.7,7.8,95.4,0.16259765499999998,0.50732422,0.833984375,0.5000213170151515,0.49995050455680856,0.5000040635628309,54.9,19.8,32.4
0.014648439999999993,0.494384765,0.419189455,0.5001594778023382,0.4997302733267383,0.5000229157367464,-0.45,25.65,20.7,0.63720703,0.59033203,0.95751953,0.5000184524935167,0.49987429632581654,0.4999554341520143,56.7,9.15,96.6,0.15234375,0.51171875,0.8244628900000001,0.5000167871003445,0.49994977178032207,0.500011324656118,58.05,18.0,34.8
0.03149414000000002,0.5078125,0.43334961,0.5001265030349809,0.49980461641162516,0.5000150551228613,0.15,23.85,21.45,0.6247558599999999,0.5842285150000001,0.963867185,0.500035372937016,0.4998218031923683,0.49999127335374005,54.45,7.5,96.15,0.13989258000000002,0.51098633,0.8293457049999999,0.5000098591031451,0.49989148319382615,0.5000041301471418,56.1,17.85,33.15
0.04223633000000001,0.51074219,0.43334961,0.5001110482317209,0.4998457182173779,0.5000218499514386,1.35,24.0,21.3,0.6604003900000001,0.5847167950000001,0.96484375,0.5000020650735709,0.4998986776155358,0.4999802151221323,52.65,7.05,95.1,0.142822265,0.5080566400000001,0.819335935,0.5000013989686619,0.49993351761626476,0.49999673579796644,55.35,17.85,33.9
0.030761720000000024,0.517089845,0.41821289,0.5000444325920973,0.49990980243145444,0.49998927486448,0.0,24.3,22.95,0.642089845,0.573242185,0.9694824200000001,0.5000074609334864,0.4998973453184513,0.5000227825681245,53.85,7.65,94.5,0.138671875,0.49853515499999995,0.8161621099999999,0.49995769906578463,0.49994870599501434,0.5000001998401994,55.35,17.85,33.9
0.023925779999999976,0.5129394549999999,0.400146485,0.5000057955403142,0.4999529693980447,0.49998727637522006,0.0,24.3,22.95,0.6252441400000001,0.5676269549999999,0.96044922,0.5000165872601451,0.4999012756253938,0.5000151883787497,52.5,8.4,95.25,0.13720702999999998,0.482666015,0.829589845,0.4999222595444577,0.49995197010978143,0.5000011324568852,55.35,19.05,35.25
0.003662109999999984,0.50048828,0.38989258,0.5000149218669728,0.49996535983947044,0.49999500382048323,1.8,24.9,21.75,0.612304685,0.581054685,0.9787597650000001,0.5000069946687767,0.49990513934802544,0.5000167205160335,52.5,8.4,95.25,0.122070315,0.46582031,0.8264160150000001,0.4999159977394338,0.49995516772750404,0.5000205176543542,55.35,19.05,35.25
0.012207029999999975,0.49609375,0.38208008,0.4999474402822408,0.5000069279971994,0.4999742197416188,0.75,23.85,22.05,0.62939453,0.57421875,0.98925781,0.5000171201964322,0.4998687006257017,0.5000423675185263,53.85,7.65,94.8,0.11108398499999998,0.458496095,0.838867185,0.4999213935993493,0.4999245911298054,0.49999946706371295,53.7,18.75,34.35
0.025390625,0.490966795,0.37011719,0.4999174632051403,0.5000090597423477,0.49995590041672405,0.3,24.75,23.25,0.6076660150000001,0.56298828,0.97363281,0.49994024577326474,0.49992905437303503,0.5000448989440734,53.7,7.5,94.35,0.10913085999999998,0.45410156,0.826171875,0.49995157042938276,0.49988402217307326,0.500009326166858,54.9,19.05,33.45
0.015869140000000014,0.48925781,0.372070315,0.49992932079754543,0.5000169869405438,0.4999880091517065,0.75,23.85,22.05,0.6096191400000001,0.5478515650000001,0.96826172,0.49995623351281177,0.4998901508094752,0.5000550244717289,53.85,9.6,96.0,0.12890625,0.46826172000000005,0.82421875,0.4999299204054099,0.49987609497487717,0.5000278453319522,54.75,19.2,34.35
0.021728515000000014,0.481689455,0.37133789,0.49991466535508283,0.5000292443006141,0.499975352198504,0.75,23.85,22.05,0.61816406,0.549316405,0.970703125,0.49994457576060597,0.4999257901710015,0.5000502282196779,53.85,9.6,96.0,0.13378906499999998,0.46582031,0.8112792950000001,0.49992465771411637,0.4999112679844274,0.5000121240169154,53.25,20.1,34.95
0.018554689999999995,0.48461914,0.37524414,0.49990753751768413,0.5000158544836586,0.4999774172720749,1.5,24.6,22.5,0.6252441400000001,0.5544433599999999,0.955566405,0.49996189588450396,0.4999186623336029,0.500068347617107,52.05,7.65,94.8,0.14428711,0.46850586,0.8200683599999999,0.49988209035539066,0.4999171967806299,0.5000181860690064,53.25,20.1,34.95
0.019775390000000014,0.48583984500000005,0.37451172,0.4999245911298054,0.49998641043011166,0.5000097925188342,0.75,24.6,22.5,0.6491699200000001,0.5549316400000001,0.951171875,0.4999574992255853,0.49993831395558214,0.5001057189561164,52.65,8.25,94.65,0.15112304499999998,0.48803711,0.8244628900000001,0.49984745019486115,0.49993991267717697,0.5000453652087831,53.25,20.1,34.95
0.020996095000000024,0.48828125,0.373535155,0.4999016753057926,0.49996835761699365,0.5000037970510541,1.5,26.7,21.45,0.6486816400000001,0.5480957049999999,0.951660155,0.4999725543484465,0.49990520593233645,0.5000925957382042,52.65,8.25,94.65,0.16455077999999998,0.48022461,0.8312988299999999,0.4998426539428102,0.49990886981476873,0.5000399027645567,55.2,19.95,33.75
0.015869140000000014,0.5,0.380615235,0.49990220824207965,0.4999908736733413,0.4999567664490988,1.5,26.7,21.45,0.6579589849999999,0.540527345,0.9309082049999999,0.4999767511671659,0.499932518415268,0.5001039869786332,52.2,9.0,96.15,0.18261718999999998,0.47119140499999995,0.84033203,0.4998500482047192,0.49992772207595054,0.5000399693488676,55.2,19.95,33.75
0.021728515000000014,0.50341797,0.38720703,0.49991146782462675,0.49993051992600795,0.4999986010313381,0.75,25.65,22.05,0.6511230450000001,0.5334472650000001,0.9196777349999999,0.4999731538690446,0.49995430169512917,0.5000880658233972,53.55,8.85,95.55,0.19409179499999998,0.462158205,0.830566405,0.4998960796056778,0.4998898843849649,0.5000619525561947,54.45,18.45,33.3
0.031005859999999986,0.502929685,0.39526367,0.4998900176408533,0.4999613629482169,0.49998014853782136,1.35,24.3,22.35,0.65234375,0.5441894549999999,0.9138183599999999,0.49998960796056774,0.49995929787464594,0.5000751424456843,53.7,8.25,94.65,0.19824218999999998,0.46557617,0.825683595,0.4999297204779441,0.4998788928249346,0.5000484961549282,54.0,18.0,35.1
0.028320314999999995,0.49536133,0.41430664,0.49989741199002874,0.49994004593306535,0.4999502381322982,-0.3,24.0,21.6,0.665527345,0.54296875,0.9143066400000001,0.5000197182062902,0.4999435765596092,0.5001147121141531,53.7,8.25,94.65,0.22167968999999998,0.46533203,0.80517578,0.49994517536847055,0.4998739632297288,0.5000349065850399,53.55,19.05,36.0
0.04248047000000003,0.497070315,0.422851565,0.49990886981476873,0.4999349831692376,0.499971222051362,2.7,24.3,24.0,0.6755371099999999,0.5627441400000001,0.912597655,0.49999726873425354,0.49995516772750404,0.5001031209462583,52.8,8.4,95.25,0.22265625,0.451660155,0.79296875,0.4999250573945151,0.4999417113262376,0.500005196019716,55.65,18.3,35.25
0.0390625,0.50830078,0.435058595,0.49991799614142735,0.49994097854975117,0.5000271125554657,2.7,24.3,24.0,0.6750488299999999,0.55810547,0.91113281,0.4999880091517065,0.4999942710439968,0.5000950604921739,52.65,8.25,95.7,0.23681640499999998,0.43823242,0.786621095,0.4998868200231307,0.5000145221865742,0.5000231822485232,54.0,18.75,34.35
0.04150390499999997,0.5275878900000001,0.43774414,0.49987995869750873,0.4999642940541627,0.49997188824353755,1.2,24.6,22.8,0.682128905,0.544433595,0.905273435,0.4999678912650175,0.49999173970571614,0.5001047863394307,53.4,8.55,96.45,0.236328125,0.423095705,0.7849121099999999,0.4998941477879952,0.5000229824083238,0.4999995336480239,53.7,19.5,35.4
0.04467773499999998,0.5266113299999999,0.431152345,0.4999032075303429,0.4999600306511324,0.50000872664626,0.15,25.35,22.8,0.6789550799999999,0.533691405,0.8972167950000001,0.4999475068665518,0.5000229824083238,0.5001130467209809,53.1,7.65,96.0,0.23193359500000002,0.408203125,0.7883300799999999,0.4998938812762184,0.5000184524935167,0.500010791719831,53.7,19.5,35.4
0.03564452999999997,0.533203125,0.41796875,0.49985191343809077,0.499997401990142,0.4999636278619872,0.75,24.6,21.75,0.6857910150000001,0.50488281,0.8854980450000001,0.4999700230101659,0.4999982680225168,0.5001117144238963,53.7,8.25,96.9,0.236572265,0.40551758,0.7819824200000001,0.4999265896190654,0.5000083269658613,0.5000048629236283,54.6,19.35,36.3
0.02416991999999999,0.5166015650000001,0.40185547,0.4998500482047192,0.49999886754311484,0.4999958031812807,0.75,24.6,21.75,0.6760253900000001,0.491210935,0.885253905,0.4999287878612583,0.5000993904795151,0.500076208230992,52.65,6.75,95.1,0.23144531499999998,0.40258789,0.79638672,0.49996182921292653,0.5000295107251244,0.49998987438507814,54.6,19.35,36.3
0.008056640000000016,0.50439453,0.403320315,0.49988801915159325,0.49997854972896005,0.4999812144103955,2.4,24.3,21.6,0.6467285150000001,0.47583008,0.870117185,0.4999342503927512,0.5001322986625616,0.5000688805533939,52.65,6.75,95.1,0.22729491999999998,0.39892578,0.7976074200000001,0.4999883422477942,0.5000658161915598,0.5000039969785199,54.75,19.95,36.45
0.012695314999999993,0.489501955,0.405029295,0.4999124004413125,0.5000007993607974,0.499993405011622,1.65,26.25,21.6,0.6574707049999999,0.47265625,0.8884277349999999,0.4999498384518995,0.5001570796326795,0.500046764177445,51.15,8.25,95.1,0.20385741999999998,0.41015625,0.80810547,0.4999988009588039,0.5000689471377049,0.500022715896547,54.3,19.05,37.05
0.019287109999999986,0.48095702999999995,0.42529297,0.4999381141153828,0.5000209839190638,0.49997401990141943,0.75,25.65,22.05,0.6643066400000001,0.48681640499999995,0.916015625,0.4999571661294976,0.5001619425563079,0.5000371049144993,53.4,6.75,95.7,0.20947265499999998,0.415771485,0.7990722650000001,0.4999972021499426,0.5000705459465662,0.5000460979852696,55.35,18.6,35.55
0.03271484500000003,0.48876952999999995,0.432373045,0.4999842121006523,0.500020051302378,0.499997401990142,2.25,25.65,22.8,0.6647949200000001,0.47631836,0.91455078,0.4999676914248182,0.5001724012673175,0.499997934926429,52.95,6.75,94.35,0.19409179499999998,0.415283205,0.79736328,0.5000425673587257,0.5000859341655152,0.5000495620275024,55.2,19.5,35.1
0.05493164000000002,0.48974609500000005,0.436035155,0.5000141225061755,0.5000626853326811,0.5000231155769457,2.25,25.65,22.8,0.638183595,0.47680664,0.8984375,0.4999658261914466,0.5001409586372441,0.5000237817691212,52.95,6.75,94.35,0.20556640499999998,0.416503905,0.80126953,0.5000620191405056,0.5000748759339075,0.5000406355410432,54.3,19.8,35.55
0.04394531499999999,0.49902344,0.436523435,0.4999970023097432,0.5001121806886061,0.4999549012157273,0.45,26.1,23.85,0.64111328,0.48803711,0.903808595,0.49998641043011166,0.5001895880480607,0.500008660061949,53.85,6.6,94.5,0.20996093999999998,0.41796875,0.815429685,0.5000854012292282,0.5000789394967384,0.500064217469965,54.75,19.5,35.1
0.04150390499999997,0.510253905,0.431396485,0.5000325749996921,0.5001329647674705,0.49999173970571614,1.05,24.3,22.65,0.6555175799999999,0.48779297000000005,0.9113769549999999,0.4999871432065981,0.500178463232142,0.49999054057725356,51.15,8.55,95.4,0.201171875,0.41430664,0.811523435,0.5001093162542377,0.5000852013890288,0.5000638843738772,54.75,19.5,35.1
0.04199218999999999,0.5129394549999999,0.420410155,0.500048762666705,0.500134297064555,0.49999233922631425,0.45,24.9,22.8,0.6623535150000001,0.47363281,0.9108886700000001,0.5000124571130031,0.5001763315742601,0.49995456811963945,52.8,8.4,93.75,0.20703125,0.404052735,0.8244628900000001,0.500132165406673,0.500091596449941,0.5000615528757959,54.75,17.7,35.4
0.028808595000000024,0.51513672,0.42480469,0.5000263131946683,0.500153748846335,0.49995636676870014,0.45,24.9,22.8,0.67578125,0.471679685,0.911621095,0.500048229730418,0.5001879892391994,0.4999281883406603,52.8,8.4,93.75,0.19946289,0.39916992,0.837890625,0.5001506179001899,0.5001134464013797,0.5001103154552344,55.2,19.95,34.8
0.023681640000000014,0.5061035150000001,0.420410155,0.5000758752221708,0.5001592779621389,0.49996296175707816,0.75,27.15,22.8,0.69189453,0.473876955,0.9445800799999999,0.5000306431820095,0.5002668621516269,0.49989701222236355,53.85,7.35,96.0,0.19677734500000002,0.388916015,0.858398435,0.5001405589568453,0.5001371615861899,0.5000541585266205,54.75,19.2,34.35
0.03393554499999999,0.5100097650000001,0.419433595,0.5000655497670494,0.500137694522477,0.4999908736733413,2.1,26.55,21.9,0.6857910150000001,0.474365235,0.94970703,0.5000603537473334,0.5001969158129251,0.4998475168664386,53.4,7.5,95.4,0.181396485,0.36303711,0.8977050799999999,0.5001749326055982,0.5001597442268485,0.5000372381703876,54.6,19.35,34.95
0.03222656499999999,0.5021972650000001,0.42651367,0.5000415015734179,0.500153149325737,0.49996356127767627,1.05,26.55,21.6,0.686523435,0.48828125,0.9660644549999999,0.5000445658479856,0.5001823269547736,0.4998436531438069,54.3,8.1,94.8,0.177978515,0.34423828,0.923828125,0.5002181661564993,0.5001436233186796,0.5000516271010734,54.6,19.35,34.95
0.03442383000000001,0.49609375,0.43701172,0.5000730107005359,0.500147020689335,0.50002617993878,0.75,23.4,21.75,0.6818847650000001,0.490234375,0.9777832049999999,0.5000456983048708,0.5001658062789395,0.49984398623989473,54.3,8.1,94.8,0.14575195500000002,0.32885742,0.9509277349999999,0.5002690604810862,0.5001311661184099,0.5000011990411961,53.55,19.35,34.95
0.02856445500000001,0.486572265,0.446777345,0.5000476302098198,0.5001215735270416,0.5000388368919825,0.75,23.4,21.75,0.6779785150000001,0.49462890499999995,0.9914550799999999,0.5000393698282696,0.500136295553815,0.49986143953241463,54.6,7.65,94.8,0.14746093999999998,0.34326172,0.966308595,0.5003078307887577,0.5000812710820862,0.49995983081093304,54.75,18.75,34.35
0.03393554499999999,0.48535156,0.45703125,0.500078206720252,0.5001352296812408,0.5000443660077863,0.75,23.4,21.75,0.682128905,0.48852539,1.0043945300000001,0.500034840000729,0.5001302335017241,0.49983072967882763,54.75,8.25,94.65,0.13159179499999998,0.353515625,0.967285155,0.5003414050767131,0.5000701462661675,0.499957232801075,54.75,18.75,34.35
0.029052734999999986,0.49243164,0.46826172000000005,0.5001239050251228,0.500102921106059,0.5000995903197145,1.05,25.5,21.6,0.7009277349999999,0.49365234500000005,1.0234375,0.5000583552580733,0.5000901308969681,0.49982213628845606,54.75,8.25,94.65,0.12792968999999998,0.36303711,0.979492185,0.5003489992660879,0.5000475635382424,0.4999523032058692,55.65,20.55,34.2
0.03247070500000001,0.50439453,0.47241211,0.5001322319909841,0.500087466302799,0.5000976585020319,0.3,24.75,22.95,0.701660155,0.51220703,1.0209960949999999,0.5000738101485998,0.5000414349018405,0.4997909601701594,54.75,7.8,95.1,0.142333985,0.37524414,0.970703125,0.5003705827057497,0.500020117886689,0.49992565700237956,55.65,20.55,34.2
0.030761720000000024,0.5114746099999999,0.47363281,0.5001208407505551,0.5000632181817017,0.5000927289068261,0.3,26.25,21.3,0.7326660150000001,0.5319824200000001,1.0073242199999999,0.5000798055291132,0.49998361258005425,0.49979715547813874,54.6,7.65,94.5,0.16308593999999998,0.38720703,0.9611816400000001,0.5003913001130368,0.5000069946687767,0.4999281883406603,54.75,20.25,33.0
0.01489258000000001,0.5285644549999999,0.466552735,0.5001197082936699,0.5000323751594928,0.5001062518924035,0.3,26.25,21.3,0.732910155,0.5407714849999999,1.0024414050000001,0.5000969257255454,0.49998341273985486,0.49976478023137944,54.9,9.6,94.2,0.17700195500000002,0.392089845,0.9375,0.5004449257033702,0.5000301769172999,0.4999162641639442,55.8,19.2,34.05
0.0,0.548339845,0.46118164,0.5000876661429985,0.4999607634276188,0.5001138460817783,0.6,24.0,21.6,0.7414550799999999,0.5529785150000001,0.9885253900000001,0.5000933285146907,0.5000040635628309,0.49973553601803183,54.9,9.6,94.2,0.1796875,0.397216795,0.92529297,0.5004915566249267,0.500040102604756,0.4999080704539713,55.8,19.5,34.8
-0.0026855449999999906,0.5576171900000001,0.439208985,0.5000450321999618,0.4999007426891068,0.5000808047301101,1.05,24.75,21.6,0.7395019549999999,0.5729980450000001,0.9787597650000001,0.5000676148406205,0.5000128567934019,0.49974632773786276,54.9,6.15,94.8,0.19262695500000002,0.41748047,0.8996582049999999,0.5005482465770943,0.5000053958599154,0.49992185986405896,55.8,21.0,34.35
0.004394529999999975,0.5607910150000001,0.43261719,0.5000445658479856,0.4998652365834688,0.5000695467455695,-0.6,25.8,20.85,0.71484375,0.560546875,0.947753905,0.5000532924942456,0.5000505612284992,0.49973820061220087,54.75,7.5,93.6,0.18896484500000002,0.424072265,0.8781738299999999,0.5005856845004149,0.5000195183660909,0.49991533154725837,55.2,20.7,34.05
-0.010009765000000016,0.58300781,0.419433595,0.5000239150250096,0.49983839053977985,0.5000594877149585,0.45,25.35,19.95,0.701660155,0.552734375,0.9265136700000001,0.5000585550982727,0.5001059187963158,0.4997223461285422,55.5,8.25,95.7,0.20043945500000002,0.439208985,0.8415527349999999,0.5005981416134181,0.5000373713390096,0.4999245911298054,55.2,20.25,33.0
0.0024414049999999746,0.5832519549999999,0.39892578,0.49998381242025364,0.49983206206317865,0.5000049961795168,0.45,25.35,19.95,0.7019042950000001,0.5505371099999999,0.9140625,0.5000567565364785,0.5001687373848853,0.4996950337328771,55.2,7.8,94.35,0.21069336,0.463134765,0.822265625,0.5006022718478265,0.5000315757986954,0.49993291809566665,55.2,20.25,33.0
0.004150390000000016,0.5490722650000001,0.38964844,0.4999837457486762,0.49981447551477026,0.4999870099507097,2.1,24.75,23.25,0.6633300799999999,0.5812988299999999,0.903808595,0.5000118575924052,0.5002073744366684,0.49968470827775585,55.2,8.25,94.35,0.21630859500000002,0.47680664,0.80566406,0.500610332301911,0.49999886754311484,0.49993831395558214,55.65,20.85,34.2
0.007568359999999984,0.5275878900000001,0.40136719,0.5000281784280399,0.49983146245531407,0.4999642273825852,-0.15,25.65,21.75,0.646484375,0.5690917950000001,0.9104003900000001,0.5000224494720368,0.5003875696462936,0.49968364240518165,57.15,5.7,93.75,0.220458985,0.49633789,0.7907714849999999,0.5005777573022188,0.5000217832798612,0.49993618221043373,56.1,20.1,32.4
0.01684570500000001,0.498779295,0.412841795,0.5000328415114689,0.4998478499625263,0.4999508376528963,0.45,25.65,20.4,0.619628905,0.5632324200000001,0.8820800799999999,0.500048762666705,0.5004176133077051,0.49969463396521197,57.15,5.7,93.75,0.21069336,0.5251464849999999,0.791992185,0.5005664325588343,0.500047430282354,0.499952569717646,56.1,21.15,33.15
0.02416991999999999,0.48071289,0.423095705,0.500082203698772,0.4998778935366714,0.4999555674079027,0.45,25.65,20.4,0.60595703,0.56201172,0.895996095,0.500051493845185,0.5005215337020273,0.4997049594203332,57.15,7.35,94.2,0.18237304499999998,0.541503905,0.8015136700000001,0.5005669655823879,0.5000365719782122,0.4999466409214434,55.2,21.0,33.3
0.03344726500000002,0.4765625,0.42944336,0.5001129800494035,0.49991739662082935,0.4999856776536252,0.75,24.9,22.05,0.6125488299999999,0.546875,0.9489746099999999,0.5000229824083238,0.5003907005924387,0.49970289434676224,57.45,8.1,93.75,0.17333984500000002,0.5363769549999999,0.78955078,0.5005529096605233,0.5000678146808197,0.49994504211258206,55.2,22.2,33.3
0.04809570500000001,0.48461914,0.423583985,0.5001426240304163,0.4999678912650175,0.4999756852945917,0.45,25.35,22.8,0.58935547,0.53125,1.01147461,0.5000510275804753,0.5004242748803941,0.49970762401450225,57.75,6.3,93.3,0.14306640499999998,0.533203125,0.80957031,0.500510608726308,0.5000899310567688,0.4999462411537783,54.9,20.55,33.15
0.0390625,0.48486327999999995,0.40307617,0.5001865237734929,0.500034040552665,0.4999856776536252,0.75,24.9,22.8,0.5715332049999999,0.486083985,1.01147461,0.49997688442305427,0.5002370184176812,0.4997312726150015,57.75,6.3,93.3,0.11254883000000002,0.5322265650000001,0.829589845,0.5005047465144165,0.5001077840296874,0.4999622289805918,54.9,20.55,33.15
0.03393554499999999,0.494873045,0.37963867,0.5002308231097018,0.5000646837346746,0.5000135895698883,0.6,23.7,22.95,0.5930175799999999,0.517089845,1.0717773449999999,0.4999822802829697,0.5002744563410016,0.49972307890502865,58.95,6.9,93.15,0.07495116999999998,0.5178222650000001,0.8269042950000001,0.5004842289473287,0.5001273690673557,0.4999497051960111,56.1,20.85,31.05
0.018066404999999976,0.497070315,0.34423828,0.5002135030730703,0.5001146454425758,0.4999806148897975,0.6,23.7,22.95,0.5363769549999999,0.46923827999999995,1.07714844,0.4999916730341387,0.5001432902225919,0.4997138193224816,58.8,6.3,93.6,0.05517577999999997,0.54248047,0.83251953,0.5004848950522378,0.5001500849639027,0.49997368680533166,56.1,20.85,31.05
0.004150390000000016,0.497070315,0.30834961,0.5002176998917897,0.5001261033545822,0.4999852113016491,1.2,24.6,22.05,0.46557617,0.5615234400000001,1.052734375,0.5000905306646333,0.5002237618566141,0.499710621704759,58.8,6.3,93.6,0.015380859999999984,0.5380859400000001,0.83984375,0.5004609135301837,0.5001478867217098,0.5000139892502871,55.35,21.9,31.8
-0.008056640000000016,0.48583984500000005,0.275390625,0.5002550712307992,0.5001166439318357,0.4999822136113923,2.1,24.75,21.9,0.473876955,0.5256347650000001,1.0834960949999999,0.5001405589568453,0.5001630084288821,0.49971008885573837,58.65,6.9,94.2,-0.007324220000000025,0.5480957049999999,0.856933595,0.5004106853105058,0.5002085734778645,0.5000297105653237,56.1,21.15,31.8
-0.021728515000000014,0.48144531,0.24658203,0.5002262932821612,0.5001021883295725,0.4999852113016491,1.5,25.35,21.75,0.546875,0.5622558599999999,1.171875,0.500156346856193,0.5001455551363622,0.4997004295927926,60.15,6.0,94.65,-0.06152344000000005,0.533691405,0.87988281,0.5004214770303367,0.5001997802472935,0.5000030643618342,55.35,21.15,31.8
-0.04785156500000005,0.46533203,0.2265625,0.500229890493016,0.5000870000380894,0.4999807480584194,1.5,25.35,21.75,0.48583984500000005,0.55419922,1.12109375,0.5001742665006891,0.5001263698663589,0.49972587675508606,60.9,6.0,93.3,-0.08081054500000005,0.537597655,0.8576660150000001,0.5004121508634787,0.5001358958734163,0.5000429004548135,55.35,21.6,31.05
-0.068359375,0.458984375,0.212890625,0.5002685275447991,0.5000154548032599,0.5000003996803987,1.35,22.2,21.9,0.47338867,0.5427246099999999,1.154541015,0.500121773367241,0.5000896646322585,0.49974999153302857,60.9,6.0,93.3,-0.06811523499999998,0.5478515650000001,0.86767578,0.5003791760961214,0.5001051861070958,0.5001028545217481,57.0,22.2,30.15
-0.08764648499999998,0.455322265,0.20581054499999998,0.5002771210224372,0.49994737369792985,0.5000143223463748,1.05,23.7,21.6,0.471679685,0.564453125,1.1489257800000001,0.5001261700261596,0.5000394364125805,0.4997424640152312,60.45,6.9,92.7,-0.046142579999999954,0.5759277349999999,0.861328125,0.5003466010964291,0.5000850681331404,0.5000965926294577,57.15,23.85,31.05
-0.0859375,0.443115235,0.21997070500000002,0.5002544050386237,0.49992665620337634,0.5000095926786348,2.4,23.7,21.3,0.486572265,0.591796875,1.11254883,0.5000979249265423,0.500037438010587,0.4997787028973556,61.05,6.9,93.45,-0.01464844000000005,0.5861816400000001,0.8479003900000001,0.5003284816117337,0.5000517603569617,0.5000907970891436,56.4,21.6,31.05
-0.08447265500000004,0.45703125,0.23803711,0.5002753889576875,0.4998443859202934,0.500024647801496,2.25,24.15,22.05,0.5002441400000001,0.5900878900000001,1.088134765,0.5001426240304163,0.5000377044350973,0.49975791881849113,59.55,6.75,92.25,-0.00390625,0.60253906,0.8435058599999999,0.5002998369189842,0.5000146554424625,0.5000899310567688,56.4,21.6,31.05
-0.07128906500000005,0.46923827999999995,0.26611328,0.500258068921056,0.49980301760276385,0.5000439663273876,2.25,24.15,22.05,0.48461914,0.6311035150000001,1.09765625,0.5001923193138071,0.5001091164140383,0.4997512572458021,59.55,6.75,92.25,0.01440429499999999,0.6171875,0.8293457049999999,0.5002628652603733,0.4999617626286156,0.5000694800739921,55.8,22.5,31.2
-0.05883789000000002,0.487304685,0.3046875,0.5002382840431883,0.4997916929466458,0.5000250474818948,0.3,22.5,23.25,0.541015625,0.645996095,1.041748045,0.5001378943626763,0.5000433001352121,0.49978389891707165,60.15,7.05,92.55,0.05712890499999997,0.62597656,0.8059082049999999,0.5002496086993063,0.49992725572397445,0.5000829364752585,55.8,22.5,31.2
-0.05834960999999998,0.479492185,0.334716795,0.5002276921635567,0.49974612789766343,0.5000472971137321,1.8,22.35,21.0,0.5495605450000001,0.6579589849999999,1.0268554699999999,0.5001079839571532,0.5000417014136173,0.49980181856156775,60.45,6.9,93.75,0.094726565,0.6184082049999999,0.78955078,0.5002147687858438,0.49990220824207965,0.5000613529483301,56.25,21.45,30.15
-0.05053710999999998,0.490478515,0.36279297,0.5001910536010336,0.4997183491500222,0.500002664594169,2.25,22.65,22.05,0.5690917950000001,0.66113281,0.99951172,0.5000758085505933,0.500013323145378,0.4998585750107798,61.05,7.35,94.2,0.13378906499999998,0.6325683599999999,0.787109375,0.500153815430646,0.49991832923751506,0.5000359724576141,55.8,24.0,30.15
-0.03271484499999997,0.49291992,0.395507815,0.500145088784386,0.4997537220870382,0.49997854972896005,2.25,22.65,22.05,0.5783691400000001,0.64892578,0.9772949200000001,0.5000600206512457,0.5000233820887224,0.49989428104388356,61.05,7.35,94.2,0.14550781499999998,0.58642578,0.7951660150000001,0.500100789448177,0.4999188621738022,0.5000373047546985,55.2,22.95,29.4
-0.015625,0.49584961,0.430664065,0.5001289012046396,0.499778769568933,0.49996262866099045,1.65,22.2,21.6,0.58984375,0.6369628900000001,0.9533691400000001,0.4999930053312232,0.5000175865484083,0.4999038736352519,60.6,6.3,93.3,0.17333984500000002,0.583984375,0.8034667950000001,0.5000347733291515,0.4999275222357512,0.5000121906884929,56.55,22.95,30.45
0.002197265000000016,0.50073242,0.45263672,0.5000785398163398,0.4998507809812056,0.49995809874618335,2.25,22.35,20.4,0.59765625,0.6145019549999999,0.93847656,0.49996156278841625,0.500033441032067,0.4999476401224402,62.25,6.15,93.15,0.19848633000000002,0.5661621099999999,0.8122558599999999,0.4999831462280781,0.4999658261914466,0.49997348696513233,56.55,22.95,30.45
0.015380859999999984,0.49975586,0.47021484500000005,0.5000237151848103,0.4999609632678182,0.499924457873917,2.1,21.75,21.6,0.60205078,0.5988769549999999,0.920898435,0.4999489724195247,0.5000251807377831,0.4999490390911021,62.25,6.9,94.2,0.204833985,0.5432128900000001,0.8181152349999999,0.5000033307863445,0.4999490390911021,0.4999808813143078,55.35,23.85,28.95
0.027099609999999986,0.501464845,0.478759765,0.5000308430222089,0.5000031975304562,0.4999172633649409,1.65,21.75,23.25,0.5979003900000001,0.5832519549999999,0.9118652349999999,0.49996089659624077,0.5000466309215567,0.49995583383241304,62.25,6.9,94.2,0.20361327999999998,0.53515625,0.81640625,0.4999922059704259,0.4999339838809744,0.4999824801231691,55.35,23.85,28.95
0.03247070500000001,0.505859375,0.47802734500000005,0.5000168537719218,0.5001092495826603,0.4999630283413891,1.65,21.75,23.25,0.60595703,0.572753905,0.912109375,0.49994151148603827,0.5000995903197145,0.49994144490172726,60.6,6.3,93.6,0.20971679499999998,0.5222167950000001,0.8181152349999999,0.4999784831446491,0.4999593644589569,0.499966558967933,55.65,22.35,30.3
0.028808595000000024,0.493896485,0.463134765,0.499997934926429,0.5001997136629825,0.4999473070263524,1.65,21.75,23.25,0.6003417950000001,0.5671386700000001,0.9226074200000001,0.4999273223955519,0.5001172434524338,0.4999539020147305,59.7,7.65,93.75,0.20214843999999998,0.49926758,0.827148435,0.4999840788447639,0.5000186523337161,0.49996742500030783,56.1,22.65,30.3
0.009521484999999984,0.48388672000000005,0.45288086,0.5000155880591484,0.5002282250998438,0.49995663319321043,1.5,22.65,23.55,0.61035156,0.55859375,0.9274902349999999,0.4999477733783286,0.5001502848041021,0.4999421110066363,59.7,7.65,93.75,0.19091797000000002,0.49267577999999995,0.8415527349999999,0.4999681577767943,0.5000392365723811,0.49996515999927105,57.0,22.2,29.85
0.008056640000000016,0.483154295,0.43676758,0.4999952036606826,0.5002711922262346,0.4999251906504035,2.1,21.75,22.35,0.6184082049999999,0.5480957049999999,0.9519042950000001,0.4999419778380144,0.5001785964880304,0.4999205275669744,61.65,4.8,93.6,0.17578125,0.506835935,0.841308595,0.4999742197416188,0.5000850681331404,0.4999350497535486,54.75,23.25,29.85
0.0034179700000000254,0.478759765,0.41748047,0.5000158544836586,0.5002931753462951,0.49993851379578147,1.5,21.6,22.05,0.6184082049999999,0.5485839849999999,0.9846191400000001,0.499966558967933,0.5001929188344052,0.4999025413381674,61.65,6.3,91.8,0.161865235,0.48901367,0.8508300799999999,0.5000270459711548,0.5000625520767927,0.4999411783899505,55.2,22.2,29.85
0.01831054499999999,0.477783205,0.40551758,0.4999980681823174,0.5003046332583015,0.49993764776340666,1.5,21.6,22.05,0.608398435,0.5373535150000001,0.99951172,0.5000033307863445,0.5001679379368213,0.4999319854789809,61.35,6.3,92.55,0.14013672000000002,0.490966795,0.866210935,0.5000781401359411,0.5000891982802823,0.49994684076164275,54.9,20.55,30.3
0.025390625,0.49194336,0.389160155,0.5000213170151515,0.5002876462304913,0.49994737369792985,2.4,22.2,20.85,0.591308595,0.5380859400000001,1.001708985,0.4999883422477942,0.5001940512912904,0.49988475494955975,61.35,6.3,92.55,0.11254883000000002,0.50732422,0.86425781,0.5001393599156492,0.500095660012772,0.49995157042938276,54.9,20.55,30.3
