IMU1_AccX,IMU1_AccY,IMU1_AccZ,IMU1_GyrX,IMU1_GyrY,IMU1_GyrZ,IMU1_MagX,IMU1_MagY,IMU1_MagZ,IMU2_AccX,IMU2_AccY,IMU2_AccZ,IMU2_GyrX,IMU2_GyrY,IMU2_GyrZ,IMU2_MagX,IMU2_MagY,IMU2_MagZ,IMU3_AccX,IMU3_AccY,IMU3_AccZ,IMU3_GyrX,IMU3_GyrY,IMU3_GyrZ,IMU3_MagX,IMU3_MagY,IMU3_MagZ
0.05126952999999997,0.5192871099999999,0.357177735,0.4999977350862297,0.5000129234649794,0.499948506154815,-3.3,27.15,18.3,0.623535155,0.548828125,0.9841308599999999,0.49983359420046247,0.4999498384518995,0.5001811944978884,59.7,9.15,94.2,0.10888672000000002,0.40551758,0.860839845,0.49981933843839865,0.4999529693980447,0.499924524458228,57.9,19.05,26.4
0.06201172000000003,0.5166015650000001,0.37548828,0.5000111248159187,0.4999950704047942,0.49991233385700157,-1.8,26.4,18.3,0.6071777349999999,0.53076172,0.985839845,0.4998731638689314,0.4998964127017655,0.5001344303204435,59.25,9.6,94.5,0.11059570500000002,0.38574219,0.86816406,0.4998466508340637,0.4999795490172233,0.49988382233287393,57.9,18.3,28.65
0.06274414000000002,0.5373535150000001,0.405029295,0.5000370382429218,0.5000187190052935,0.49992585684257895,-1.8,26.4,18.3,0.6071777349999999,0.5153808599999999,0.9851074200000001,0.4999040068911403,0.49990247475385646,0.5000991240550048,60.0,9.9,92.7,0.11181640499999998,0.37573242,0.860839845,0.4998826232916778,0.4999466409214434,0.4999106684638293,57.9,18.3,28.65
0.07983398499999998,0.5495605450000001,0.395751955,0.5000252473220941,0.5001012557128868,0.4998938812762184,-3.15,27.0,19.5,0.6149902349999999,0.51904297,0.9885253900000001,0.49984878249194564,0.4998870199505965,0.5000898644724577,59.1,8.55,94.35,0.12866211,0.354248045,0.84472656,0.4998780933768707,0.4998969456380526,0.4999085367186809,58.35,18.75,27.0
0.07324219,0.5302734400000001,0.39794922,0.5000325084153812,0.5001027212658596,0.49989654595765387,-1.8,27.45,19.65,0.627441405,0.50439453,1.00024414,0.4998279318287703,0.4999186623336029,0.5000865336861133,59.1,8.55,94.35,0.14746093999999998,0.34814453,0.8430175799999999,0.49986203905301274,0.4998935482673971,0.4999277886602615,58.35,18.75,27.0
0.04565429499999999,0.5244140650000001,0.400146485,0.5000053958599154,0.5001216401113525,0.4998888851839681,-3.15,27.3,16.35,0.65625,0.48193359500000005,1.00756836,0.4997897611289633,0.49996902372190266,0.5000639509581881,59.55,10.05,95.1,0.14428711,0.322021485,0.876464845,0.4998994770635997,0.4998877526398165,0.4999068713255087,56.55,18.45,28.35
0.01879883000000001,0.5166015650000001,0.36352539,0.5000043299873413,0.5001280352595312,0.4998907504173397,-3.15,27.0,18.75,0.6657714849999999,0.45288086,1.0200195300000001,0.49982626643559797,0.49996642571204464,0.5000257802583812,58.65,9.6,94.8,0.13574218999999998,0.31176758,0.892578125,0.4999982680225168,0.4999355161055248,0.49990946933536673,56.25,17.7,29.1
0.0031738300000000094,0.5056152349999999,0.33154297,0.500048229730418,0.500051493845185,0.4998868200231307,-3.15,27.0,18.75,0.66503906,0.434814455,0.9973144549999999,0.4998190720138883,0.499975285614193,0.49997308728473366,58.65,9.6,94.8,0.14208984500000002,0.31933594,0.875,0.5001024548413494,0.49989341501150875,0.4998885520878804,57.6,17.7,29.1
-0.019775390000000014,0.48681640499999995,0.31225586,0.5000456317205598,0.49999067383314194,0.4999073376774848,-2.55,25.35,17.55,0.6560058599999999,0.41870117,0.95361328,0.4998414548143476,0.4999769510073652,0.499941844582126,58.8,7.05,92.85,0.15869140499999998,0.33276367,0.8493652349999999,0.5001879892391994,0.49988055821810684,0.4999265896190654,57.0,17.7,29.1
-0.017089844999999968,0.467529295,0.33154297,0.5000382373713844,0.4999857442379362,0.499863637861874,-3.45,27.0,18.45,0.6423339849999999,0.43310547,0.9362792950000001,0.49986370444618494,0.5000223162161483,0.4999250573945151,59.55,8.25,94.65,0.16650390499999998,0.37084961,0.827148435,0.5002382840431883,0.499877027591563,0.49990880323045767,57.0,17.7,29.4
0.0068359399999999935,0.45678711,0.34448242,0.5000909303450319,0.49991266695308934,0.49989667921354225,-4.05,26.4,19.35,0.6315917950000001,0.44091797,0.95703125,0.4999139325785964,0.5001018553207512,0.49987609497487717,59.25,8.1,95.55,0.16162109500000002,0.399902345,0.8332519549999999,0.5002588016975423,0.4999054724441132,0.4999670919042201,57.15,20.1,30.0
0.019287109999999986,0.47509765499999995,0.3359375,0.5001074510208661,0.4999186623336029,0.4999397128369776,-4.05,26.4,19.35,0.6389160150000001,0.46972656,0.9738769549999999,0.49995303598235563,0.500109582678748,0.49984398623989473,59.25,8.1,95.55,0.15698241999999998,0.42504883,0.8215332049999999,0.5002901776560384,0.49993071976620734,0.4999878759830846,58.5,18.6,30.75
0.03735351500000002,0.479248045,0.329833985,0.5000864004302249,0.49988715311921844,0.49989115009773843,-2.55,26.7,18.3,0.60205078,0.491210935,0.9729003900000001,0.49996036374722014,0.5001311661184099,0.49982993031803025,59.55,7.5,94.65,0.157958985,0.453125,0.814941405,0.5002842488598358,0.49996835761699365,0.49997868298484843,58.5,18.6,30.75
0.021484375,0.490966795,0.333740235,0.5001245046329873,0.49988695327901905,0.4998998767439984,-2.4,27.0,19.5,0.60498047,0.5212402349999999,0.990722655,0.49997055585918654,0.5001119142640957,0.4998240681061386,58.05,7.8,93.3,0.13818359500000002,0.46582031,0.8151855450000001,0.5002269593870702,0.4999907404174529,0.49998081472999684,58.5,17.85,30.0
0.018554689999999995,0.48510742,0.341064455,0.5001111814876094,0.4998712320512488,0.4998842220132726,-1.65,26.25,17.1,0.59765625,0.5349121099999999,1.02270508,0.49994504211258206,0.5000830030595694,0.4998257334993109,58.05,7.8,93.3,0.11645508000000002,0.493408205,0.8171386700000001,0.50019178637752,0.4999815475064833,0.5000077940295742,58.5,17.85,30.0
0.015625,0.46411133,0.342529295,0.500074143157421,0.4998848216211372,0.49988115773870495,-4.35,23.85,19.35,0.592773435,0.5490722650000001,1.02734375,0.4999680911052169,0.5000858674939378,0.49984651757817533,61.05,7.65,95.25,0.095703125,0.48120117,0.81738281,0.5001439563275007,0.500003464042233,0.49997668449558846,56.7,17.55,28.95
0.025878904999999976,0.4453125,0.341552735,0.5001064517326028,0.49988355590836364,0.4999124004413125,-4.35,23.85,19.35,0.599609375,0.568847655,1.03881836,0.5000117910080942,0.5000167871003445,0.4998220697041451,60.45,8.4,94.5,0.08154297000000002,0.484375,0.82128906,0.5001247044731867,0.4999716884033381,0.4999852779732265,56.55,18.45,28.8
0.02026366999999999,0.44213867,0.33520508,0.5001121141042951,0.4998916830340255,0.4999352495937479,-2.25,26.1,19.35,0.57519531,0.5456542950000001,1.0424804699999999,0.4999990673833142,0.5000022649137703,0.4998500482047192,60.6,7.05,94.05,0.08569335999999998,0.475341795,0.8156738299999999,0.5000967258853461,0.49999213938611486,0.49996915697779104,57.6,17.4,28.8
0.009765625,0.43847656,0.31665039,0.5001071845090893,0.4999170635247415,0.4999297871495215,-2.4,26.1,19.65,0.569335935,0.5471191400000001,1.01245117,0.4999900076409665,0.5000023315853478,0.4998766279111643,60.6,7.05,94.05,0.078125,0.47119140499999995,0.826660155,0.5001039869786332,0.5000337741281548,0.49996675880813235,57.45,17.85,28.95
0.003662109999999984,0.443603515,0.314208985,0.5001384938832744,0.4999203277267751,0.49993385071235247,-2.4,25.5,19.5,0.564453125,0.54248047,0.9958496099999999,0.49998994105665556,0.49996489357476076,0.49991959495028865,59.1,8.55,94.05,0.07861327999999998,0.467529295,0.8176269549999999,0.5000995237354036,0.5000077940295742,0.49997841656033815,57.45,17.85,28.95
-0.0014648450000000254,0.451660155,0.31201172,0.5001341638959331,0.4999092694951674,0.4999509043244737,-3.3,26.1,19.65,0.55810547,0.529296875,1.00097656,0.49998101457019617,0.500033507616378,0.4999092694951674,60.45,7.65,94.2,0.086914065,0.458496095,0.82421875,0.5000972588216333,0.500033507616378,0.49999600302148,56.4,17.55,29.7
-0.007568359999999984,0.46801758,0.32348633,0.500111581168008,0.49994004593306535,0.49995443495101755,-3.3,26.1,19.65,0.5539550799999999,0.5363769549999999,1.0043945300000001,0.4999944042998852,0.5000215834396619,0.49991006894323126,60.0,7.65,94.5,0.08715820500000002,0.454589845,0.84423828,0.500080271793823,0.5000202511425773,0.4999770175916762,56.4,17.55,29.7
0.015869140000000014,0.469970705,0.337646485,0.5000990573834274,0.49993331777606537,0.4999805482182201,-2.25,24.15,17.85,0.580078125,0.5285644549999999,1.017333985,0.500022715896547,0.49997668449558846,0.49989581318116744,58.35,6.3,93.6,0.09228515499999998,0.45654297,0.8391113299999999,0.5000812710820862,0.5000169869405438,0.49996023049133176,57.45,18.6,30.3
0.03515625,0.48071289,0.34716797,0.5000756753819714,0.49993791427518347,0.4999806148897975,-3.15,26.25,19.8,0.5900878900000001,0.5422363299999999,1.009521485,0.5000219831200605,0.5000176531327193,0.4999212603434609,61.35,7.05,94.35,0.09838866999999998,0.454589845,0.8415527349999999,0.5001221064633287,0.5000123905286922,0.49996276182961236,58.35,17.7,29.1
0.03344726500000002,0.467773435,0.348632815,0.5000283115966618,0.4999989341274258,0.499948506154815,-0.75,23.85,18.9,0.5822753900000001,0.5422363299999999,1.005615235,0.4999889417683923,0.4999970023097432,0.49992319216114345,61.5,8.1,94.8,0.10302734500000002,0.45336914,0.834960935,0.5001566133679698,0.49998014853782136,0.49999913396762513,56.1,19.05,29.7
0.02661133000000001,0.466064455,0.345947265,0.5000099923590335,0.4999891416958581,0.5000111914002296,-1.5,26.1,18.3,0.58691406,0.5344238299999999,0.997558595,0.49998827566348325,0.4999755520387033,0.4999191285983125,61.5,8.1,94.8,0.11230469,0.463623045,0.8317871099999999,0.5001375612665886,0.49994337671940986,0.49996715848853107,57.0,17.7,30.15
0.024414064999999995,0.45654297,0.341308595,0.500010791719831,0.4999922059704259,0.4999778170397401,-1.5,26.1,18.3,0.59814453,0.54296875,0.991210935,0.5000115244963174,0.5000032642020336,0.49990986910303187,60.9,7.05,94.35,0.12182616999999998,0.46484375,0.837402345,0.5001408920529331,0.49992858802105894,0.49994390965569696,57.0,18.0,29.4
0.006591794999999991,0.45336914,0.33203125,0.49996915697779104,0.5000043966589187,0.49997628481518974,-0.6,24.75,19.5,0.606933595,0.5402832049999999,0.99658203,0.5000051294354051,0.5000309762780973,0.4999223262160351,61.35,7.5,95.1,0.12573241999999998,0.46948242,0.833496095,0.5001301003331021,0.49997601839067946,0.49994457576060597,58.95,17.55,30.3
0.006103515000000016,0.455078125,0.33154297,0.49996515999927105,0.49999140660962843,0.499975951719102,-1.2,23.85,18.6,0.59863281,0.5397949200000001,1.0043945300000001,0.4999794823456459,0.5000357059458373,0.4999211270875725,60.15,7.05,94.05,0.12231445500000002,0.47729492,0.828125,0.5001181094848086,0.4999883422477942,0.49995743264127435,58.95,17.55,30.3
0.01245116999999999,0.45288086,0.334472655,0.5000027978500574,0.4999690903934801,0.49999813476662835,-0.6,24.3,20.25,0.6027832049999999,0.537597655,0.997558595,0.49998694336639876,0.5000959931088598,0.49991932843851183,60.15,7.5,93.6,0.11157226500000002,0.48510742,0.8254394549999999,0.5001421577657067,0.4999956700126587,0.49995756580989625,56.55,18.0,29.1
0.016113279999999976,0.458984375,0.33984375,0.4999588315226698,0.49996595944733496,0.5000205176543542,-0.6,24.3,20.25,0.5832519549999999,0.52783203,0.99267578,0.49998601074971294,0.5000579555776746,0.49994577488906855,61.65,7.8,93.6,0.118164065,0.48852539,0.826171875,0.5001267695467576,0.49996835761699365,0.4999891416958581,56.55,18.0,29.1
0.022949220000000024,0.46508789,0.34033203,0.49999780167054064,0.49997082237096335,0.5000361722978134,-1.35,24.75,17.7,0.596679685,0.525878905,1.006103515,0.500002598009858,0.5000536921746443,0.4999508376528963,60.0,4.95,96.0,0.11694335999999998,0.47729492,0.830566405,0.5001338307998454,0.49997388664553105,0.5000048629236283,59.1,18.0,29.1
0.02416991999999999,0.47290039,0.33959961,0.4999998667441116,0.49993171896720406,0.5000244479612966,-3.0,24.15,18.9,0.600585935,0.5212402349999999,0.994628905,0.5000137228257767,0.5000910635136538,0.4999265896190654,60.0,4.95,96.0,0.11206054499999998,0.48510742,0.825683595,0.5001672052476014,0.4999871432065981,0.5000417014136173,56.7,17.85,30.0
0.020996095000000024,0.47216797000000005,0.34057617,0.49998234686728066,0.49997401990141943,0.5000167205160335,-2.1,25.05,19.2,0.5749511700000001,0.5129394549999999,0.9729003900000001,0.5000205176543542,0.500064883574874,0.49992858802105894,60.6,4.95,96.0,0.126708985,0.478515625,0.8298339849999999,0.5001544150385104,0.49999766841465226,0.5000241814495199,56.7,17.85,30.0
0.03515625,0.48291015499999995,0.353027345,0.4999820803555039,0.4999894081203684,0.5000125236973141,-1.65,24.0,19.2,0.5847167950000001,0.50854492,0.97705078,0.500035439521327,0.5000492955157256,0.4999253904906028,60.6,7.05,94.35,0.12451172000000002,0.463623045,0.8356933599999999,0.5001832595714594,0.5000288445329489,0.500057489312965,58.05,18.0,30.45
0.03808593999999999,0.49169922000000005,0.36376953,0.49999813476662835,0.4999720880837369,0.5000229157367464,-1.65,24.0,19.2,0.59033203,0.5148925799999999,0.9904785150000001,0.5000185191650941,0.5000474969539315,0.4999408452938628,60.15,7.05,93.3,0.12060547000000002,0.46411133,0.8479003900000001,0.5001640076298788,0.5000436998156108,0.5000597542267353,57.0,16.95,29.85
0.03540039000000002,0.48144531,0.373535155,0.4999608300119298,0.5000402358606444,0.49998381242025364,-2.4,25.05,19.2,0.5974121099999999,0.517578125,0.981933595,0.5000450321999618,0.5000488292510159,0.4999288545328357,59.85,7.8,95.4,0.12597656499999998,0.44873047,0.8400878900000001,0.5002014456404658,0.5000338407124657,0.500069413489681,57.6,18.75,29.1
0.03417968999999999,0.486572265,0.372802735,0.49998034837802074,0.5000591547061373,0.4999928054910239,-2.25,25.65,17.55,0.6018066400000001,0.529296875,0.98535156,0.5000494954431914,0.5000241814495199,0.49989887745573514,59.85,7.8,95.4,0.12768554499999998,0.46972656,0.837890625,0.5002129701367831,0.5000244479612966,0.5000277120760638,57.3,18.0,30.15
0.03344726500000002,0.48291015499999995,0.376953125,0.5000119241767161,0.5000417679979283,0.4999885420879936,-0.3,24.0,17.7,0.60253906,0.5280761700000001,0.9841308599999999,0.5000634181091675,0.5000286446927495,0.49988475494955975,59.7,6.9,95.25,0.13940429499999998,0.44970703,0.83984375,0.5002082403817768,0.5000015321372838,0.5000187190052935,57.3,18.0,30.15
0.03369140499999997,0.48120117,0.37939453,0.4999907404174529,0.5000986577030287,0.499932518415268,-0.3,24.0,17.7,0.5925292950000001,0.5402832049999999,0.984375,0.5000442327518979,0.5000101256149219,0.4998867534388197,61.35,7.8,94.35,0.13256836,0.454345705,0.8371582049999999,0.5001815941782871,0.5000021983294594,0.5000157878993476,57.15,17.55,29.25
0.03173827999999997,0.483154295,0.372802735,0.5000058622118916,0.5001045864992313,0.499950571228386,-3.0,24.6,18.3,0.5930175799999999,0.54638672,1.00073242,0.5000598874826238,0.5000085268060606,0.4998877526398165,61.35,7.8,94.35,0.11840820500000002,0.46166992,0.8337402349999999,0.5001657396946285,0.499984611781051,0.5000169869405438,57.0,18.45,30.9
0.03393554499999999,0.486328125,0.369140625,0.5000420344224386,0.5001152450504402,0.49995863168247046,-2.55,24.9,19.35,0.6096191400000001,0.5476074200000001,1.016845705,0.5000468974333334,0.5000623522365933,0.4998694334021882,60.45,5.7,93.75,0.12133789000000002,0.46484375,0.8386230450000001,0.5001516171884531,0.49998734304679743,0.5000031975304562,56.7,18.3,30.0
0.017822265000000014,0.484375,0.35229492,0.5000169203562328,0.5001514172609872,0.49993378404077504,-1.5,25.35,18.3,0.59375,0.5544433599999999,1.01098633,0.5000391034037592,0.5000446991038741,0.4999116676648261,60.6,6.3,93.3,0.12377929499999998,0.47729492,0.8464355450000001,0.500120307814268,0.49996322818158856,0.499986610270311,57.15,19.05,30.0
-0.0017089849999999843,0.47753906,0.318359375,0.4999980681823174,0.5001300336615248,0.4999476401224402,-2.4,24.3,18.45,0.59814453,0.5544433599999999,1.015625,0.499997401990142,0.5000372381703876,0.49992952063774476,62.25,6.9,93.15,0.11645508000000002,0.48022461,0.849121095,0.5001057856276939,0.49996682539244336,0.4999767511671659,58.2,17.1,30.0
-0.013427734999999984,0.47314452999999995,0.30371094,0.5000227825681245,0.5000490290912153,0.49995410185492983,-2.4,24.3,18.45,0.600097655,0.5617675799999999,1.02416992,0.5000054624442265,0.5000151217071722,0.4999093361667448,62.25,6.9,93.15,0.119140625,0.474365235,0.8581542950000001,0.5000991240550048,0.49996975649838915,0.4999835459084768,57.0,19.95,30.15
-0.015869140000000014,0.47973633,0.302001955,0.5000053958599154,0.4999861439183349,0.4999561669285008,-3.0,23.85,18.3,0.599609375,0.5485839849999999,1.009765625,0.5000097258472568,0.49999447088419613,0.49992039431108604,60.45,8.1,93.75,0.11303710999999998,0.47631836,0.870117185,0.5001133131454912,0.4999631615972775,0.499971222051362,57.0,19.95,30.15
-0.007324220000000025,0.48461914,0.30883789,0.5000159211552361,0.49997874965642586,0.49994337671940986,-1.35,25.8,17.7,0.5725097650000001,0.524902345,0.9924316400000001,0.5000071945089761,0.5000678813523972,0.49991339972957577,60.6,7.05,95.1,0.115234375,0.46508789,0.865722655,0.5001414915735312,0.4999723545082472,0.5000156546434593,57.0,18.75,29.1
0.0048828149999999935,0.47607422000000005,0.31542969,0.5000322419908709,0.4999251240660925,0.49996109643644016,-2.1,24.0,17.7,0.5842285150000001,0.5173339849999999,0.9934082049999999,0.5000032642020336,0.5000364387223237,0.4999175298767177,60.6,7.5,91.8,0.114257815,0.47705077999999995,0.85205078,0.5001895214637497,0.49998188051530457,0.4999856110693143,57.0,18.75,29.1
0.01245116999999999,0.478515625,0.32495117,0.5000106584639425,0.49989687905374164,0.4999788162407368,-2.1,24.0,17.7,0.59375,0.517089845,1.005859375,0.500038703636094,0.5000535589187559,0.4998822236112791,60.75,6.15,94.5,0.11645508000000002,0.477783205,0.8420410150000001,0.5002101057024148,0.49999160644982776,0.5000045298275406,57.45,18.3,27.15
0.029052734999999986,0.48364258,0.353515625,0.5000163208356349,0.4998956133409681,0.4999403124448421,-2.55,24.9,18.9,0.584960935,0.5227050799999999,0.9934082049999999,0.5000556906639043,0.500055557408016,0.4998485827390128,61.8,7.35,93.45,0.11791991999999998,0.47753906,0.84472656,0.5001962496207497,0.49999267232240197,0.5000321753192934,58.8,17.7,29.4
0.05029297000000003,0.47338867,0.36621094,0.5000351064252392,0.49989927722340033,0.5000075276050638,-1.65,24.75,17.4,0.57910156,0.51171875,0.981933595,0.5000724111799378,0.499993271843,0.49986530325504624,61.95,5.25,94.05,0.12329101500000002,0.47705077999999995,0.8439941400000001,0.5002174999643237,0.49999020748116585,0.500042634030303,57.9,17.85,30.0
0.05395508000000001,0.47607422000000005,0.36694336,0.5000176531327193,0.49993977950855506,0.4999806148897975,-0.3,24.3,18.75,0.604003905,0.5168457049999999,0.963378905,0.5000826033791707,0.5001011891285758,0.49985850842646884,61.95,5.25,94.05,0.13183593999999998,0.4765625,0.8347167950000001,0.5002683277045997,0.5000193185258915,0.5000566232805902,57.3,18.45,30.15
0.048828125,0.466064455,0.35083008,0.500018585749405,0.49992592342688996,0.49999886754311484,-1.35,23.7,19.8,0.55859375,0.49755859500000005,0.978515625,0.5000674150004211,0.5000960596931707,0.49988815240748163,61.05,5.7,94.2,0.13183593999999998,0.47021484500000005,0.84472656,0.5002882457510894,0.500006661572689,0.5000576224815869,57.6,18.0,29.1
0.022460939999999995,0.463623045,0.33886719,0.5000324418310702,0.49993831395558214,0.5000257802583812,-1.35,23.7,19.8,0.5925292950000001,0.513671875,1.00463867,0.5000832694840798,0.500082869803681,0.49986670213644174,61.65,6.75,93.3,0.13720702999999998,0.471679685,0.84472656,0.5003349433442235,0.5000003996803987,0.5000547580472186,57.0,18.75,29.85
0.013427734999999984,0.470703125,0.345458985,0.5000355727772153,0.49994470901649435,0.4999668920640208,-0.45,26.1,19.8,0.5827636700000001,0.5168457049999999,0.9948730450000001,0.5000883323351739,0.5000739433172217,0.4998357258583444,62.25,6.6,93.45,0.130859375,0.47753906,0.82128906,0.5003221531351325,0.49994444259198406,0.5000559570884147,57.0,18.75,29.85
0.023681640000000014,0.46582031,0.354003905,0.5000425007744147,0.4999545015353285,0.4999862105899123,-0.45,26.1,19.65,0.5744628900000001,0.5283203150000001,0.983398435,0.5001101821993461,0.5000197848778677,0.4998218031923683,60.75,5.4,93.15,0.14404297000000002,0.486328125,0.8190917950000001,0.5003024349288422,0.49994364314392015,0.5000494287716141,55.5,19.5,27.3
0.03149414000000002,0.47021484500000005,0.37084961,0.5000557572482153,0.49994604131357884,0.499993405011622,-1.8,23.1,18.9,0.58300781,0.53955078,0.9777832049999999,0.5001342304802441,0.5000102587835439,0.4998337940406618,62.55,6.9,92.7,0.14184570500000002,0.49511719,0.834472655,0.5002813177538901,0.4999849448771388,0.5000510275804753,57.9,19.35,28.2
0.04980468999999999,0.47314452999999995,0.385253905,0.5000370382429218,0.4999857442379362,0.4999677580091291,-1.35,24.3,16.65,0.5749511700000001,0.5559082049999999,0.990234375,0.500136362138126,0.49998168067510523,0.49980728100579414,61.5,6.6,93.45,0.13671875,0.506835935,0.83203125,0.5002774540312585,0.4999682909454162,0.5000174532925199,57.9,19.35,28.2
0.05053710999999998,0.47363281,0.381591795,0.5000183859092058,0.5000199180464896,0.4999508376528963,-1.35,24.3,16.65,0.5695800799999999,0.57519531,0.9963378900000001,0.500127568907555,0.49999606969305743,0.49983079635040506,61.5,6.6,93.45,0.13037109500000002,0.5158691400000001,0.834960935,0.500274056660603,0.499939846092866,0.500022715896547,57.9,19.35,28.95
0.03979491999999999,0.45703125,0.36401367,0.5000490290912153,0.5000053292756045,0.4999701561787878,-2.25,24.6,19.65,0.56982422,0.59423828,0.9997558599999999,0.5001181760691196,0.4999918062900271,0.49980688132539547,60.9,8.25,94.35,0.13256836,0.5041503900000001,0.826171875,0.5002629985162618,0.49993071976620734,0.4999963361175678,58.95,19.8,28.65
0.013183595000000025,0.47973633,0.344726565,0.5000181860690064,0.5000331746075567,0.499964627062984,-1.35,24.75,18.75,0.5876464849999999,0.587402345,1.02368164,0.5001119142640957,0.49996729174441945,0.4998245344581148,61.65,6.3,93.3,0.13793945500000002,0.5361328150000001,0.8430175799999999,0.5002548047190224,0.49993245174369055,0.4999856110693143,55.65,19.8,29.25
-0.01171875,0.47314452999999995,0.337402345,0.5000069946687767,0.5000321753192934,0.49998720979090905,-1.8,24.9,16.8,0.5891113299999999,0.614746095,0.99951172,0.5001195084534706,0.4999984678627162,0.4998337940406618,61.5,7.65,91.65,0.12548827999999998,0.52783203,0.842285155,0.5002444126795902,0.4999648269904498,0.49998994105665556,57.15,20.85,28.2
-0.013916015000000016,0.46801758,0.33666992,0.5000154548032599,0.500000599520598,0.49998814240759487,-1.8,22.65,18.3,0.6015625,0.6071777349999999,1.0131835949999999,0.5001073177649777,0.4999977350862297,0.4998355926897225,61.5,7.65,91.65,0.11596679499999998,0.5227050799999999,0.8454589849999999,0.5002321554067863,0.4999756852945917,0.4999848782928278,57.15,20.85,28.2
-0.020019530000000032,0.46459961,0.344970705,0.49997994869762197,0.4999692902336795,0.49999007431254394,-1.8,22.65,18.3,0.6071777349999999,0.5969238299999999,1.002685545,0.5000732772123127,0.5000089264864593,0.49988908502416746,61.35,6.3,92.85,0.11962890499999998,0.5263671900000001,0.8459472650000001,0.5002129701367831,0.5000232488328341,0.4999885420879936,58.2,18.6,29.25
-0.018310545000000046,0.46142578,0.345458985,0.4999474402822408,0.4999622289805918,0.4999802817937098,-2.25,24.9,18.6,0.5988769549999999,0.5939941400000001,1.00708008,0.5000590214502488,0.4999941377881084,0.49989461405270486,61.95,7.8,92.25,0.11840820500000002,0.5322265650000001,0.854003905,0.500175732053662,0.5000210505033748,0.49996742500030783,58.2,18.6,29.25
-0.011962890000000016,0.459960935,0.348632815,0.49998361258005425,0.4999189954296906,0.499997335405831,-2.25,23.85,19.65,0.60205078,0.5759277349999999,1.00463867,0.5000323085751819,0.5000131898894896,0.49990380705094095,61.95,7.8,92.25,0.12475585999999998,0.5390625,0.8376464849999999,0.500136228969504,0.49999913396762513,0.49997961560153426,57.45,21.15,27.45
0.0034179700000000254,0.45776367,0.36352539,0.4999654930953588,0.4999288545328357,0.4999802817937098,-1.8,24.9,18.6,0.5930175799999999,0.5915527349999999,1.00073242,0.5000383706272727,0.5000106584639425,0.4999052726039139,61.65,7.05,92.25,0.12182616999999998,0.5612792950000001,0.8425292950000001,0.5001359624577273,0.5000213835994626,0.49997095562685173,55.8,18.45,28.8
0.021728515000000014,0.47265625,0.361328125,0.49995969755504466,0.49993791427518347,0.49995809874618335,-1.8,24.9,18.6,0.5703125,0.58935547,1.0190429699999999,0.5000295107251244,0.4999880758232839,0.4999413116458389,61.35,6.75,92.25,0.12426758000000002,0.5583496099999999,0.85986328,0.5001451554559634,0.5000163208356349,0.49997062253076396,57.3,19.95,29.85
0.029785154999999976,0.47705077999999995,0.361572265,0.4999756852945917,0.49995216994998076,0.49997775036816267,-0.15,24.15,19.35,0.57861328,0.584960935,0.99267578,0.5000209839190638,0.5000063284766012,0.4999236585131196,62.4,6.3,93.3,0.10986327999999998,0.568847655,0.8483886700000001,0.5001538821022233,0.500040102604756,0.5000005329362871,58.35,19.5,29.85
0.04150390499999997,0.49682617,0.35449219,0.49995756580989625,0.4999654930953588,0.49994630782535565,-1.05,24.3,19.2,0.5681152349999999,0.5637207049999999,1.00854492,0.5000059287962025,0.5000388368919825,0.49991806281300477,62.4,6.3,93.3,0.10815429499999998,0.5556640650000001,0.83642578,0.5001493521874163,0.5000093928384355,0.4999637611178756,58.35,19.5,29.85
0.0048828149999999935,0.49145508,0.33544922,0.4999251906504035,0.5000040635628309,0.49996349460609885,-2.55,23.4,18.6,0.5988769549999999,0.5881347650000001,1.0180664050000001,0.5000446324322966,0.500034840000729,0.4999060053804003,62.4,6.3,93.3,0.106445315,0.5480957049999999,0.8515625,0.5001396929244705,0.49999813476662835,0.49996635912773363,56.55,20.7,29.1
-0.010253904999999975,0.475585935,0.31542969,0.4999303866701196,0.4999723545082472,0.49995623351281177,-1.5,23.85,18.3,0.57861328,0.5651855450000001,1.01245117,0.5000263797789792,0.5000054624442265,0.49996922356210205,61.95,7.5,93.6,0.12744140499999998,0.557128905,0.8581542950000001,0.50010225500115,0.5000195183660909,0.4999620290531259,56.55,20.7,29.1
0.011962890000000016,0.48095702999999995,0.32421875,0.4998952136605694,0.4999363154663221,0.49994977178032207,-1.5,23.85,18.3,0.57080078,0.56689453,1.016845705,0.5000271791397767,0.4999876761428852,0.4999302534142312,62.85,7.35,93.15,0.11206054499999998,0.5537109400000001,0.8415527349999999,0.5001576125689666,0.49999420445968584,0.49997788362405104,58.8,20.7,29.4
0.03295898499999998,0.47753906,0.350097655,0.49989727873414036,0.4999648269904498,0.49992592342688996,-1.2,22.65,18.6,0.5690917950000001,0.55419922,0.9943847650000001,0.5000281117564624,0.49999780167054064,0.4999780168799394,60.75,6.9,92.7,0.12036133000000002,0.54638672,0.8366699200000001,0.5001567465365917,0.5000156546434593,0.4999737534769091,57.9,19.05,28.65
0.04858398499999998,0.463867185,0.353271485,0.49990980243145444,0.4999739533171085,0.4999647603188724,-2.4,24.75,18.75,0.56201172,0.5461425799999999,0.98925781,0.5000055291158039,0.4999883422477942,0.4999513705891834,61.8,6.9,93.15,0.12402344,0.5458984400000001,0.8459472650000001,0.5001495521148821,0.5000029976902568,0.5000190521013812,58.8,19.5,29.4
0.04296875,0.46142578,0.350097655,0.4999423775184131,0.5000047963393174,0.4999815475064833,-0.6,25.05,18.75,0.556152345,0.5485839849999999,0.9753417950000001,0.5000083935501722,0.4999822136113923,0.4999527028862679,61.95,7.5,93.3,0.12011719,0.55908203,0.8342285150000001,0.5001542817826221,0.5000147220267734,0.5000108583041419,58.2,20.1,28.95
0.03149414000000002,0.46557617,0.34790039,0.49993937982815634,0.5000254471622935,0.49994470901649435,-0.6,25.05,18.75,0.5651855450000001,0.5625,0.9777832049999999,0.5000231822485232,0.5000114579120064,0.499937181498697,61.05,6.9,94.5,0.12597656499999998,0.5615234400000001,0.823242185,0.5001426906147273,0.5000221829602599,0.5000271125554657,57.15,19.8,27.45
0.02734375,0.45776367,0.358154295,0.5000005329362871,0.5000109915600303,0.49996309492570007,-2.4,24.75,18.45,0.572265625,0.55859375,0.9821777349999999,0.5000300436614116,0.5000204509827767,0.4999509043244737,61.05,6.9,94.5,0.13598633000000002,0.5625,0.817871095,0.5000939280352887,0.5000274456515534,0.5000486959951276,57.0,20.7,28.05
0.03662109500000003,0.45629883,0.35473633,0.5000292443006141,0.5000043299873413,0.4999646937345614,-2.1,24.0,18.45,0.5798339849999999,0.5759277349999999,0.986816405,0.5000310428624083,0.5000195183660909,0.4999660260316459,62.4,7.05,92.85,0.13159179499999998,0.564453125,0.822265625,0.500053492334445,0.50001945178178,0.5000509609088979,57.0,20.7,28.05
0.04272460999999998,0.455078125,0.345458985,0.5000566232805902,0.5000161875797464,0.4999539020147305,-1.2,23.85,18.3,0.58691406,0.5681152349999999,0.99316406,0.5000152549630607,0.49999920063920256,0.49994957194012274,63.3,6.9,93.45,0.13525390499999998,0.564453125,0.8200683599999999,0.5000252473220941,0.5000312427026077,0.5000690138092824,57.15,19.8,28.2
0.05053710999999998,0.45654297,0.352539065,0.5000482963147289,0.5000413016459521,0.49994637440966666,-1.05,24.3,19.5,0.5769042950000001,0.5734863299999999,0.97998047,0.5000285781084386,0.49999726873425354,0.5000071278373986,63.6,5.4,93.75,0.12133789000000002,0.567871095,0.821777345,0.499997401990142,0.5000595543865359,0.5000897312165694,57.15,19.8,28.2
0.05029297000000003,0.459228515,0.342285155,0.5000585550982727,0.5000353062654386,0.4999811477388181,-1.05,24.3,19.5,0.5666503900000001,0.5710449200000001,0.9865722650000001,0.5000420344224386,0.5000056622844258,0.4999951370763716,63.6,5.4,93.75,0.11694335999999998,0.5544433599999999,0.834472655,0.4999534356627543,0.5000905306646333,0.5000652833425392,58.2,20.55,27.15
0.05541991999999999,0.463378905,0.337890625,0.5000881990792855,0.5000254471622935,0.49999913396762513,-1.65,23.7,18.15,0.56201172,0.5686035150000001,0.998535155,0.5000636845336779,0.500025313906405,0.5000033307863445,62.55,8.4,93.15,0.11474609500000002,0.5603027349999999,0.8317871099999999,0.4999472404420415,0.5000870000380894,0.5000792725928263,56.25,21.45,27.15
0.04394531499999999,0.47119140499999995,0.32788086,0.500042167678327,0.5000498951235901,0.4999936049390878,-2.4,22.95,19.5,0.5556640650000001,0.5625,1.006591795,0.500062152396394,0.49997735068776394,0.5000145221865742,62.4,6.3,94.05,0.111328125,0.5437011700000001,0.837890625,0.4999184624934035,0.500078739656539,0.5000729441162249,56.25,21.45,28.8
0.02416991999999999,0.46069336,0.31958008,0.5000268461309554,0.5000419012538166,0.49997735068776394,-1.2,25.35,18.3,0.5593261700000001,0.5705566400000001,1.0083007800000001,0.5000468307617559,0.499988608759571,0.5000039969785199,62.4,6.3,94.05,0.10009765499999998,0.5402832049999999,0.8435058599999999,0.49992292573663316,0.500015987739547,0.5000688805533939,57.45,20.1,28.65
0.017089845000000024,0.46435547,0.30078125,0.5000456317205598,0.5000091929982361,0.5000085933903716,-1.2,25.35,18.3,0.552246095,0.56982422,1.001220705,0.5000478966343301,0.49998780931150716,0.5000151217071722,60.9,6.3,92.55,0.1015625,0.55126953,0.83935547,0.4999194616944002,0.5000207174945535,0.5000724111799378,57.6,20.25,27.0
0.013916015000000016,0.46118164,0.3125,0.5000202511425773,0.5000023315853478,0.49998827566348325,-2.7,23.25,20.25,0.5495605450000001,0.5803222650000001,0.9904785150000001,0.5000341072242425,0.49999646937345615,0.500038703636094,61.35,7.5,92.25,0.09448241999999998,0.5437011700000001,0.8415527349999999,0.4999134663138867,0.4999713553072504,0.500055490823705,57.0,20.25,29.85
0.029052734999999986,0.45727539,0.33154297,0.5000149218669728,0.4999928721626013,0.4999652932551594,-1.05,23.25,18.75,0.5461425799999999,0.5910644549999999,0.99316406,0.5000356393615264,0.4999815475064833,0.5000252473220941,62.7,8.25,92.55,0.09667969,0.5490722650000001,0.849609375,0.4998834226524752,0.4999689571375917,0.5000917962901403,57.0,20.7,29.4
0.04028320500000001,0.466552735,0.342529295,0.50000872664626,0.49994504211258206,0.5000103920394322,-1.5,23.1,19.35,0.55419922,0.60253906,1.01635742,0.5000197182062902,0.49999606969305743,0.5000125236973141,62.7,8.25,92.55,0.099609375,0.5515136700000001,0.85205078,0.4998647036471817,0.5000021983294594,0.5000686141288837,57.0,20.7,29.4
0.04125976500000002,0.45385742,0.348632815,0.4999707556993859,0.49996975649838915,0.500011258071807,-1.8,22.35,17.85,0.573242185,0.623046875,1.018310545,0.49999673579796644,0.49999527033226004,0.5000620191405056,62.4,7.8,92.55,0.09985351500000002,0.5556640650000001,0.8581542950000001,0.49981207734511157,0.5000075941893748,0.5000282450123509,56.7,21.9,29.25
0.02807616999999999,0.455566405,0.34423828,0.49996182921292653,0.4999680911052169,0.50001945178178,-1.8,22.35,17.85,0.5827636700000001,0.6145019549999999,1.0239257800000001,0.500006728157,0.49996249540510207,0.5000816040909075,62.25,8.1,93.45,0.102539065,0.5710449200000001,0.8674316400000001,0.49978802906421355,0.49994870599501434,0.5000311761182967,58.95,20.85,28.95
0.016601564999999995,0.459228515,0.349853515,0.4999994004794019,0.49993711482711956,0.5000257135868038,-1.65,23.7,19.5,0.584960935,0.61767578,1.01147461,0.49998707653502067,0.4999349831692376,0.5001159111553493,62.25,8.1,93.45,0.11572265499999998,0.56298828,0.8688964849999999,0.499766112528464,0.4999205941512854,0.5000295773094354,57.0,21.45,27.75
0.021484375,0.471435545,0.34692383,0.4999453752086699,0.499935849114346,0.5000006661921754,-1.35,22.5,18.75,0.5832519549999999,0.6154785150000001,0.998046875,0.4999495053558118,0.49990140888128226,0.5001324318311835,61.95,6.75,93.3,0.12841797000000002,0.57128906,0.8576660150000001,0.4997743063257033,0.499905805540201,0.5000469640176444,57.45,21.9,28.65
0.017333984999999986,0.470947265,0.376708985,0.4999410451340621,0.49995263630195697,0.5000137894100877,-1.2,23.4,18.6,0.5859375,0.6135253900000001,0.990234375,0.499970689115075,0.4999401791889537,0.5001210405907545,60.75,6.6,93.15,0.12255859500000002,0.575683595,0.8527832049999999,0.4997488590761434,0.4998904839055629,0.49999960031960133,56.7,20.55,29.25
0.04052734500000003,0.47973633,0.39355469,0.4999606301717304,0.49994684076164275,0.5000356393615264,-1.2,23.4,18.6,0.5856933599999999,0.6047363299999999,0.98486328,0.4999569662892982,0.49991613090805576,0.5001386271391628,61.65,7.8,92.85,0.134765625,0.5729980450000001,0.85546875,0.4997339372091706,0.49990946933536673,0.499997335405831,57.45,20.85,28.2
0.04418945500000001,0.48486327999999995,0.395507815,0.49991613090805576,0.49996456047867305,0.4999856776536252,-1.2,23.4,18.6,0.583496095,0.6232910150000001,0.98095703,0.4999222595444577,0.4999195283659777,0.5001572128885678,61.65,7.8,92.85,0.15600586,0.5734863299999999,0.8522949200000001,0.4997220796167654,0.49990587212451193,0.5000135229855773,57.45,20.85,28.2
0.03222656499999999,0.482666015,0.384521485,0.4999011424567719,0.49998427868496326,0.49999400461948645,-1.5,23.85,18.9,0.59375,0.6276855450000001,0.975097655,0.4999129999619106,0.4999212603434609,0.5001772641909459,62.4,6.3,94.05,0.16162109500000002,0.57080078,0.8249511700000001,0.4997087564713874,0.4999114012403158,0.4999859440781355,57.15,21.15,29.25
0.009277345000000025,0.491210935,0.376464845,0.4999050727637145,0.4999437763998085,0.5000256470024929,-0.3,24.75,18.45,0.6062011700000001,0.6198730450000001,0.9670410150000001,0.49992305899252154,0.49991786297280544,0.5001877893990001,62.25,7.35,93.75,0.17553711,0.55810547,0.8186035150000001,0.49967704750407005,0.499906405060799,0.49998241345159167,57.15,21.15,29.25
-0.0017089849999999843,0.498046875,0.373535155,0.49990873655888024,0.49996276182961236,0.5000754088701945,-1.35,24.0,20.25,0.6330566400000001,0.6091308599999999,0.9606933599999999,0.49992292573663316,0.4999228591523222,0.5001872565499794,60.6,7.8,93.6,0.18066406499999998,0.51074219,0.8125,0.49967078561177974,0.4999042067313397,0.4999699563385885,56.25,21.75,30.45
0.005371095000000025,0.493896485,0.376220705,0.49987163173164756,0.4999476401224402,0.4999925390665136,-1.35,24.3,19.5,0.631835935,0.5686035150000001,0.95654297,0.499926456363177,0.499928521436748,0.5002193652849619,60.15,8.25,93.6,0.1796875,0.49584961,0.8273925799999999,0.4997142855871912,0.49989874428711323,0.49996955665818976,57.6,19.2,30.9
0.00903320500000001,0.486083985,0.385253905,0.4998787595690462,0.4999323851593796,0.500042167678327,-1.35,24.3,19.5,0.635253905,0.536621095,0.96435547,0.49989887745573514,0.49997182157196013,0.5001914532814323,62.7,7.8,92.55,0.18847656499999998,0.46484375,0.8298339849999999,0.49978123432290267,0.49994877257932535,0.49997142189156135,57.15,19.35,30.0
0.02026366999999999,0.482421875,0.384033205,0.49986623587173207,0.49991932843851183,0.5000383039556954,-2.1,24.75,19.2,0.6276855450000001,0.5144042950000001,0.958984375,0.4999047396676268,0.5000069946687767,0.5001750658614865,60.6,8.25,93.6,0.17480468999999998,0.435058595,0.846191405,0.499870432603185,0.499986610270311,0.49997828330444977,56.1,20.55,30.0
0.03198241999999999,0.48120117,0.372070315,0.4998640375422727,0.49996542651104786,0.500012790209091,-0.75,25.35,19.95,0.599609375,0.493408205,0.979003905,0.4999279219161499,0.5002664624712282,0.500132165406673,60.6,8.25,93.6,0.15551758000000002,0.428466795,0.841796875,0.49996915697779104,0.500031442542807,0.4999858109095136,56.1,18.3,30.0
0.016113279999999976,0.4765625,0.357666015,0.49988069138672875,0.49996609261595687,0.5000341072242425,0.0,24.0,18.15,0.61425781,0.466064455,0.971679685,0.4999694234023014,0.5001155114749506,0.5001045864992313,60.15,7.5,92.55,0.13378906499999998,0.41796875,0.858398435,0.5000260466828915,0.5000742098289984,0.49996955665818976,56.55,21.75,30.9
0.007080080000000009,0.47021484500000005,0.33959961,0.49990034300870806,0.49997355363670976,0.5000725444358263,0.0,24.0,18.15,0.5842285150000001,0.48388672000000005,1.045166015,0.5000039969785199,0.5001197748779809,0.5000670819043334,61.95,7.8,94.35,0.11889648499999998,0.427734375,0.8562011700000001,0.5000800719536236,0.5001073843492887,0.49995263630195697,56.55,21.75,30.9
-0.002197265000000016,0.48388672000000005,0.33129883,0.4998952136605694,0.4999887419281929,0.5000638177895662,-0.45,24.9,18.6,0.57861328,0.497802735,1.059570315,0.5000143889306857,0.5001404923725343,0.5000241814495199,61.05,7.65,93.15,0.106445315,0.451171875,0.8435058599999999,0.5000983246942075,0.5001199081338693,0.49999833460682774,56.25,20.7,29.4
-0.008056640000000016,0.48461914,0.32373047,0.49992805508477184,0.5000064617324896,0.5000927955784036,0.0,25.5,18.75,0.57373047,0.51611328,1.048095705,0.5000143889306857,0.5000355727772153,0.500017519876831,61.05,7.65,93.15,0.08813476500000002,0.48095702999999995,0.8127441400000001,0.5001035872982346,0.5000800053693126,0.4999840788447639,57.0,20.25,29.4
-0.015869140000000014,0.47631836,0.321777345,0.4999462411537783,0.5000135895698883,0.5000985245344068,-1.5,24.9,19.35,0.5554199200000001,0.53564453,1.02319336,0.5000241148652089,0.5000745428378197,0.49999140660962843,61.05,7.65,93.15,0.09228515499999998,0.50488281,0.8132324200000001,0.5000323751594928,0.5000845351968533,0.49997401990141943,57.0,20.25,29.4
-0.013427734999999984,0.46850586,0.31298828,0.49994837289892663,0.5000027978500574,0.500062751916992,-0.45,25.35,18.6,0.548339845,0.5671386700000001,1.013427735,0.500017919644496,0.5000830030595694,0.49999646937345615,63.6,8.1,94.2,0.08251952999999998,0.5163574200000001,0.8283691400000001,0.49997401990141943,0.5001342304802441,0.4999810811545071,57.6,20.7,29.1
0.0048828149999999935,0.47216797000000005,0.307128905,0.4999847450369394,0.49999487056459485,0.5000813376663972,-0.45,25.35,18.6,0.53466797,0.576171875,1.028320315,0.5000187855896044,0.5000594211306475,0.49996835761699365,61.95,7.5,92.25,0.07275390499999998,0.546875,0.8234863299999999,0.49996129636390596,0.5001487526668182,0.4999529693980447,58.05,21.45,28.8
0.01171875,0.46850586,0.306884765,0.49997415315730787,0.49999873428722647,0.500102321585461,-1.2,25.65,18.6,0.536621095,0.5837402349999999,1.025634765,0.5000041968187193,0.5000606201718436,0.49999307200280063,61.95,7.5,92.25,0.06127929499999999,0.5625,0.80810547,0.4999321853191802,0.5001348300008421,0.499967225072842,57.15,19.35,29.7
0.01440429499999999,0.4609375,0.30151367,0.4999696899140782,0.5000183859092058,0.5000748093495966,-1.2,25.65,19.65,0.51953125,0.5749511700000001,1.0190429699999999,0.49997495251810525,0.50001945178178,0.5000411018057528,61.8,6.6,92.7,0.06030273499999998,0.565429685,0.8088378900000001,0.49985191343809077,0.5001124472003828,0.4999982680225168,56.7,20.85,29.25
0.01489258000000001,0.44873047,0.28979492,0.4999927389067129,0.5000137228257767,0.5000682143612185,-0.6,26.25,19.5,0.5100097650000001,0.573242185,1.0073242199999999,0.49997182157196013,0.5000256470024929,0.5000608866836205,62.4,7.8,92.55,0.07397460999999998,0.5612792950000001,0.8083496099999999,0.49982939738174315,0.5000697465857689,0.4999852779732265,56.7,20.85,29.25
0.00024414000000001578,0.444091795,0.28857422,0.5000079938697736,0.5000396362527799,0.5000809379859984,-0.6,26.25,19.5,0.53173828,0.571777345,1.01586914,0.49998008195351035,0.5000097258472568,0.5000567565364785,62.4,7.5,93.3,0.09204101500000002,0.545410155,0.81640625,0.49978896168089937,0.5000766079986572,0.5000135895698883,56.55,20.25,29.1
-0.018066405000000032,0.462890625,0.291259765,0.500018585749405,0.5000223828877257,0.5000849348772519,-0.45,26.1,19.95,0.5368652349999999,0.56640625,0.99316406,0.49997681775147684,0.49999260565082454,0.5000965260451468,62.4,7.5,93.3,0.09741210999999998,0.5339355450000001,0.8181152349999999,0.4997736401335278,0.5000186523337161,0.5000193851102025,56.55,20.25,29.1
-0.007324220000000025,0.475585935,0.30786133,0.5000704793622552,0.5000205176543542,0.5000692802337926,-0.45,26.1,18.9,0.5568847650000001,0.5637207049999999,0.97998047,0.499951237333295,0.4999897412164561,0.5000955267568835,62.55,6.6,93.45,0.11499023499999998,0.5290527349999999,0.8244628900000001,0.49971721669313707,0.5000291776290366,0.49999780167054064,57.6,19.95,30.15
0.010009765000000016,0.487060545,0.34008789,0.5000646171503637,0.4999894081203684,0.5000999900873797,-1.05,24.0,20.25,0.573242185,0.560546875,0.97314453,0.49997348696513233,0.5000139892502871,0.5000979915981196,60.9,7.5,94.05,0.12036133000000002,0.510498045,0.8312988299999999,0.4996982978476442,0.5000105252953206,0.5000190521013812,58.2,19.8,28.95
0.03857422000000003,0.49243164,0.364501955,0.5000309096065199,0.49998960796056774,0.5000384372115838,-0.45,25.35,19.35,0.5861816400000001,0.5524902349999999,0.9733886700000001,0.4999739533171085,0.5000347067448405,0.5000925957382042,61.95,7.8,94.05,0.126953125,0.497802735,0.8376464849999999,0.4997030941869616,0.49997974885742263,0.49999813476662835,57.0,19.5,29.85
0.05200195500000001,0.49291992,0.37426758,0.5000077940295742,0.500013456314,0.500038037531185,-0.45,25.35,19.35,0.5861816400000001,0.548339845,0.96875,0.49997455283770653,0.5000164540915232,0.5001057856276939,61.5,8.1,93.75,0.13720702999999998,0.49755859500000005,0.85107422,0.49972581008350864,0.4999559670883015,0.5000143223463748,55.8,20.25,29.1
0.05419922000000003,0.48461914,0.37939453,0.5000068614128884,0.5000125903688916,0.500044832272496,-1.05,25.5,18.45,0.580566405,0.5461425799999999,0.97363281,0.4999677580091291,0.500057489312965,0.5001045864992313,62.4,8.55,93.3,0.126708985,0.5041503900000001,0.841308595,0.49978103448270333,0.49995563399221365,0.5000151883787497,57.6,19.5,28.8
0.05786133000000001,0.48413086,0.3828125,0.4999723545082472,0.50009352835489,0.5000650168307623,-1.5,26.1,19.65,0.5822753900000001,0.53564453,0.985839845,0.49995776573736206,0.5000816707624849,0.5001139127533557,61.65,7.8,92.55,0.13549804499999998,0.490478515,0.8483886700000001,0.49980961259114187,0.4999537687588421,0.5000215834396619,57.3,20.25,29.4
0.04150390499999997,0.48583984500000005,0.37426758,0.49993484991334924,0.5001205076544674,0.5000393698282696,-1.8,25.65,18.9,0.5832519549999999,0.5322265650000001,0.98876953,0.4999620290531259,0.5000117243365167,0.500125037482008,61.65,7.8,92.55,0.14111327999999998,0.49145508,0.8479003900000001,0.4998531791508643,0.49997275418864584,0.500022049791638,57.3,20.25,29.4
0.029052734999999986,0.48754883,0.372802735,0.4999870099507097,0.5001150452102409,0.5000517603569617,-1.8,25.65,18.9,0.588867185,0.5422363299999999,0.9921875,0.4999778170397401,0.5000173867082089,0.5001143124337545,61.65,7.8,92.85,0.13916015499999998,0.48876952999999995,0.858398435,0.4998819570995023,0.49998427868496326,0.5000484961549282,57.45,19.8,28.95
0.013916015000000016,0.479248045,0.37890625,0.49997262102002393,0.5001245046329873,0.5000382373713844,-1.2,26.1,18.6,0.6013183599999999,0.5642089849999999,1.0004882800000001,0.4999938713635981,0.4999924058106252,0.5001170436122344,62.4,7.5,93.6,0.146240235,0.49462890499999995,0.853515625,0.4998808912269281,0.4999848782928278,0.5000325084153812,57.0,20.25,29.1
0.020996095000000024,0.48193359500000005,0.380859375,0.4999540351833524,0.5001092495826603,0.49999833460682774,-1.65,26.25,18.75,0.610839845,0.5617675799999999,0.96484375,0.49997841656033815,0.500034840000729,0.5001154448906396,61.05,7.65,92.7,0.15478515499999998,0.50048828,0.8454589849999999,0.49986084001181663,0.4999778170397401,0.500020117886689,57.15,19.05,30.75
0.030761720000000024,0.481689455,0.38232422,0.49997455283770653,0.5001103154552344,0.5000432335509012,-1.8,26.1,19.65,0.6179199200000001,0.5593261700000001,0.9953613299999999,0.500000066584311,0.5000143889306857,0.5001195084534706,61.05,7.65,92.7,0.154052735,0.49365234500000005,0.846191405,0.4998334609445741,0.49999840119113875,0.5000155214748374,56.55,19.95,29.4
0.04809570500000001,0.487304685,0.3828125,0.49996396095807494,0.5001002565118899,0.5000512940049857,-2.7,26.25,19.2,0.606933595,0.561035155,0.98828125,0.49999527033226004,0.5000263797789792,0.5001267695467576,61.95,8.25,92.55,0.15551758000000002,0.483154295,0.846191405,0.49983845712409086,0.5000081271256619,0.5000157213150367,56.7,19.05,29.25
0.03955077999999997,0.48852539,0.37841797,0.49992832159654865,0.5001210405907545,0.5000099923590335,-2.7,26.25,19.2,0.6062011700000001,0.5666503900000001,0.9997558599999999,0.5000063284766012,0.5000291110447257,0.5001058522120049,61.95,6.75,92.85,0.146728515,0.48535156,0.8439941400000001,0.4998220697041451,0.5000704126906779,0.49999660262934453,58.95,19.8,28.95
0.027832029999999976,0.48681640499999995,0.364501955,0.49994284378312276,0.5001036538825455,0.5000598874826238,-1.65,25.05,18.15,0.6135253900000001,0.55029297,1.009521485,0.5000061952207129,0.500033507616378,0.5001264364506699,61.95,6.75,92.85,0.135009765,0.48901367,0.8483886700000001,0.49981847240602384,0.5000865336861133,0.5000043299873413,58.95,19.8,28.95
0.02416991999999999,0.49072265499999995,0.35131836,0.4999504379724976,0.5000959931088598,0.5000702795220558,-0.45,25.35,18.3,0.60644531,0.548339845,1.0122070300000001,0.499993271843,0.5000207840788644,0.5001360291293048,61.5,7.35,92.7,0.13403320500000002,0.47412109500000005,0.8503417950000001,0.4998323950719999,0.5000529593981579,0.4999857442379362,56.7,20.1,31.05
0.00903320500000001,0.49365234500000005,0.334228515,0.49993724808300793,0.500099723575603,0.5000588216100496,-2.4,25.8,19.5,0.59765625,0.546875,1.0073242199999999,0.4999807480584194,0.5000357726174147,0.5001427572863046,61.8,7.65,93.45,0.11865234500000002,0.47631836,0.850097655,0.49984878249194564,0.5000538920148437,0.4999942710439968,56.7,20.1,31.05
0.01635741999999999,0.49267577999999995,0.326171875,0.4999593644589569,0.5000111914002296,0.5000577557374754,-2.4,25.8,19.5,0.5891113299999999,0.5383300799999999,1.0043945300000001,0.4999970023097432,0.5000298438212122,0.5001226393996158,61.05,8.1,93.75,0.118164065,0.475585935,0.84082031,0.49986177262850234,0.5000382373713844,0.4999851447173381,56.7,20.1,31.05
0.019287109999999986,0.482177735,0.322021485,0.49994803980283886,0.5000431002950128,0.500035439521327,-2.4,25.8,19.5,0.58203125,0.53173828,0.9987792950000001,0.4999760849749904,0.500044166167587,0.500124304792788,61.05,8.1,93.75,0.11694335999999998,0.474853515,0.837890625,0.4998938146919074,0.49999853444702713,0.4999730207004227,57.15,19.35,30.0
0.019287109999999986,0.47290039,0.317626955,0.49994284378312276,0.5000370382429218,0.5000229157367464,-3.6,26.4,17.85,0.5634765650000001,0.5261230450000001,0.994628905,0.49999840119113875,0.5000392365723811,0.5000767411672791,61.5,8.1,92.7,0.11621094,0.46948242,0.84082031,0.49986823427372556,0.5000090597423477,0.5000003996803987,57.45,19.35,29.7
0.022460939999999995,0.47607422000000005,0.3203125,0.49994004593306535,0.4999925390665136,0.5000541585266205,-2.7,26.55,17.1,0.5617675799999999,0.5314941400000001,0.99707031,0.5000377044350973,0.5000479632186411,0.5001151117945518,61.95,9.3,93.3,0.11328125,0.47119140499999995,0.8322753900000001,0.4998862205025326,0.5000230489926347,0.5000036638824322,58.05,20.25,30.45
0.02270508000000001,0.48413086,0.31933594,0.4999413116458389,0.5000007993607974,0.500087466302799,-2.55,26.4,17.25,0.53173828,0.548339845,1.006591795,0.5000517603569617,0.5000973254059442,0.5000879992390862,60.9,8.55,93.6,0.109375,0.466796875,0.8298339849999999,0.49987949234553264,0.4999847450369394,0.5000175865484083,58.35,18.75,28.8
0.03051758000000001,0.49291992,0.32055664,0.4999259900112009,0.5000008660323748,0.5000654165111611,-2.55,26.1,18.6,0.5500488299999999,0.5441894549999999,0.994628905,0.5000170536121212,0.5000731439564243,0.5000958598529712,62.7,10.05,94.65,0.106445315,0.48974609500000005,0.8391113299999999,0.4998818239308804,0.49997788362405104,0.5000055957001148,58.35,18.75,28.8
0.028808595000000024,0.497314455,0.314697265,0.4999435765596092,0.500002598009858,0.5000881990792855,-2.55,26.1,18.6,0.5534667950000001,0.5400390650000001,1.002197265,0.4999908736733413,0.5000465643372457,0.5001019219050622,61.5,7.35,92.7,0.11645508000000002,0.482421875,0.8254394549999999,0.49986756816881656,0.49996922356210205,0.4999958031812807,57.6,19.2,31.2
0.01879883000000001,0.50463867,0.31542969,0.49994637440966666,0.5000045964991181,0.5000877328145759,-3.0,25.65,18.6,0.5537109400000001,0.536621095,1.00390625,0.4999970688940542,0.500038104115496,0.5000881990792855,63.15,8.55,93.6,0.109375,0.479492185,0.822753905,0.49987935908964426,0.4999918062900271,0.500013856081665,57.6,19.2,31.2
0.019775390000000014,0.5134277349999999,0.325195315,0.4999179295571164,0.5000409019655534,0.5000594211306475,-1.8,26.1,18.9,0.5634765650000001,0.536621095,0.994140625,0.5000123238571148,0.5000369716586108,0.5001060520522042,63.15,8.55,93.6,0.11230469,0.494384765,0.826660155,0.4998676347531275,0.5000057289560033,0.5000306431820095,56.4,19.8,30.0
0.018554689999999995,0.50097656,0.33276367,0.49991939511008926,0.5000020650735709,0.5000878659831978,-2.25,27.9,19.35,0.5759277349999999,0.54638672,1.002929685,0.5000061952207129,0.5000201845582664,0.5000694800739921,62.4,7.05,93.6,0.12011719,0.48925781,0.834960935,0.4998472503546618,0.5000407687969315,0.5000045298275406,58.05,20.25,28.8
0.026855470000000024,0.49194336,0.33911133,0.4999472404420415,0.5000109915600303,0.5000794058487146,-2.25,27.9,19.35,0.576171875,0.5529785150000001,1.00854492,0.5000055957001148,0.5000463644970463,0.5000824701232823,62.7,8.25,92.85,0.10986327999999998,0.5139160150000001,0.8449707049999999,0.49985797549018174,0.5000731439564243,0.5000143223463748,57.45,18.6,29.7
0.02221679499999999,0.48193359500000005,0.3359375,0.49992952063774476,0.5000503613882998,0.5000168537719218,-2.7,25.8,18.75,0.57470703,0.5537109400000001,1.00317383,0.5000146554424625,0.5000249808975838,0.500118242740697,60.9,8.25,92.55,0.110351565,0.5246582049999999,0.83642578,0.499897678414539,0.5000716118191404,0.5000223162161483,57.0,18.0,29.4
0.02661133000000001,0.479248045,0.33251953,0.4999366485624099,0.5000391034037592,0.5000815375065966,-2.4,27.3,17.4,0.561035155,0.5642089849999999,1.017822265,0.49999913396762513,0.5000057955403142,0.5001105819670113,60.9,8.25,92.55,0.10668945500000002,0.51953125,0.813964845,0.4998795589298436,0.5000722779240494,0.5000422342626379,57.3,19.2,29.4
0.015380859999999984,0.47973633,0.328125,0.49997408648573044,0.5000369716586108,0.5000532259099346,-0.75,26.4,17.85,0.5705566400000001,0.5603027349999999,1.0112304699999999,0.5000061952207129,0.5000036638824322,0.5001269027153795,61.8,8.1,92.7,0.12011719,0.5400390650000001,0.8195800799999999,0.49983759109171605,0.5000780734643636,0.5000410352214418,57.3,19.2,29.1
0.00048827999999997475,0.47192383,0.325439455,0.49995530089612594,0.500055557408016,0.5000605535875327,-1.5,28.2,18.3,0.5500488299999999,0.584472655,0.998046875,0.49999693563816583,0.5000097925188342,0.5001328315115822,61.35,10.8,94.35,0.115234375,0.54736328,0.8190917950000001,0.4998036171233619,0.5000862672616029,0.5000656163513604,57.3,19.2,29.1
0.002197265000000016,0.46801758,0.333251955,0.5000063284766012,0.5000213170151515,0.5000893982077481,-1.5,28.2,18.3,0.584960935,0.56982422,1.01635742,0.5000436332312999,0.5000097258472568,0.5001455551363622,61.05,8.85,93.45,0.12011719,0.5417480450000001,0.8127441400000001,0.4997385337082886,0.5000724777642488,0.5000510275804753,58.05,19.5,29.1
-0.01049804499999999,0.482421875,0.33642578,0.5000302435016108,0.5000137894100877,0.5000739433172217,-2.55,27.45,18.3,0.5681152349999999,0.59814453,1.002685545,0.5000205842386651,0.5000317756388947,0.5001941845471788,61.05,8.85,93.45,0.126708985,0.5173339849999999,0.8288574200000001,0.4996641240390908,0.5000846684527417,0.5000775406153429,58.05,19.5,29.1
-0.01049804499999999,0.491210935,0.34301758,0.500013856081665,0.5000302435016108,0.5000345734889522,-4.2,26.55,18.45,0.603027345,0.583984375,1.005126955,0.5000336408722663,0.5000267128750671,0.5002117044240096,62.25,9.6,93.45,0.126708985,0.5061035150000001,0.8308105450000001,0.4996671883136585,0.5001017220648629,0.5000740765731101,57.45,19.05,30.0
-0.0026855449999999906,0.5041503900000001,0.357177735,0.5000279785878405,0.5000008660323748,0.5000544249511308,-3.6,28.2,18.3,0.58691406,0.57910156,0.9763183599999999,0.5000402358606444,0.5000629517571914,0.5002285581959315,61.5,10.35,93.15,0.12036133000000002,0.494384765,0.81982422,0.49966612252835074,0.5000913966097417,0.500056156928614,55.65,19.35,28.65
