IMU1_AccX,IMU1_AccY,IMU1_AccZ,IMU1_GyrX,IMU1_GyrY,IMU1_GyrZ,IMU1_MagX,IMU1_MagY,IMU1_MagZ,IMU2_AccX,IMU2_AccY,IMU2_AccZ,IMU2_GyrX,IMU2_GyrY,IMU2_GyrZ,IMU2_MagX,IMU2_MagY,IMU2_MagZ,IMU3_AccX,IMU3_AccY,IMU3_AccZ,IMU3_GyrX,IMU3_GyrY,IMU3_GyrZ,IMU3_MagX,IMU3_MagY,IMU3_MagZ
0.005371095000000025,0.412353515,0.38696289,0.49992265922485635,0.499921793279748,0.5000459648166476,0.6,16.2,20.25,0.5993652349999999,0.57421875,0.99316406,0.5000845351968533,0.5000544249511308,0.49992565700237956,60.9,4.05,93.6,0.13720702999999998,0.532714845,0.8415527349999999,0.5001025880099713,0.5000126569532025,0.5000295773094354,56.25,17.4,29.4
0.005615234999999984,0.404785155,0.41088867,0.49991246711288995,0.4999247243856938,0.5000232488328341,0.6,16.2,20.25,0.603515625,0.5808105450000001,1.00097656,0.5000716784034513,0.5000360390419251,0.49992439128960603,61.05,3.9,93.45,0.15161133000000002,0.5341796900000001,0.8479003900000001,0.5000816707624849,0.5000517603569617,0.5000120574326045,57.45,18.6,30.3
0.006347654999999975,0.40966797,0.41870117,0.4999607634276188,0.49993831395558214,0.5000522266216714,0.45,14.55,19.65,0.6091308599999999,0.587890625,0.9987792950000001,0.5000632181817017,0.5000450321999618,0.4999354494339473,61.05,3.9,93.45,0.13256836,0.532714845,0.845214845,0.5000753422858836,0.5000578223217863,0.5000221829602599,55.5,18.75,28.8
0.018554689999999995,0.424072265,0.42626953,0.4999717549876492,0.4999540351833524,0.5000407021253541,2.55,16.35,21.0,0.5964355450000001,0.58935547,0.9919433599999999,0.5000452320401612,0.5000249808975838,0.4999499050362105,61.05,4.65,94.5,0.14184570500000002,0.5354003900000001,0.8337402349999999,0.5000636179493669,0.5000369716586108,0.5000381707870735,58.05,17.4,30.45
0.02612304499999999,0.430664065,0.431152345,0.4999513040048724,0.5000283115966618,0.5000091929982361,1.05,14.4,20.55,0.592773435,0.5959472650000001,0.9855957049999999,0.5000090597423477,0.5000707457867656,0.4999453752086699,61.8,4.95,93.15,0.14160156499999998,0.5324707049999999,0.8459472650000001,0.5000170536121212,0.5000381707870735,0.5000270459711548,58.95,17.55,30.3
0.02856445500000001,0.43847656,0.43359375,0.4999670252326427,0.5000556906639043,0.5000470306019553,1.2,16.05,20.4,0.5886230450000001,0.5881347650000001,0.9875488299999999,0.5000109915600303,0.5000630183415024,0.4999720880837369,61.5,4.65,94.8,0.134521485,0.5290527349999999,0.85546875,0.5000028644343684,0.5000644838944752,0.5000085933903716,56.7,18.3,29.25
0.02416991999999999,0.431640625,0.43823242,0.49994304362332215,0.5001290344605279,0.5000110582316077,1.2,16.05,20.4,0.5793457049999999,0.5788574200000001,0.982910155,0.49999054057725356,0.5000602204914449,0.49999034073705423,61.8,4.65,94.5,0.14111327999999998,0.537109375,0.8522949200000001,0.49998534455753746,0.5000480964745295,0.5000140559218645,56.7,18.3,29.25
0.025390625,0.43334961,0.432128905,0.49990787061377195,0.5002131033926716,0.49996649238362206,1.2,16.05,20.4,0.58544922,0.56738281,0.986816405,0.49998707653502067,0.5000510275804753,0.4999940712037974,61.95,5.25,93.6,0.12792968999999998,0.53857422,0.853515625,0.4999498384518995,0.5000273123956651,0.5000169203562328,56.55,18.45,31.2
0.012695314999999993,0.434570315,0.415283205,0.4999415780703492,0.500242680702107,0.500026779459378,1.8,17.1,18.9,0.576171875,0.560546875,0.986328125,0.499970689115075,0.5000558239197928,0.5000125236973141,63.3,4.2,94.2,0.13574218999999998,0.5407714849999999,0.8498535150000001,0.499950571228386,0.5000423675185263,0.5000152549630607,56.55,18.45,31.2
0.007568359999999984,0.426757815,0.400146485,0.4999302534142312,0.5002817174342887,0.4999880091517065,0.0,13.95,19.5,0.5827636700000001,0.5563964849999999,0.9904785150000001,0.49998081472999684,0.50002145027104,0.5000020650735709,63.3,4.2,94.2,0.142333985,0.5422363299999999,0.83642578,0.499946574249866,0.4999912067694291,0.500022715896547,56.1,18.3,30.3
-0.003662109999999984,0.419189455,0.376953125,0.4999500382920989,0.500316690690906,0.4999964027891452,0.6,16.2,19.8,0.58251953,0.5568847650000001,0.990234375,0.49999260565082454,0.5000338407124657,0.5000272458113542,60.45,3.45,93.75,0.13647461,0.5163574200000001,0.8366699200000001,0.4999183959090925,0.5000017986490606,0.5000291110447257,56.1,18.6,31.05
-0.017822265000000014,0.418945315,0.365478515,0.4999791493368246,0.5003435367345951,0.49997108879547364,0.6,16.2,19.8,0.5974121099999999,0.5627441400000001,0.9938964849999999,0.5000085268060606,0.5000210505033748,0.4999977350862297,61.95,4.5,93.6,0.14794922000000002,0.5183105450000001,0.853515625,0.4998720314120462,0.5000494954431914,0.500062818501303,56.1,18.6,31.05
-0.0031738300000000094,0.412109375,0.35107422,0.500002598009858,0.5002969058130384,0.49998507813302717,2.25,15.3,20.4,0.6052246099999999,0.5598144549999999,0.9992675799999999,0.5000012657127736,0.5000283115966618,0.499997934926429,63.6,4.95,94.5,0.14160156499999998,0.502441405,0.8732910150000001,0.4998767610797862,0.5000749426054849,0.5000353062654386,57.6,17.7,30.15
-0.005615234999999984,0.41381836,0.33666992,0.4999925390665136,0.5003019019925552,0.499949172259724,0.0,14.4,20.25,0.6071777349999999,0.55517578,0.9987792950000001,0.4999805482182201,0.5000364387223237,0.5000136562414658,63.3,4.65,93.45,0.119140625,0.48681640499999995,0.876464845,0.4999038736352519,0.5000574226413875,0.5000115244963174,57.45,19.35,29.25
0.0026855449999999906,0.41748047,0.333496095,0.5000293108849251,0.5002535390062488,0.49996349460609885,0.0,16.2,18.15,0.600585935,0.537597655,0.9943847650000001,0.4999847450369394,0.5000433001352121,0.5000161875797464,62.85,3.9,93.75,0.13964843999999998,0.477783205,0.873046875,0.4999184624934035,0.4999875428869968,0.5000333077761786,57.3,18.0,30.45
0.017089845000000024,0.424560545,0.32421875,0.5000387703076715,0.5002028445218613,0.5000083269658613,0.3,16.2,19.2,0.5930175799999999,0.5314941400000001,0.9968261700000001,0.4999806148897975,0.5000373713390096,0.4999887419281929,60.75,4.2,94.5,0.126953125,0.474365235,0.8688964849999999,0.49996682539244336,0.4999590980344466,0.5000123238571148,57.6,18.75,30.15
0.029785154999999976,0.431884765,0.33618164,0.5000226493122361,0.5001826600508613,0.4999988009588039,0.3,16.2,19.2,0.5837402349999999,0.53125,0.9929199200000001,0.4999750191024162,0.5000486959951276,0.49999813476662835,60.75,4.2,94.5,0.122070315,0.46801758,0.86425781,0.4999836791643652,0.49994870599501434,0.5000306431820095,57.6,18.75,30.15
0.05541991999999999,0.43676758,0.349609375,0.50001945178178,0.5001333644478693,0.49998794256739554,-0.6,15.45,18.15,0.581054685,0.5166015650000001,0.9934082049999999,0.5000067948285775,0.5000456983048708,0.4999570995451866,61.8,3.9,93.75,0.126953125,0.46533203,0.85546875,0.5000310428624083,0.49997182157196013,0.4999995336480239,58.05,19.2,29.85
0.07421875,0.434814455,0.37036133,0.5000594877149585,0.5000965260451468,0.5000223162161483,-2.1,16.95,18.45,0.57861328,0.5224609400000001,0.9924316400000001,0.5000037304667432,0.5000411018057528,0.49994470901649435,61.5,4.95,93.75,0.126708985,0.47363281,0.861816405,0.5000347733291515,0.4999666922238214,0.5000279785878405,58.05,19.2,29.85
0.10009765499999998,0.43334961,0.373779295,0.5000434333911005,0.5001000566716907,0.4999802151221323,-1.05,15.45,17.7,0.5715332049999999,0.5275878900000001,0.9987792950000001,0.5000263797789792,0.5000454984646715,0.4999298537338325,62.4,4.05,94.05,0.12841797000000002,0.47998047000000005,0.85546875,0.5000748759339075,0.49999187287433805,0.5000165872601451,58.8,18.75,29.4
0.1015625,0.42944336,0.37133789,0.5000317090545837,0.5001020551609506,0.4999458414733795,-1.05,15.45,17.7,0.57519531,0.533691405,1.00415039,0.500031309374185,0.5000195849504019,0.49993098619071763,62.4,4.05,94.05,0.12939452999999998,0.470458985,0.8591308599999999,0.5000745428378197,0.49997308728473366,0.5000011324568852,58.95,17.55,30.0
0.08959960999999998,0.427734375,0.353027345,0.5000907970891436,0.5000973920775217,0.49998347932416587,-2.4,16.2,18.45,0.569335935,0.54248047,1.00415039,0.5000285781084386,0.5000211837592632,0.4999397128369776,62.25,3.9,92.4,0.127197265,0.478271485,0.85107422,0.5000957932686603,0.4999818139309936,0.5000063284766012,57.9,18.6,29.25
0.06176758000000001,0.42504883,0.34448242,0.5000780734643636,0.5000825367948597,0.49994057886935245,-1.5,15.6,17.55,0.5729980450000001,0.5476074200000001,1.006835935,0.5000303767574993,0.49998261329179106,0.49993125270249444,61.8,5.4,93.45,0.13330077999999998,0.48071289,0.8537597650000001,0.5001189088456061,0.4999628285011898,0.4999832794839665,56.7,19.05,30.3
0.04443359500000003,0.411376955,0.334228515,0.5000948606519745,0.500044166167587,0.4999523032058692,-1.8,15.3,17.55,0.5847167950000001,0.55078125,1.0053710949999999,0.5000230489926347,0.4999547679598389,0.4999141325060622,61.8,5.4,93.45,0.13720702999999998,0.47631836,0.857910155,0.5001159111553493,0.49996109643644016,0.500002664594169,56.7,19.05,30.3
0.03662109500000003,0.412841795,0.32373047,0.5001279020036428,0.4999722879239362,0.4999790160809362,-1.5,14.85,19.95,0.592773435,0.5478515650000001,1.0078125,0.5000303100859218,0.49996056358741947,0.49993058651031896,61.5,3.9,94.2,0.14599609500000002,0.48120117,0.85595703,0.5001205076544674,0.4999590313628692,0.4999790160809362,57.3,19.5,30.15
0.03857422000000003,0.408935545,0.321777345,0.5001287013644402,0.4999373146673189,0.49993724808300793,-1.5,14.85,19.95,0.5993652349999999,0.5439453150000001,0.9992675799999999,0.49999813476662835,0.49995969755504466,0.4999294540534338,61.35,4.5,92.85,0.14575195500000002,0.48120117,0.845703125,0.5001396929244705,0.4999730207004227,0.4999994004794019,57.3,19.5,30.15
0.04003906499999999,0.41430664,0.31640625,0.5001466875932473,0.49986596935995525,0.4999746860935949,-1.8,15.3,18.6,0.588867185,0.5388183599999999,0.990722655,0.4999904739929426,0.49999114009785167,0.49989128326636034,63.15,4.5,94.35,0.150390625,0.487304685,0.849121095,0.5001500849639027,0.49994337671940986,0.49999593643716905,56.4,18.3,30.3
0.04223633000000001,0.41845703,0.322753905,0.5001575458973891,0.4998135428980845,0.4999824801231691,-2.25,13.8,18.3,0.5886230450000001,0.5354003900000001,0.9921875,0.5000109915600303,0.5000087932305709,0.49991233385700157,63.15,4.5,94.35,0.13598633000000002,0.487060545,0.8395996099999999,0.5001559471757944,0.4999701561787878,0.49997581855048007,57.3,18.0,30.15
0.04321289000000002,0.424316405,0.318847655,0.5001518836129634,0.49977643798358523,0.4999746194220175,-0.75,14.85,18.3,0.5817871099999999,0.5344238299999999,0.9895019549999999,0.5000173867082089,0.49999094025765234,0.49989801151062674,60.9,3.3,92.55,0.140625,0.49072265499999995,0.84033203,0.5001165106759474,0.4999919395459155,0.49996156278841625,57.15,18.3,30.3
0.029052734999999986,0.419189455,0.337646485,0.5001396263401595,0.499752722798775,0.4999557005765246,-0.75,14.85,18.3,0.578125,0.55126953,0.999023435,0.500024714385807,0.4999855443977368,0.4998867534388197,61.5,3.9,92.4,0.13696289,0.494140625,0.85546875,0.5001149785386635,0.49999213938611486,0.4999410451340621,58.2,19.05,28.65
0.02416991999999999,0.43310547,0.341064455,0.5001525498051389,0.4996804448747255,0.499968624041504,-0.3,14.4,17.7,0.5671386700000001,0.56689453,1.0112304699999999,0.5000013322970845,0.49999786834211807,0.49987989202593136,61.5,3.9,92.4,0.12890625,0.502441405,0.87060547,0.5001122473601836,0.5000149218669728,0.4999555007363253,56.4,18.3,30.75
0.027832029999999976,0.43701172,0.35571289,0.500093661523512,0.499654464776145,0.49997688442305427,-0.15,15.6,19.35,0.5832519549999999,0.587402345,1.0483398449999999,0.5000182526533173,0.5001780635517432,0.4998545781195263,61.5,3.9,92.4,0.12036133000000002,0.50463867,0.8601074200000001,0.5001266362908693,0.4999769510073652,0.49994577488906855,57.9,18.3,30.75
0.03271484500000003,0.43383789,0.38647461,0.5000717449877623,0.49965333231925985,0.4999519035254705,-1.05,15.15,18.75,0.5773925799999999,0.5859375,0.9987792950000001,0.4999769510073652,0.5000729441162249,0.4998959464370558,62.85,4.65,94.8,0.11303710999999998,0.5146484400000001,0.8439941400000001,0.5001402258607576,0.4999701561787878,0.4999401791889537,57.9,18.3,30.75
0.04248047000000003,0.42651367,0.38256836,0.5000405022851547,0.4996436064720031,0.49996456047867305,0.3,12.9,18.75,0.55517578,0.564453125,1.00415039,0.4999508376528963,0.500031309374185,0.49990660490099836,62.55,4.2,94.2,0.11157226500000002,0.51220703,0.846191405,0.5001710022986556,0.49994564163318017,0.49993884689186924,57.3,18.45,31.5
0.04809570500000001,0.412597655,0.380371095,0.499975219029882,0.4996689203784082,0.4999432434635215,-0.3,13.65,20.55,0.5634765650000001,0.55908203,1.002929685,0.4999826799633685,0.500015388218949,0.4999046730833158,63.15,3.75,92.85,0.12597656499999998,0.5148925799999999,0.8444824200000001,0.5001677380966221,0.49999393794790903,0.4999235252572312,57.3,18.45,31.5
0.03784179499999999,0.38720703,0.38354492,0.49998960796056774,0.4996980314231339,0.4999427105272344,0.3,14.4,19.5,0.5671386700000001,0.5402832049999999,1.00317383,0.49996442722278467,0.5000758085505933,0.4999241914494067,63.15,3.75,92.85,0.10449219,0.5114746099999999,0.8474121099999999,0.5001544816228214,0.49997581855048007,0.4999257235866905,57.3,18.45,31.5
0.02026366999999999,0.36376953,0.38745117,0.4999791493368246,0.49971628407645124,0.49997401990141943,0.75,14.25,19.65,0.548828125,0.5185546900000001,1.0,0.49994943877150083,0.5000520267814721,0.4998952136605694,63.75,4.05,93.3,0.115234375,0.50097656,0.842285155,0.5001845918685439,0.49997382006122004,0.4999435765596092,56.7,19.35,29.25
0.01879883000000001,0.345458985,0.41088867,0.4999751523583046,0.49975985072344015,0.499950571228386,0.45,14.85,21.0,0.5500488299999999,0.50830078,1.0078125,0.4999557005765246,0.5000528928138469,0.4999192618542009,63.3,4.2,93.75,0.10815429499999998,0.5036621099999999,0.83691406,0.5002095727661278,0.4999644938943621,0.49993724808300793,56.7,18.3,29.25
0.023681640000000014,0.33520508,0.42163086,0.4999722879239362,0.49982053747959476,0.49999200613022643,0.45,14.85,21.0,0.553222655,0.5144042950000001,1.00756836,0.49997708426325366,0.5000193851102025,0.49992012788657575,62.85,3.45,94.5,0.11083984500000002,0.49169922000000005,0.8493652349999999,0.5002103055426141,0.49992499081020414,0.4999588315226698,59.1,19.95,31.5
0.005615234999999984,0.342529295,0.42114258,0.5000297771496347,0.4998311960308038,0.5000431002950128,2.25,13.5,19.35,0.57128906,0.502685545,1.01879883,0.5000337075438438,0.49995809874618335,0.4998954135007687,62.55,4.2,93.75,0.13793945500000002,0.5075683599999999,0.85253906,0.5002159678270399,0.4999094027510558,0.4999451086968931,56.55,18.45,29.4
-0.01171875,0.34814453,0.407470705,0.5000189854298038,0.4998904839055629,0.5000646837346746,1.35,14.4,20.85,0.5871582049999999,0.52294922,1.00708008,0.5000568897051004,0.49997854972896005,0.49987602830329975,62.4,3.75,93.6,0.12768554499999998,0.49365234500000005,0.8566894549999999,0.5002069080846921,0.4999687572973924,0.499957898905984,56.25,17.7,30.45
-0.03613281500000005,0.372314455,0.39794922,0.5000370382429218,0.4999762182308788,0.500073477052512,2.55,14.85,20.4,0.5983886700000001,0.5139160150000001,0.995117185,0.5000415015734179,0.499959897395244,0.49988149083479266,63.15,3.0,93.3,0.13208008000000002,0.50439453,0.841796875,0.5001877893990001,0.49993591578592345,0.49994124506152793,57.6,19.2,29.85
-0.05688476500000002,0.390625,0.381591795,0.5001037205541229,0.4999794157613349,0.5001144456023764,2.55,14.85,20.4,0.5920410150000001,0.5205078150000001,1.00463867,0.500013323145378,0.49999460414008456,0.4999103353677416,63.15,3.0,93.3,0.14453125,0.506835935,0.857421875,0.50019178637752,0.49997768378385166,0.499939846092866,57.6,19.2,29.85
-0.046142579999999954,0.39746094,0.388427735,0.5000518269412727,0.5000102587835439,0.500117643220099,2.55,14.85,20.4,0.58642578,0.5207519549999999,0.9890136700000001,0.5000155880591484,0.5000131898894896,0.4998882189917926,62.4,3.0,93.6,0.13671875,0.517089845,0.86425781,0.5001562802718821,0.4999831462280781,0.4999943377155742,56.25,18.45,29.85
-0.04638671999999997,0.39770508,0.388671875,0.500064150885654,0.49999460414008456,0.5001203743985789,2.25,13.5,21.0,0.5891113299999999,0.5322265650000001,0.9943847650000001,0.500038037531185,0.5000081937099728,0.4998872863751068,61.95,4.05,94.05,0.14355468999999998,0.5270996099999999,0.8767089849999999,0.5001322319909841,0.49999500382048323,0.5000164540915232,56.55,18.75,30.45
-0.022216795000000046,0.39404297,0.38598633,0.5000832028997688,0.5000013322970845,0.5001217066956635,0.6,14.7,21.9,0.584472655,0.533203125,0.9968261700000001,0.5000373713390096,0.5000465643372457,0.4998700329227862,63.3,4.65,93.45,0.13623047000000002,0.5334472650000001,0.8737792950000001,0.5001257702584944,0.5000183859092058,0.49998274654767944,57.0,18.45,30.15
-0.012939454999999952,0.397216795,0.391601565,0.5000832694840798,0.5000488292510159,0.5000759418064817,1.5,14.55,21.45,0.58935547,0.55029297,1.00805664,0.5000445658479856,0.5000341738085534,0.49987642798369847,62.55,3.15,92.4,0.13256836,0.5339355450000001,0.88769531,0.5001264364506699,0.5000167871003445,0.5000013989686619,56.4,17.85,30.75
0.00854491999999999,0.404541015,0.393310545,0.5001139793376667,0.5000567565364785,0.5000899977283462,0.75,15.3,21.0,0.5773925799999999,0.5603027349999999,1.029296875,0.5000316423830063,0.5000251807377831,0.4998854877260462,63.15,2.55,94.65,0.12475585999999998,0.5544433599999999,0.9035644549999999,0.5001209740064435,0.49996882388170333,0.4999636944462982,57.9,18.6,31.35
0.02661133000000001,0.411865235,0.381591795,0.5001570796326795,0.500068281032796,0.5000740765731101,0.75,15.3,21.0,0.583496095,0.56201172,1.05053711,0.500042101094016,0.4999781500485614,0.49989148319382615,61.8,4.65,92.7,0.11376952999999998,0.57373047,0.9660644549999999,0.5000711454671642,0.49998334606827743,0.5000017319774832,58.05,18.75,31.5
0.04443359500000003,0.41796875,0.37133789,0.5001647404063653,0.5000774073594546,0.5000331079359792,0.6,13.95,21.3,0.5798339849999999,0.5773925799999999,1.06665039,0.5000309762780973,0.49997388664553105,0.4999181293973157,61.8,4.65,92.7,0.072265625,0.5754394549999999,0.84863281,0.5001587450258517,0.500000066584311,0.49994817305872724,58.05,18.75,31.5
0.03247070500000001,0.42114258,0.36767578,0.5002192320290735,0.5000805383055997,0.5000049295952058,1.8,14.25,21.45,0.5500488299999999,0.591308595,1.020751955,0.5000460314009586,0.4999209272473732,0.49992379176900803,62.7,3.3,93.3,0.12231445500000002,0.6267089849999999,0.8146972650000001,0.5001404923725343,0.49987376338952944,0.5000082602942838,57.15,18.6,30.75
0.023925779999999976,0.42504883,0.357910155,0.5002843821157242,0.500018585749405,0.49996975649838915,1.8,13.8,19.65,0.5637207049999999,0.6145019549999999,1.002685545,0.5000586883541611,0.499897678414539,0.4999648269904498,62.55,2.7,93.15,0.15625,0.6433105450000001,0.889648435,0.5000221829602599,0.49995410185492983,0.5000453652087831,57.15,18.6,30.75
0.03125,0.424316405,0.32421875,0.5003252840812776,0.49998900843996974,0.49991026878343064,1.8,13.8,19.65,0.6672363299999999,0.623046875,1.018310545,0.5000585550982727,0.4997761714718085,0.4999854111418484,62.85,2.7,93.15,0.12451172000000002,0.615234375,0.91748047,0.49991786297280544,0.5000604870032217,0.49999920063920256,57.3,18.0,30.15
0.021972654999999976,0.44604492,0.293945315,0.5004275390824277,0.49986410412658366,0.4998476500350605,1.35,12.9,20.85,0.643554685,0.6447753900000001,1.0258789050000001,0.5000109915600303,0.49980621513322,0.500035506105638,62.85,2.7,93.15,0.16137695500000002,0.6188964849999999,0.865722655,0.49996869062581495,0.5000381707870735,0.500013856081665,57.0,19.2,30.45
0.015136720000000025,0.459472655,0.290527345,0.500487959414072,0.4997154180440764,0.4997463943221737,1.2,13.05,20.4,0.6218261700000001,0.6484375,1.005126955,0.499979882113311,0.4998467840899521,0.5000834027399681,61.35,3.3,94.05,0.185546875,0.6228027349999999,0.8459472650000001,0.4999377144349841,0.5000902641528565,0.500005262604027,57.0,18.45,30.45
-0.020263670000000046,0.454833985,0.424072265,0.4999868101105104,0.49999500382048323,0.4999980681823174,3.3,21.6,22.8,0.66748047,0.48535156,0.9924316400000001,0.5000257802583812,0.49998760947130777,0.5000365053939012,54.9,6.15,96.0,0.12353515499999998,0.37841797,0.8322753900000001,0.5000241148652089,0.499948506154815,0.5000909969293429,57.3,17.4,31.2
-0.015625,0.44067383,0.41308594,0.5000047963393174,0.500013389729689,0.5000238483534322,4.05,21.6,23.85,0.6643066400000001,0.486328125,0.9851074200000001,0.5000832694840798,0.4999568331206763,0.5000027978500574,54.9,6.15,96.0,0.12231445500000002,0.400390625,0.8322753900000001,0.5000410352214418,0.49998381242025364,0.5000844686125423,57.3,16.95,32.25
-0.005615234999999984,0.438720705,0.40942383,0.5000218499514386,0.5000279119162632,0.5000049295952058,3.75,22.5,22.95,0.65722656,0.502441405,0.97265625,0.5000821370271946,0.4999961362773684,0.4999880091517065,52.95,5.55,95.7,0.13183593999999998,0.42529297,0.82421875,0.5000572894727656,0.4999722879239362,0.5000808047301101,57.3,16.95,32.25
-0.01464844000000005,0.44628906,0.40942383,0.5000336408722663,0.5000361722978134,0.49999746857445293,3.0,22.65,23.85,0.6584472650000001,0.53076172,0.97314453,0.5001132465611803,0.49997994869762197,0.499993405011622,53.85,6.6,95.55,0.13940429499999998,0.43725586,0.8215332049999999,0.5000417014136173,0.4999958031812807,0.5000719449152282,56.55,16.65,30.45
-0.013671875,0.439941405,0.411376955,0.5000252473220941,0.5000674150004211,0.500005262604027,2.7,21.75,24.0,0.6516113299999999,0.5393066400000001,0.978027345,0.5001093828385487,0.5000043966589187,0.4999771508475646,54.45,7.05,96.15,0.13623047000000002,0.44873047,0.823242185,0.5000255137466044,0.4999970688940542,0.5000771408476778,56.7,17.1,31.05
-0.01269531500000005,0.45263672,0.411132815,0.5000167871003445,0.5000580888335631,0.5000183193248948,2.7,21.75,24.0,0.6535644549999999,0.5517578150000001,0.978515625,0.5000875995586875,0.5000229824083238,0.5000015988088613,54.45,7.05,96.15,0.13745116999999998,0.43847656,0.826660155,0.49998481162125036,0.5000415681577288,0.5000677480965088,57.3,16.95,30.9
-0.012939454999999952,0.46508789,0.400390625,0.5000239150250096,0.5000563568560799,0.500057489312965,3.6,21.6,23.55,0.653808595,0.5546875,0.98046875,0.5000836025801675,0.4999968690538548,0.4999901408968549,54.45,7.05,96.15,0.12939452999999998,0.44580078,0.82763672,0.5000121240169154,0.500002664594169,0.5000446991038741,58.35,18.45,30.45
-0.01049804499999999,0.46923827999999995,0.40991211,0.49998867534388197,0.5000738101485998,0.5000462978254688,3.15,22.95,23.25,0.6574707049999999,0.55078125,0.9763183599999999,0.500031442542807,0.499986676854622,0.5000091263266587,53.1,7.35,95.55,0.13818359500000002,0.42529297,0.841796875,0.4999889417683923,0.49997601839067946,0.5000364387223237,58.35,18.45,30.45
0.0,0.470703125,0.41699219,0.49996729174441945,0.5000636845336779,0.5000496286118133,3.3,22.65,23.55,0.6696777349999999,0.54736328,1.00390625,0.5000250474818948,0.4999640275423859,0.500020117886689,53.55,7.65,95.55,0.12182616999999998,0.418945315,0.83935547,0.5000209173347528,0.49996189588450396,0.5000021983294594,55.8,18.0,31.5
0.00903320500000001,0.475341795,0.40991211,0.4999557672481021,0.5000391699880702,0.5000365719782122,3.3,22.65,23.55,0.642089845,0.54296875,0.997558595,0.5000169203562328,0.49997961560153426,0.5000012657127736,53.55,7.65,95.55,0.11743164000000002,0.40625,0.8352050799999999,0.5000271125554657,0.49997082237096335,0.5000295107251244,58.95,17.85,30.75
0.02075195500000001,0.486083985,0.400878905,0.4999547013755279,0.500026646290756,0.5000720114995392,3.15,22.5,23.25,0.639648435,0.5341796900000001,0.9899902349999999,0.49997635148676717,0.49998814240759487,0.4999925390665136,54.6,4.95,97.05,0.10864258000000002,0.42260742,0.8215332049999999,0.5000625520767927,0.49996489357476076,0.4999894081203684,58.95,17.85,30.75
0.03002929499999999,0.477783205,0.39135742,0.49992026114246413,0.5000596209708469,0.500006728157,3.45,23.7,22.65,0.64160156,0.5241699200000001,0.995117185,0.4999908736733413,0.5000068614128884,0.5000114579120064,54.3,6.9,95.55,0.10620116999999998,0.419433595,0.811523435,0.5000710122112759,0.49996642571204464,0.5000130566336013,57.0,16.95,31.95
0.021728515000000014,0.47631836,0.37402344,0.4999174632051403,0.5000572894727656,0.5000161875797464,4.65,23.1,22.8,0.62548828,0.5168457049999999,0.994628905,0.4999762182308788,0.5000057955403142,0.5000079938697736,52.65,6.3,95.1,0.09716797000000002,0.423828125,0.8190917950000001,0.5000101921992328,0.4999682243611053,0.5000139892502871,57.0,16.95,31.95
0.01635741999999999,0.47314452999999995,0.36230469,0.4999397128369776,0.500022715896547,0.5000407021253541,3.6,22.65,23.85,0.62890625,0.5061035150000001,1.01928711,0.4999982680225168,0.49999993341568905,0.49999820135093936,52.65,6.3,95.1,0.080078125,0.41333008,0.8669433599999999,0.500028777948638,0.49994684076164275,0.5000233820887224,57.3,16.65,31.95
0.011230470000000025,0.46875,0.357666015,0.4999201944708867,0.5000383039556954,0.5000236485132329,3.6,22.65,23.85,0.61816406,0.486572265,1.02319336,0.5000090597423477,0.500024048280898,0.4999962695332568,53.85,8.4,96.6,0.06665039000000002,0.38598633,0.8811035150000001,0.5000635512777895,0.4999140658344848,0.4999748192622168,56.7,16.35,32.1
0.011962890000000016,0.46826172000000005,0.35131836,0.4999406454536634,0.5000319088947831,0.5000145888581515,3.3,21.6,23.85,0.619628905,0.459960935,1.040771485,0.5000256470024929,0.49996649238362206,0.4999531025666666,52.8,6.9,94.8,0.05590820500000001,0.362060545,0.8747558599999999,0.5001454218804737,0.4998813575789043,0.49999187287433805,57.6,16.95,32.25
0.004394529999999975,0.466796875,0.360595705,0.4999838790045646,0.50001072513552,0.5000341738085534,4.2,22.95,23.25,0.6267089849999999,0.443603515,1.010742185,0.5000295773094354,0.49997035601898715,0.49991713019631895,55.2,7.05,96.15,0.05444335999999998,0.364990235,0.8522949200000001,0.5001759318938613,0.4997936247643284,0.4999842121006523,57.45,16.8,31.35
0.010253904999999975,0.46044922,0.38647461,0.49999267232240197,0.4999788162407368,0.5000290443731483,3.0,23.1,23.85,0.6091308599999999,0.45800781,0.9855957049999999,0.5000524264618708,0.49992918762892347,0.4998954135007687,52.8,5.4,95.25,0.09667969,0.37915039,0.8479003900000001,0.5001635413651692,0.49978356582098393,0.5000084602217496,56.55,18.0,31.95
0.015380859999999984,0.46166992,0.400634765,0.4999976018303413,0.5000041968187193,0.5000234486730334,3.0,23.1,23.85,0.630859375,0.49169922000000005,0.9782714849999999,0.5000892649518597,0.4999165972600319,0.4998789594092456,54.0,6.3,94.35,0.10595702999999998,0.423583985,0.8420410150000001,0.5001558139199059,0.49986037365984043,0.5000310428624083,56.25,17.4,31.2
0.030761720000000024,0.455322265,0.423339845,0.5000191186856922,0.499975951719102,0.5000144556022632,3.3,23.1,23.1,0.647460935,0.5283203150000001,0.978515625,0.500120307814268,0.4998876194711946,0.4998598407235534,52.8,8.1,94.8,0.13330077999999998,0.450683595,0.8405761700000001,0.5001280352595312,0.499919728206177,0.5000091929982361,56.25,17.4,31.2
0.029296875,0.458496095,0.42529297,0.5000712121387417,0.4999477733783286,0.5000520934530495,2.55,22.65,22.8,0.658203125,0.560058595,0.96826172,0.5001286347801293,0.49988815240748163,0.4998720979963572,52.8,8.1,94.8,0.13720702999999998,0.48193359500000005,0.841796875,0.5000946608117751,0.4999650934149601,0.5000054624442265,56.4,18.3,32.1
0.04443359500000003,0.45800781,0.43383789,0.5000468307617559,0.4999606301717304,0.5000329747673573,3.75,23.25,23.25,0.6569824200000001,0.58203125,0.9645996099999999,0.5001354961930177,0.49991466535508283,0.4999108017197177,52.8,6.15,96.3,0.14697265499999998,0.49511719,0.8469238299999999,0.5001000566716907,0.4999389800604912,0.4999952036606826,56.4,18.3,32.1
0.046875,0.46533203,0.42138672,0.5000589548659379,0.4999780168799394,0.5000076607736857,2.4,22.95,21.9,0.6569824200000001,0.59326172,0.953125,0.5001037871384338,0.4999112014001164,0.4999175298767177,53.1,6.6,95.55,0.17260741999999998,0.5114746099999999,0.8288574200000001,0.5001193751975822,0.4998588415225566,0.4999970688940542,55.8,18.75,34.05
0.03808593999999999,0.48461914,0.41088867,0.500070945626965,0.4999564333530111,0.5000754088701945,2.4,22.95,21.9,0.65576172,0.61376953,0.928222655,0.5000881324949745,0.4999499717077879,0.49995117074898404,53.7,8.25,96.45,0.18090820500000002,0.5153808599999999,0.8125,0.5001215735270416,0.49987829330433653,0.499980015281933,56.4,18.6,32.4
0.0234375,0.48925781,0.39868164,0.500022049791638,0.499970689115075,0.5000563568560799,2.25,20.85,23.1,0.64111328,0.599609375,0.932128905,0.500054091855043,0.49993411713686275,0.49998081472999684,53.85,9.15,96.0,0.181640625,0.509765625,0.8127441400000001,0.5001361622979267,0.4998870199505965,0.49998740963110844,57.45,19.35,32.4
0.0026855449999999906,0.49609375,0.396728515,0.4999986010313381,0.49996396095807494,0.500052826229536,2.25,23.1,24.6,0.681152345,0.6071777349999999,0.952148435,0.5000413016459521,0.4999141990903732,0.4999783498887607,53.1,8.85,96.0,0.17871093999999998,0.49536133,0.814941405,0.5000947940676636,0.49994304362332215,0.4999898078007671,55.35,17.1,32.1
-0.00024414000000001578,0.5056152349999999,0.40673828,0.4999992672235135,0.4999140658344848,0.5000612197797082,3.3,21.6,24.6,0.6760253900000001,0.5925292950000001,0.9689941400000001,0.4999996669039123,0.49993411713686275,0.5000020650735709,53.85,7.65,95.25,0.17211914,0.48046875,0.8112792950000001,0.5000369050742999,0.49999094025765234,0.49996542651104786,55.35,17.1,32.1
0.01171875,0.51953125,0.416259765,0.4999810811545071,0.4999469073459537,0.5000172534523206,3.3,21.6,24.6,0.678222655,0.575683595,0.9611816400000001,0.49997242109255813,0.499962561989413,0.5000385704674721,53.85,7.65,95.25,0.16162109500000002,0.46191406,0.7893066400000001,0.5000100589433445,0.5000281784280399,0.49996609261595687,56.4,17.55,33.9
0.021240234999999986,0.5341796900000001,0.41040039,0.499957232801075,0.4999722879239362,0.4999788162407368,2.7,21.75,22.95,0.65283203,0.5441894549999999,0.9514160150000001,0.49994817305872724,0.5000062618922902,0.5000110582316077,53.85,6.9,96.3,0.138916015,0.45239258,0.8073730450000001,0.49996156278841625,0.5000164540915232,0.5000031309461451,56.4,17.55,33.9
0.02661133000000001,0.525878905,0.40185547,0.49995623351281177,0.4999630283413891,0.49995929787464594,3.15,23.25,23.25,0.65185547,0.5339355450000001,0.9714355450000001,0.4999632947658995,0.5000317756388947,0.5000078606138851,53.7,7.05,95.4,0.11572265499999998,0.43798828,0.8415527349999999,0.4999472404420415,0.5000143223463748,0.49998641043011166,55.2,17.4,34.35
0.02465820500000001,0.4921875,0.392822265,0.49993558268983573,0.5000295107251244,0.49990274117836675,1.8,22.35,23.55,0.6252441400000001,0.5236816400000001,1.006103515,0.49998041504959817,0.5000461646568469,0.5000089264864593,51.9,7.5,96.45,0.08935547000000002,0.41821289,0.8923339849999999,0.4999640275423859,0.5000021983294594,0.4999914731939394,55.2,16.95,32.55
0.005859375,0.45263672,0.393310545,0.4999149984511706,0.5000292443006141,0.49990587212451193,2.4,22.5,24.0,0.6184082049999999,0.505126955,1.02758789,0.499963894373764,0.49996262866099045,0.4999825467074801,51.9,7.5,96.45,0.05859375,0.42480469,0.90234375,0.5000632181817017,0.49993864705166985,0.5000203177268884,56.55,17.4,31.5
-0.01049804499999999,0.42651367,0.400634765,0.5000022649137703,0.5000273123956651,0.4999327182554673,2.4,22.5,24.0,0.610839845,0.486572265,1.00854492,0.4999611631080176,0.4999170635247415,0.4999907404174529,54.3,6.6,96.0,0.0546875,0.420166015,0.8747558599999999,0.5000891982802823,0.4998347932416586,0.5000674150004211,55.5,17.4,33.75
-0.024169920000000046,0.436279295,0.412109375,0.500035506105638,0.5000349731693509,0.4999783498887607,3.0,23.85,24.15,0.624023435,0.48193359500000005,0.9836425799999999,0.49994943877150083,0.4999170635247415,0.50000872664626,55.2,6.75,96.15,0.10791015499999998,0.432373045,0.8527832049999999,0.5000748759339075,0.4998464509938644,0.5000739433172217,55.5,17.4,33.75
-0.0007324199999999905,0.47338867,0.41845703,0.5000818040183733,0.5000722113397384,0.49995063781269694,3.3,21.6,23.55,0.6525878900000001,0.487060545,0.975097655,0.4999904739929426,0.4999117343364035,0.49997162173176074,55.2,6.75,96.15,0.13696289,0.45751953,0.8708496099999999,0.5000391699880702,0.49991246711288995,0.500098857543228,55.65,19.35,32.4
0.0009765649999999937,0.5080566400000001,0.434570315,0.5000635512777895,0.500099723575603,0.49994470901649435,3.3,22.65,23.85,0.67529297,0.508789065,0.9699707049999999,0.500071411978941,0.4999213935993493,0.499950571228386,53.1,6.6,96.3,0.14135741999999998,0.471435545,0.880859375,0.4999995336480239,0.49997248776413555,0.5000893982077481,54.6,17.85,32.4
0.009765625,0.485595705,0.444091795,0.5000516271010734,0.5000612197797082,0.49993758117909565,3.3,22.65,23.85,0.712890625,0.5466308599999999,0.9855957049999999,0.5001498851237034,0.4998891516084784,0.49995430169512917,52.95,7.5,96.15,0.15380859500000002,0.486083985,0.877929685,0.5000106584639425,0.5000384372115838,0.500082869803681,54.6,17.85,32.4
0.0029296899999999935,0.440429685,0.44458008,0.5000480964745295,0.500033973968354,0.49990234149796803,3.3,22.35,24.6,0.7297363299999999,0.60205078,0.9958496099999999,0.5001326316713828,0.49988455510936036,0.4999699563385885,51.9,7.05,95.7,0.15942383000000002,0.50390625,0.874023435,0.500044099583276,0.4999843453565407,0.50007880624085,56.4,17.1,32.4
0.00048827999999997475,0.420410155,0.438964845,0.5000203843984657,0.5000397695086682,0.4999207274071738,2.4,23.25,21.9,0.717285155,0.616210935,0.9782714849999999,0.5001160444112377,0.49990707116570804,0.499973287124933,51.9,7.05,95.7,0.17309570500000002,0.506835935,0.8532714849999999,0.5000807381457991,0.4999922725547368,0.5000646837346746,56.4,17.1,32.4
-0.008300779999999975,0.419677735,0.40600586,0.5000417014136173,0.4999907404174529,0.5000056622844258,1.35,21.75,23.25,0.7219238299999999,0.62207031,0.9753417950000001,0.5000713453073636,0.4999503713881866,0.5000099256874561,53.4,6.3,95.4,0.16333008000000002,0.47705077999999995,0.853515625,0.5000834694115456,0.4999968690538548,0.5000506944843875,54.9,18.6,31.05
-0.019287109999999986,0.455078125,0.377197265,0.500015388218949,0.4999756852945917,0.5000614862042185,1.5,22.65,23.25,0.7067871099999999,0.6018066400000001,0.989746095,0.5000349065850399,0.49998274654767944,0.5000043966589187,53.4,8.25,95.4,0.158447265,0.46826172000000005,0.8493652349999999,0.5001189755171835,0.5000143223463748,0.5000573560570766,56.25,17.4,33.0
-0.038330079999999954,0.49365234500000005,0.36328125,0.499979882113311,0.49996835761699365,0.5000832694840798,1.5,22.65,23.85,0.6843261700000001,0.56591797,0.9719238299999999,0.49999840119113875,0.5000225827279251,0.5000260466828915,51.9,7.5,95.4,0.13964843999999998,0.45239258,0.8552246099999999,0.5001753322859969,0.5000168537719218,0.5000603537473334,54.3,18.6,33.45
-0.03613281500000005,0.5,0.35546875,0.4999642273825852,0.4999262565229777,0.5000599540669347,1.5,22.65,23.85,0.6516113299999999,0.532714845,0.96923828,0.5000183193248948,0.5000767411672791,0.5000123238571148,51.9,7.5,95.4,0.12792968999999998,0.439453125,0.825683595,0.5001803950498246,0.5000377044350973,0.5000357726174147,55.65,19.05,32.85
-0.031005859999999986,0.47705077999999995,0.36254883,0.49993991267717697,0.4998946807242823,0.5000339073840431,2.1,22.95,22.95,0.64550781,0.52294922,0.9714355450000001,0.5000291110447257,0.5000590880345598,0.5000197182062902,51.6,7.8,95.1,0.123046875,0.439697265,0.80078125,0.5001620092278852,0.5000632181817017,0.5000012657127736,55.5,19.5,31.5
-0.008056640000000016,0.43847656,0.365966795,0.4999106684638293,0.49989581318116744,0.49999980015980067,3.3,23.1,23.1,0.616210935,0.5134277349999999,0.9609375,0.5000772741035662,0.5001041202345216,0.4999946707243955,52.65,8.25,95.7,0.13598633000000002,0.455322265,0.7839355450000001,0.5001413583176427,0.500042634030303,0.5000143889306857,54.6,19.05,32.4
0.007568359999999984,0.39477539,0.375976565,0.49993118603091696,0.49987522894250236,0.5000375045948979,3.45,22.2,23.7,0.5930175799999999,0.5300292950000001,0.9279785150000001,0.5000838024203668,0.500144489263788,0.4999731538690446,51.9,6.3,95.7,0.13623047000000002,0.482421875,0.7751464849999999,0.5001499517952808,0.5000161209954355,0.5000096592629458,54.6,19.05,32.4
0.01049804499999999,0.411621095,0.36621094,0.4999557005765246,0.49992272589643383,0.5000492289314147,3.45,22.2,23.7,0.5900878900000001,0.552734375,0.9289550799999999,0.5001078507012648,0.5001629417573046,0.4999704892748756,51.9,6.3,95.7,0.13696289,0.490478515,0.7741699200000001,0.5000546914629076,0.4999831462280781,0.500042767198925,56.55,19.95,34.05
0.009521484999999984,0.46557617,0.37182617,0.4999818139309936,0.49996662555224397,0.5000644173101643,2.1,22.2,24.0,0.5983886700000001,0.5729980450000001,0.9777832049999999,0.500086933366512,0.5001041202345216,0.5000299104055231,53.1,6.9,95.25,0.10888672000000002,0.45751953,0.823242185,0.49996142953252787,0.5000242481210974,0.5000570229609889,55.8,20.25,31.5
0.02856445500000001,0.5080566400000001,0.37426758,0.49998294638787877,0.49997688442305427,0.5000778070398533,2.25,23.1,23.85,0.61279297,0.546875,1.036132815,0.5000522932932489,0.5000838024203668,0.5000317090545837,53.4,6.75,96.15,0.07006835999999998,0.431884765,0.9108886700000001,0.4999479065469505,0.4999437763998085,0.500053425750134,55.35,18.3,32.85
0.029785154999999976,0.5266113299999999,0.388183595,0.4999784831446491,0.5000337741281548,0.49998334606827743,3.0,21.6,23.1,0.6130371099999999,0.50097656,1.041748045,0.4999997335754897,0.5000254471622935,0.5000413683175295,53.1,8.1,95.55,0.05810547000000003,0.407714845,0.939941405,0.5000791393369378,0.49982613326697606,0.5000418345822393,55.8,17.7,33.0
0.02465820500000001,0.50463867,0.40258789,0.49992832159654865,0.5000840689321436,0.49994870599501434,2.25,22.65,23.55,0.6188964849999999,0.47802734500000005,1.03979492,0.49994770670675115,0.4999802151221323,0.5000550911433063,53.7,7.05,94.35,0.06079101500000002,0.40161133,0.885253905,0.5001508844119666,0.499770176091295,0.5000818040183733,54.9,20.55,32.4
0.02661133000000001,0.463134765,0.41699219,0.4999513040048724,0.5000624188209043,0.4999298537338325,2.25,22.65,23.55,0.6262207049999999,0.463378905,1.0288085949999999,0.4999464410812441,0.499931119446606,0.5000188522611819,54.0,9.0,94.35,0.06591797000000002,0.39013672,0.872558595,0.5001626753327943,0.4997789693218659,0.5000532924942456,55.5,19.95,33.75
0.03979491999999999,0.42651367,0.419677735,0.4999555007363253,0.5000586883541611,0.49993351761626476,3.15,24.0,24.3,0.6306152349999999,0.45629883,0.989746095,0.49997322054062204,0.499893081915421,0.5000085268060606,53.7,7.8,95.4,0.10571289000000002,0.403320315,0.8537597650000001,0.5001834594116588,0.4998315957112025,0.5000533590785566,55.5,19.95,33.75
0.04077148499999998,0.432128905,0.407470705,0.4999604303315311,0.500092129386228,0.4999375145075182,2.1,23.25,25.05,0.6328125,0.483154295,0.95361328,0.5000768744231675,0.49987056585907336,0.4999240581935183,53.7,7.8,95.4,0.15209961,0.43383789,0.837402345,0.5002447457756779,0.4999135328981977,0.5000182526533173,54.45,18.45,33.3
0.03344726500000002,0.467773435,0.411865235,0.49996575960713563,0.5000992573108932,0.49996036374722014,3.45,22.5,22.95,0.65673828,0.544921875,0.9582519549999999,0.5001816607625982,0.499884421853472,0.49992185986405896,52.95,8.25,95.4,0.173828125,0.467285155,0.823242185,0.5002709922987688,0.49995263630195697,0.5000110582316077,54.45,18.45,33.3
0.029296875,0.5095214849999999,0.40136719,0.5000073943491754,0.5000646171503637,0.4999961362773684,3.45,22.5,22.95,0.6657714849999999,0.59375,0.9375,0.5001933851863813,0.4998842886848501,0.4999056722843126,53.1,7.35,95.55,0.19042968999999998,0.474609375,0.8059082049999999,0.5003176233075919,0.499986676854622,0.4999646937345614,54.6,19.8,32.85
0.017578125,0.509765625,0.404541015,0.49996662555224397,0.5000718116593398,0.49998068147410846,3.6,24.15,23.55,0.6716308599999999,0.619140625,0.89013672,0.5001785299037195,0.49993884689186924,0.49990174197737003,53.55,8.85,96.0,0.22631836,0.485595705,0.767578125,0.5003360758011086,0.49999153977825034,0.499997401990142,55.5,20.25,32.25
0.013671875,0.49194336,0.41479492,0.4999221929601467,0.5000580221619856,0.49997994869762197,3.3,23.85,23.1,0.674316405,0.654296875,0.865722655,0.5000983246942075,0.49999946706371295,0.4999479065469505,53.55,8.85,96.0,0.258789065,0.48852539,0.7414550799999999,0.500289444879552,0.5000033307863445,0.4999344502329506,55.5,20.25,32.25
0.0068359399999999935,0.47705077999999995,0.40258789,0.49993458348883896,0.49997428641319624,0.49996156278841625,3.45,22.2,22.95,0.7067871099999999,0.646484375,0.8562011700000001,0.5000425007744147,0.5001312327899874,0.49997082237096335,54.45,8.25,95.1,0.275146485,0.48461914,0.7336425799999999,0.5002613331230894,0.5000409686371309,0.4999232588327209,55.65,21.15,32.1
-0.004394529999999975,0.475341795,0.400634765,0.49985171359789143,0.4999624288207911,0.500006728157,3.6,21.6,23.1,0.686523435,0.6369628900000001,0.8391113299999999,0.49996515999927105,0.5001950504922871,0.49997648465538913,54.0,9.0,94.35,0.28027344,0.47802734500000005,0.7185058599999999,0.5002239616968135,0.49999400461948645,0.4999276554043731,55.65,21.15,34.95
-0.0078125,0.50073242,0.400390625,0.49985211327829016,0.49996502683064914,0.5000567565364785,3.6,21.6,23.1,0.6813964849999999,0.6027832049999999,0.8264160150000001,0.49989028406536357,0.5003498652111963,0.49999114009785167,54.0,9.0,94.35,0.291503905,0.463867185,0.728027345,0.500226626378249,0.5000124571130031,0.4999223262160351,52.8,20.55,32.1
-0.00024414000000001578,0.5510253900000001,0.40161133,0.4998953468291913,0.4999515038450718,0.500040036020445,3.0,22.35,22.8,0.6848144549999999,0.5556640650000001,0.838378905,0.4998533124067527,0.5004408621405392,0.5000103254551213,54.45,7.5,93.6,0.268066405,0.462890625,0.74169922,0.5002310229499012,0.5000286446927495,0.4998932151713094,54.6,19.8,33.45
0.026855470000000024,0.5498046900000001,0.41015625,0.4999054724441132,0.5000290443731483,0.49997575187890264,2.25,23.4,23.55,0.62988281,0.5129394549999999,0.85595703,0.49979155969075745,0.5004519869564579,0.5000116577522058,52.8,6.9,94.5,0.24072265499999998,0.443603515,0.73925781,0.5002279586753334,0.5000594877149585,0.499933184520177,54.6,19.8,33.45
0.03564452999999997,0.5341796900000001,0.411865235,0.49988042496221846,0.5000959265245487,0.49990880323045767,2.1,22.5,22.95,0.64160156,0.452148435,0.87548828,0.49980714774990576,0.5005946110741406,0.499935116425126,55.65,8.4,93.45,0.22387695500000002,0.423583985,0.76220703,0.5001666056397369,0.500138360627386,0.49991040195205255,55.65,20.85,32.4
0.02661133000000001,0.483154295,0.385498045,0.49991906201400155,0.5001252373222074,0.4998986776155358,2.1,22.5,22.95,0.572753905,0.419921875,0.9699707049999999,0.4998915497781371,0.5004478568093159,0.49992372509743055,55.65,8.4,93.45,0.18872070500000002,0.42651367,0.831054685,0.5001682710329091,0.5001338307998454,0.49992858802105894,55.65,20.85,32.4
0.007568359999999984,0.42944336,0.381103515,0.49999267232240197,0.5001512840923653,0.499852912726354,1.8,23.4,23.1,0.616210935,0.387939455,0.998535155,0.4999116676648261,0.5003950972513574,0.4998804915465294,54.75,7.5,93.6,0.13989258000000002,0.412841795,0.850097655,0.5001856577411181,0.5000925957382042,0.49996955665818976,52.65,19.95,31.95
-0.008300779999999975,0.403564455,0.389404295,0.5000616860444178,0.5001921860579187,0.4999065383166874,2.55,23.1,23.55,0.57421875,0.41381836,0.990234375,0.4999592312030685,0.5002923759854978,0.4998544448636379,56.1,8.85,94.2,0.15551758000000002,0.41088867,0.86425781,0.5001983812786316,0.5000790061683159,0.5000147886983509,54.3,19.8,31.35
-0.01098633000000001,0.42602539,0.41455078,0.5001180429004977,0.5002428805423063,0.49990540585980225,1.5,23.4,23.85,0.53955078,0.47583008,1.0366210949999999,0.4998668353923301,0.5001047197551197,0.49984791654683725,56.1,7.35,94.5,0.15087890499999998,0.430664065,0.8371582049999999,0.5002157679868406,0.5001793292645169,0.4999928721626013,54.9,19.8,32.1
-0.013671875,0.48120117,0.442626955,0.5002236952723031,0.5002346202480225,0.49996869062581495,0.3,24.3,24.0,0.5754394549999999,0.41455078,0.9479980450000001,0.5000923958980048,0.5000616194601069,0.49976504674315625,57.75,6.75,93.6,0.135009765,0.48193359500000005,0.85498047,0.5002523399650527,0.5001997802472935,0.49999187287433805,54.6,21.6,31.35
0.014160154999999975,0.5114746099999999,0.46899414,0.5002073078523575,0.500271991587032,0.4999822802829697,0.3,24.3,24.0,0.674804685,0.529785155,0.9528808599999999,0.49990327411465385,0.5002531393258501,0.4998501814606076,57.0,8.55,94.35,0.166015625,0.5002441400000001,0.8298339849999999,0.5002709257144577,0.5001046531708088,0.5000088599021484,56.25,19.2,30.45
-0.00024414000000001578,0.5166015650000001,0.46948242,0.5002147021142664,0.5002663292153398,0.4999481064744163,1.65,21.75,21.9,0.6784667950000001,0.5146484400000001,0.942871095,0.5001314326301867,0.5001201079740686,0.49976104976463626,58.05,7.8,93.6,0.17504883000000002,0.49243164,0.8239746099999999,0.5003112281594132,0.500265396598654,0.5000181860690064,55.65,19.35,31.8
0.002197265000000016,0.487060545,0.474365235,0.5002177664761006,0.5002274923233573,0.4999261232670893,1.8,21.9,23.1,0.7917480450000001,0.61328125,0.9255371099999999,0.5000516936853844,0.5002598675701165,0.4997904939054497,58.05,7.8,93.6,0.18041991999999998,0.458251955,0.82080078,0.5003893682953543,0.5002285581959315,0.500015388218949,55.65,19.35,31.8
0.015136720000000025,0.44873047,0.46459961,0.5001833261557703,0.5002480099777115,0.4998426539428102,0.45,21.9,21.0,0.6999511700000001,0.5759277349999999,0.9465332049999999,0.5001111814876094,0.5001530826541595,0.49976491348726787,57.45,8.4,93.15,0.20336914,0.44165039,0.81689453,0.500450454819174,0.5002685942163765,0.5000165872601451,54.45,21.45,31.5
0.04028320500000001,0.427001955,0.45239258,0.5001619425563079,0.5002643973976572,0.4998762948150765,0.45,21.9,21.0,0.6491699200000001,0.561035155,0.91064453,0.5000202511425773,0.5002667955673159,0.4997391998131976,55.8,7.8,93.6,0.208740235,0.446533205,0.79736328,0.50049728558093,0.5002478101375121,0.5000407687969315,54.6,21.9,30.0
0.037109375,0.439941405,0.41845703,0.5001644739818549,0.5002691937369746,0.49993071976620734,0.3,22.95,21.6,0.6447753900000001,0.5422363299999999,0.89404297,0.49997648465538913,0.5003948307395807,0.4997374012514034,58.05,6.0,94.05,0.23193359500000002,0.451904295,0.783203125,0.500428405027536,0.5001993805668948,0.5000557572482153,55.2,20.25,29.85
0.022949220000000024,0.463867185,0.39770508,0.5001393599156492,0.5002888453589539,0.49995516772750404,-1.05,22.5,21.3,0.6418457049999999,0.5295410150000001,0.8762207049999999,0.4999508376528963,0.5004188790204787,0.49973939974066345,57.0,6.0,94.05,0.244628905,0.45385742,0.81298828,0.5004142825213606,0.5001320321507847,0.5000690138092824,55.2,20.25,29.85
0.017089845000000024,0.48364258,0.38696289,0.5001536822620241,0.5002675949281133,0.5000098591031451,-0.15,21.9,20.4,0.6511230450000001,0.513671875,0.869140625,0.4999403124448421,0.5004800988001868,0.49971595098036353,58.05,5.55,94.65,0.263183595,0.462402345,0.818359375,0.5004419945974243,0.5001197748779809,0.5000864004302249,55.8,21.75,29.85
0.011474609999999984,0.49658202999999995,0.390625,0.5001234387604131,0.500220564326158,0.5000221829602599,0.15,20.1,20.4,0.57373047,0.44873047,0.881835935,0.5000969257255454,0.5006790796866829,0.49964107504645605,58.05,7.05,93.3,0.22973633000000002,0.458984375,0.8347167950000001,0.5004395298434547,0.5002596010583398,0.50009152986563,55.35,21.9,27.9
0.015136720000000025,0.47583008,0.39770508,0.500091463281319,0.5002218966232426,0.4999934716831994,0.15,20.1,20.4,0.59765625,0.456054685,0.9157714849999999,0.5000059287962025,0.5006546983096972,0.4996620589655198,59.55,7.05,94.35,0.19946289,0.45336914,1.0034179699999999,0.5003669188233175,0.5003272825705376,0.500048895835327,55.35,21.9,27.9
0.024902345000000024,0.43261719,0.404296875,0.5000883989194849,0.5001597442268485,0.5000099256874561,0.15,20.1,20.4,0.6647949200000001,0.443115235,1.078125,0.5001482864021086,0.50047710110993,0.49960456965255484,59.55,7.05,94.35,0.10278320500000002,0.51513672,0.95410156,0.5002901776560384,0.5003023682572648,0.5000786730722281,55.8,21.0,27.75
0.060546875,0.377685545,0.420654295,0.5001278354193318,0.5001671385760239,0.49998481162125036,0.75,21.6,20.4,0.65234375,0.505126955,1.1635742199999999,0.5002101722867258,0.5003466010964291,0.4996088330555851,60.15,6.3,92.85,0.125,0.606933595,0.8889160150000001,0.5003600574104291,0.5001770643507466,0.5000145888581515,55.8,21.0,27.75
0.07714844,0.34423828,0.426757815,0.5001439563275007,0.5001749326055982,0.5000023981696587,-0.45,20.85,19.95,0.5725097650000001,0.5498046900000001,0.9992675799999999,0.5001545482071323,0.5002759218939746,0.49963208188841923,61.35,6.3,92.55,0.10888672000000002,0.6403808599999999,0.88378906,0.500192452482429,0.5003031677053287,0.5000042634030304,55.8,21.0,27.75
0.07763672000000002,0.34716797,0.39819336,0.5001799287851149,0.5001224394721498,0.5001177763887209,1.8,21.9,20.7,0.6105957049999999,0.630371095,1.0385742199999999,0.5002039770660129,0.5002009792884897,0.4996778468648675,60.9,6.0,93.3,0.064453125,0.6770019549999999,1.002197265,0.5000303767574993,0.5004262066980767,0.5000007327764865,56.4,21.9,28.95
0.06640625,0.373046875,0.364746095,0.5001934517706923,0.500002598009858,0.5002017120649761,1.8,21.9,20.7,0.6433105450000001,0.6511230450000001,1.1147460949999999,0.5002712588105456,0.5001681378642872,0.4997281416688564,60.9,6.0,93.3,0.03149414000000002,0.73535156,1.01928711,0.5001240382810113,0.5004251409127689,0.5000071945089761,56.1,23.1,27.15
0.05151366999999999,0.40600586,0.35986328,0.5001605436749124,0.49989234913893454,0.5002903108246604,-1.35,21.0,19.8,0.6379394549999999,0.693847655,1.063476565,0.5002480099777115,0.5001209740064435,0.4998107450480271,63.15,6.0,93.6,0.021240234999999986,0.7302246099999999,0.93701172,0.5002669288232043,0.5003374080981932,0.500031442542807,56.55,21.75,27.75
0.03784179499999999,0.440185545,0.350097655,0.5000945941401977,0.4997235451697383,0.5003794426078981,-1.05,20.7,21.9,0.60644531,0.6926269549999999,1.02758789,0.5002070413405807,0.5000451653685837,0.49982733230817217,64.35,6.6,92.4,0.04077148499999998,0.670898435,0.92138672,0.5002408820530463,0.5002161676672393,0.5000858009096268,56.1,22.65,25.8
0.041015625,0.482177735,0.353027345,0.5000417679979283,0.4995264961881912,0.5004757021412681,-0.3,19.95,20.55,0.6008300799999999,0.703125,1.01855469,0.5002611998672011,0.5000436998156108,0.4998394563250876,64.35,6.6,92.4,0.04858398499999998,0.5930175799999999,0.92626953,0.5002735237243159,0.5000834027399681,0.5001092495826603,56.1,22.35,25.8
0.08715820500000002,0.5329589849999999,0.404052735,0.4999025413381674,0.4994358322676696,0.5004674417597178,-0.6,21.45,19.2,0.5380859400000001,0.7297363299999999,0.974609375,0.5002224961438405,0.49981427567457093,0.4998938146919074,62.85,7.65,93.15,0.10473633000000002,0.513671875,0.9025878900000001,0.5002461447443398,0.4999990673833142,0.5000896646322585,57.6,21.45,26.7
0.12060547000000002,0.5769042950000001,0.46508789,0.4998289977013444,0.4994077205112071,0.5004744364284945,-0.6,21.45,19.2,0.59375,0.713867185,1.0390625,0.500161009939622,0.4998358591142328,0.4998657695197559,61.8,7.65,92.7,0.13403320500000002,0.462402345,0.8981933599999999,0.5002679280242011,0.4999858109095136,0.5000474969539315,57.6,21.45,26.7
0.158203125,0.62207031,0.47241211,0.4997220796167654,0.4993711485329949,0.5004396630993431,-0.45,21.15,22.05,0.5979003900000001,0.6833496099999999,0.96972656,0.5000839356762552,0.5000222496318373,0.49986270524518817,62.85,7.65,93.45,0.15576172000000002,0.455078125,0.8977050799999999,0.5001879226548884,0.4998877526398165,0.5000279785878405,57.15,23.1,25.8
0.16137695500000002,0.624023435,0.48852539,0.49960856663107484,0.4994219762732709,0.5003605903467163,0.75,21.6,21.45,0.5944824200000001,0.6472167950000001,0.94482422,0.4999977350862297,0.49998934153605745,0.4998497151958979,62.85,7.65,93.45,0.17480468999999998,0.45336914,0.8732910150000001,0.5002215635271547,0.4997979548389362,0.49994963861170016,57.15,23.1,25.8
0.13134765499999998,0.572265625,0.524902345,0.4995525428710827,0.4994774670969759,0.5002347534166444,1.35,21.0,21.6,0.588867185,0.6428222650000001,0.970703125,0.499968624041504,0.4999750191024162,0.49982506739440186,61.5,8.1,93.15,0.205078125,0.483154295,0.8708496099999999,0.50028804591089,0.49965626342520564,0.49990487292351515,56.4,23.1,25.35
0.10693359500000002,0.53466797,0.5354003900000001,0.4995686638665182,0.4995328246647925,0.5001280352595312,1.35,21.0,21.6,0.5979003900000001,0.6340332049999999,0.9533691400000001,0.49994963861170016,0.4999134663138867,0.499770775611893,61.95,8.25,92.85,0.197265625,0.5212402349999999,0.869140625,0.5003511975082808,0.4997157511401642,0.49986203905301274,55.35,21.9,26.1
0.08422851500000002,0.5358886700000001,0.506835935,0.4995868499355246,0.49963621212282766,0.500062751916992,2.1,22.95,22.65,0.6071777349999999,0.62988281,0.967285155,0.4999145321864609,0.49994284378312276,0.4997997534007303,61.95,6.3,91.8,0.16870116999999998,0.5187988299999999,0.84863281,0.5003697833449523,0.4998099455999632,0.49985644335289786,57.15,23.85,26.1
0.025390625,0.5607910150000001,0.487304685,0.49963781084442244,0.49970502600464417,0.5000564234403908,3.0,24.6,23.1,0.595214845,0.635253905,0.966308595,0.49990260792247837,0.4999849448771388,0.4997869632789058,61.95,6.3,91.8,0.15258789,0.52685547,0.82519531,0.5003520635406556,0.49990487292351515,0.49981241044119934,56.7,22.35,26.1
