IMU1_AccX,IMU1_AccY,IMU1_AccZ,IMU1_GyrX,IMU1_GyrY,IMU1_GyrZ,IMU1_MagX,IMU1_MagY,IMU1_MagZ,IMU2_AccX,IMU2_AccY,IMU2_AccZ,IMU2_GyrX,IMU2_GyrY,IMU2_GyrZ,IMU2_MagX,IMU2_MagY,IMU2_MagZ,IMU3_AccX,IMU3_AccY,IMU3_AccZ,IMU3_GyrX,IMU3_GyrY,IMU3_GyrZ,IMU3_MagX,IMU3_MagY,IMU3_MagZ
0.029541015000000014,0.5505371099999999,0.415527345,0.5000472304421547,0.5000065283168006,0.4999541684392408,0.3,29.55,20.55,0.5886230450000001,0.5490722650000001,0.998046875,0.49997961560153426,0.4999449755282711,0.4999216600238596,61.8,10.65,93.75,0.135009765,0.49145508,0.8068847650000001,0.500056023759992,0.5000158544836586,0.4999887419281929,57.45,20.85,28.2
0.0234375,0.5466308599999999,0.41015625,0.5000521600373604,0.5000067948285775,0.49996682539244336,0.15,29.4,21.75,0.6081542950000001,0.573242185,0.9968261700000001,0.5000124571130031,0.49999187287433805,0.49994684076164275,61.5,9.6,94.2,0.13818359500000002,0.498046875,0.815429685,0.5000389035635598,0.5000269792995773,0.4999877427271962,56.55,18.0,28.05
0.012695314999999993,0.5461425799999999,0.39086914,0.500088865271461,0.500000066584311,0.49996416079827427,0.0,29.55,21.75,0.6013183599999999,0.584472655,1.00878906,0.5000049961795168,0.4999778170397401,0.4999497051960111,61.35,9.6,93.45,0.118164065,0.50097656,0.8205566400000001,0.5000097925188342,0.5000304433418102,0.49999160644982776,57.45,18.6,28.95
-0.0009765600000000063,0.5439453150000001,0.38623047,0.5000590880345598,0.5000219831200605,0.4999770175916762,0.0,29.55,21.9,0.5983886700000001,0.580566405,1.010742185,0.50000872664626,0.5000017986490606,0.49995250304606853,61.35,10.05,94.05,0.10375976500000002,0.48510742,0.8312988299999999,0.5000121906884929,0.5000472304421547,0.4999977350862297,57.45,18.6,28.95
-0.009765625,0.5476074200000001,0.37451172,0.5000871332067113,0.4999676914248182,0.49998734304679743,0.0,29.55,21.9,0.5827636700000001,0.5705566400000001,0.99951172,0.500002131657882,0.50000472966774,0.4999509043244737,61.35,10.05,94.05,0.10229491999999998,0.48583984500000005,0.827148435,0.5000273789799761,0.5000235819289219,0.499988608759571,57.0,18.45,28.05
-0.010009765000000016,0.5456542950000001,0.36669922,0.5000881990792855,0.49994231084683566,0.49997035601898715,-0.45,28.65,21.0,0.5749511700000001,0.5695800799999999,1.0024414050000001,0.4999990007990032,0.500009259582547,0.4999472404420415,61.05,8.85,93.15,0.10083008000000002,0.4765625,0.818359375,0.5000528928138469,0.5000151883787497,0.5000097925188342,57.0,18.45,28.05
0.004150390000000016,0.5520019549999999,0.369628905,0.5000589548659379,0.4999684242013046,0.49997022285036524,-0.3,28.8,20.55,0.5593261700000001,0.56738281,0.9924316400000001,0.5000003996803987,0.4999831462280781,0.49996575960713563,61.8,9.9,92.4,0.08666991999999998,0.46411133,0.8132324200000001,0.5000686141288837,0.4999854111418484,0.5000148552826619,57.6,18.75,28.35
0.017333984999999986,0.5546875,0.368164065,0.5000932618431132,0.49993951299677825,0.49997894949662525,0.6,28.8,22.35,0.55859375,0.568359375,0.9899902349999999,0.499984678365362,0.5000085933903716,0.4999764180710781,61.5,9.6,91.65,0.09716797000000002,0.4453125,0.821777345,0.500050827740276,0.49997628481518974,0.5000184524935167,58.05,19.5,29.1
0.027099609999999986,0.560546875,0.380126955,0.5000838690919442,0.4999593644589569,0.4999690903934801,-0.45,28.65,21.0,0.5554199200000001,0.5651855450000001,0.9958496099999999,0.4999880758232839,0.4999932051714226,0.49996849078561556,62.4,8.55,94.35,0.09765625,0.447509765,0.81298828,0.5000432335509012,0.49998068147410846,0.5000223162161483,58.5,20.85,28.2
0.03051758000000001,0.55126953,0.381591795,0.5000536255903334,0.5000073943491754,0.4999481064744163,-0.45,28.65,21.0,0.552246095,0.56640625,0.99267578,0.4999857442379362,0.49998081472999684,0.49996962324250077,62.55,9.15,94.5,0.09228515499999998,0.43774414,0.826171875,0.5000510941647862,0.500006062052091,0.4999472404420415,57.45,20.1,28.65
0.03759765499999997,0.5478515650000001,0.381103515,0.5000079938697736,0.5000154548032599,0.49996196246881497,0.15,29.4,21.75,0.5510253900000001,0.5695800799999999,0.9929199200000001,0.4999600972354434,0.49999527033226004,0.4999502381322982,61.65,9.75,94.05,0.09521484500000002,0.432128905,0.82470703,0.5000393032439586,0.49994444259198406,0.4999547679598389,57.45,20.1,28.65
0.018066404999999976,0.5458984400000001,0.373291015,0.500038104115496,0.5000067948285775,0.49999034073705423,0.45,28.95,21.45,0.56591797,0.56201172,1.0131835949999999,0.49995623351281177,0.49998234686728066,0.49995636676870014,61.65,9.75,94.05,0.10009765499999998,0.434814455,0.8269042950000001,0.5000415015734179,0.49992265922485635,0.49994244410272404,58.2,19.35,28.65
-0.0009765600000000063,0.5322265650000001,0.379882815,0.5000172534523206,0.5000376378507864,0.49994943877150083,-1.05,29.55,19.5,0.57910156,0.54248047,1.02709961,0.49995536756770337,0.5000059953805135,0.4999499050362105,59.85,10.05,92.85,0.09741210999999998,0.443603515,0.8361816400000001,0.500056023759992,0.4999385803800924,0.4999330512642886,57.45,17.85,28.65
-0.0068359350000000065,0.5270996099999999,0.37133789,0.5000054624442265,0.5000357059458373,0.4999916730341387,-1.05,29.55,19.5,0.5852050799999999,0.5432128900000001,1.0170898449999999,0.49993831395558214,0.49999753524603036,0.49996609261595687,61.35,10.8,93.3,0.11254883000000002,0.4453125,0.8342285150000001,0.5000753422858836,0.49993884689186924,0.49994484227238273,57.45,17.85,28.65
-0.007080080000000009,0.5263671900000001,0.368164065,0.500035506105638,0.49997022285036524,0.5000163874199458,-0.15,27.9,21.0,0.579589845,0.53515625,1.00415039,0.49996182921292653,0.49999726873425354,0.4999561669285008,62.25,6.9,92.4,0.10668945500000002,0.45727539,0.83251953,0.5000821370271946,0.49992372509743055,0.4999476401224402,56.4,20.85,28.2
-0.007324220000000025,0.5417480450000001,0.380859375,0.500006661572689,0.4999890750242807,0.5000008660323748,-0.45,28.95,20.4,0.5910644549999999,0.5354003900000001,0.99951172,0.4999662924561562,0.499984678365362,0.4999453752086699,62.25,6.9,92.4,0.11791991999999998,0.4609375,0.8215332049999999,0.5001099157748358,0.499921793279748,0.4999548346314163,56.4,20.85,28.2
0.009277345000000025,0.552246095,0.385009765,0.49999313858711164,0.49995170368527114,0.4999970688940542,-0.15,28.2,20.4,0.580078125,0.5354003900000001,0.9938964849999999,0.4999838790045646,0.4999780834642504,0.4999213935993493,60.45,9.15,93.45,0.11181640499999998,0.463134765,0.8200683599999999,0.5001006561922887,0.4999607634276188,0.499944509176295,57.6,19.5,29.1
0.02661133000000001,0.55126953,0.384033205,0.500016054323858,0.4999383805398931,0.500000066584311,1.05,28.05,20.55,0.577148435,0.5412597650000001,0.9978027349999999,0.49999800151074,0.4999880758232839,0.49992632310728863,61.95,8.25,94.05,0.10986327999999998,0.466552735,0.8239746099999999,0.500099723575603,0.4999675581689298,0.4999680911052169,58.2,19.35,29.7
0.02075195500000001,0.5478515650000001,0.390625,0.5000098591031451,0.4999851447173381,0.49998734304679743,1.05,28.05,20.55,0.577148435,0.55126953,0.994628905,0.4999885420879936,0.4999962029489458,0.49992272589643383,61.95,8.25,94.05,0.10839844,0.46484375,0.834960935,0.5001127802092041,0.49996515999927105,0.4999417113262376,58.2,19.05,28.95
0.023925779999999976,0.5407714849999999,0.397216795,0.5000089930707703,0.5000278453319522,0.4999870099507097,0.75,28.2,21.75,0.571777345,0.5554199200000001,1.00073242,0.5000054624442265,0.49997708426325366,0.49992618985140025,61.5,9.6,92.4,0.10961914000000002,0.46801758,0.83203125,0.5001281018438422,0.4999597641393556,0.49996489357476076,56.7,17.85,29.25
0.021972654999999976,0.5419921900000001,0.385498045,0.5000233820887224,0.49999153977825034,0.4999870099507097,0.75,28.95,21.45,0.5681152349999999,0.548828125,1.00073242,0.49999007431254394,0.4999988009588039,0.4999211270875725,62.55,9.15,93.45,0.09765625,0.458984375,0.8400878900000001,0.5001412251490208,0.4999459747292679,0.4999666922238214,56.7,17.85,29.25
0.014160154999999975,0.5478515650000001,0.388183595,0.500033507616378,0.5000269127152663,0.49998361258005425,0.0,28.8,21.6,0.58544922,0.55517578,1.0141601550000001,0.49999726873425354,0.4999880091517065,0.49992292573663316,61.05,9.15,92.7,0.111328125,0.447021485,0.84423828,0.5001209740064435,0.4999195283659777,0.4999742197416188,56.55,19.2,29.4
0.001953125,0.5529785150000001,0.385253905,0.5000442327518979,0.5000221829602599,0.5000243147054083,0.0,28.8,21.6,0.5900878900000001,0.5490722650000001,1.021240235,0.49998927486448,0.4999476401224402,0.4999126002815119,61.05,9.15,92.7,0.110351565,0.455322265,0.8542480450000001,0.5001301003331021,0.4999174632051403,0.49999367152339874,56.55,19.2,29.4
-0.0014648450000000254,0.5595703150000001,0.392333985,0.5000531592383572,0.4999818139309936,0.5000377710194083,-0.6,28.8,22.95,0.60107422,0.5556640650000001,1.009765625,0.49996023049133176,0.4999469073459537,0.4999135328981977,61.95,8.55,92.85,0.118164065,0.442626955,0.84863281,0.5001245046329873,0.4999038736352519,0.4999766179112775,57.45,18.3,29.7
0.0068359399999999935,0.552734375,0.40527344,0.5000233820887224,0.4999876761428852,0.49996749158461884,-0.15,27.45,21.75,0.5930175799999999,0.537109375,1.00854492,0.4999723545082472,0.4999677580091291,0.49992372509743055,61.8,8.85,94.5,0.119140625,0.447998045,0.84716797,0.5001393599156492,0.4999026745940558,0.49996782468070655,57.6,21.0,29.85
0.02221679499999999,0.56201172,0.407714845,0.50001945178178,0.49999593643716905,0.4999692902336795,-1.05,27.75,21.6,0.6008300799999999,0.528808595,0.99609375,0.49997655132696656,0.49998587749382456,0.49992146018366024,61.8,8.85,94.5,0.13598633000000002,0.450927735,0.8352050799999999,0.5001372947548118,0.4999147986109712,0.5000029976902568,57.15,18.6,30.0
0.027587890000000014,0.5505371099999999,0.41455078,0.5000475635382424,0.49999393794790903,0.4999849448771388,0.45,27.9,21.0,0.5944824200000001,0.5432128900000001,0.982421875,0.49998347932416587,0.500028711364327,0.4998940145321068,62.4,9.0,92.25,0.12597656499999998,0.453125,0.85107422,0.5001781968076318,0.499897145478252,0.5000078606138851,57.45,19.05,29.25
0.026855470000000024,0.55029297,0.40917969,0.5000388368919825,0.4999788828250478,0.499977284103453,0.45,27.9,21.0,0.588867185,0.533203125,0.9841308599999999,0.4999916730341387,0.4999860773340239,0.49988648701430943,61.95,9.0,93.3,0.14208984500000002,0.450683595,0.838378905,0.5001716684035645,0.49992479097000475,0.49999500382048323,57.9,18.6,30.0
0.021972654999999976,0.548828125,0.40551758,0.5000335742879554,0.4999988009588039,0.4999648269904498,-0.6,27.3,20.85,0.5769042950000001,0.53515625,0.9943847650000001,0.4999997335754897,0.4999802151221323,0.49986370444618494,60.15,9.0,93.3,0.134765625,0.45288086,0.8342285150000001,0.500173733564402,0.499955234311815,0.4999820803555039,58.05,19.2,28.8
0.018066404999999976,0.5339355450000001,0.396484375,0.500052826229536,0.4999642940541627,0.49999153977825034,-0.6,28.5,21.6,0.5900878900000001,0.5490722650000001,0.987304685,0.5000365053939012,0.5000239150250096,0.4998788928249346,60.15,9.0,93.3,0.142333985,0.458740235,0.8527832049999999,0.5001927189942058,0.49995823200207173,0.5000078606138851,58.05,19.2,28.8
0.006103515000000016,0.53466797,0.38964844,0.5000592212904482,0.4999814808349059,0.499988608759571,1.2,28.2,20.4,0.6008300799999999,0.5451660150000001,1.0078125,0.5000496952833908,0.5000078606138851,0.49986770133743846,60.9,9.0,93.3,0.12744140499999998,0.46044922,0.8503417950000001,0.5001945176432665,0.4999847450369394,0.4999890750242807,57.9,19.35,29.7
-0.012451170000000048,0.52294922,0.391601565,0.5000598208110463,0.49996109643644016,0.4999961362773684,1.2,28.2,20.4,0.6071777349999999,0.5476074200000001,1.01196289,0.5000394364125805,0.49999114009785167,0.49987429632581654,61.65,8.55,92.85,0.12402344,0.45800781,0.8488769549999999,0.5001987143747194,0.4999780834642504,0.5000023315853478,57.9,19.35,29.7
-0.007324220000000025,0.5266113299999999,0.38964844,0.5000859341655152,0.4999314525426938,0.5000295773094354,0.15,28.2,21.75,0.5915527349999999,0.5554199200000001,0.9973144549999999,0.5000624188209043,0.49998501146144975,0.49984491885658056,62.25,9.15,91.95,0.123046875,0.46948242,0.8449707049999999,0.5002313560459889,0.4999766179112775,0.49998347932416587,56.25,18.75,29.4
-0.004394529999999975,0.529785155,0.392333985,0.5000539586864211,0.4999363154663221,0.5000350398409282,0.15,28.65,21.45,0.5859375,0.56591797,0.990234375,0.5000582220894514,0.4999837457486762,0.49988468836524874,61.5,9.9,92.4,0.11889648499999998,0.45800781,0.8566894549999999,0.5002448123599889,0.4999734203808214,0.4999812809947065,56.4,19.35,28.95
-0.004150390000000016,0.5476074200000001,0.395996095,0.5000592878747592,0.49995516772750404,0.5000588216100496,0.0,28.8,21.9,0.5871582049999999,0.5534667950000001,0.99609375,0.5000704793622552,0.500007327677598,0.4998794257612217,61.35,8.55,92.85,0.11669922000000002,0.450439455,0.86035156,0.5002459449041405,0.49997601839067946,0.4999912067694291,57.6,19.35,28.95
0.004394529999999975,0.55810547,0.40917969,0.5000568897051004,0.49993438364863957,0.5000816040909075,-0.45,28.2,21.75,0.584472655,0.546875,1.009521485,0.5000833361556571,0.5000163208356349,0.4998571094578069,61.5,9.9,93.45,0.11108398499999998,0.451171875,0.86425781,0.5002677281840018,0.4999427105272344,0.4999636278619872,57.6,19.95,29.4
0.009277345000000025,0.55859375,0.41088867,0.5000397695086682,0.49995197010978143,0.5000678813523972,-0.45,28.2,21.75,0.6115722650000001,0.552246095,1.015625,0.5001357626175279,0.49998867534388197,0.49983519292205736,61.5,9.9,93.45,0.11450195500000002,0.44458008,0.8547363299999999,0.5003362090569969,0.49996349460609885,0.49995117074898404,57.0,21.0,30.45
0.007324220000000025,0.5520019549999999,0.41821289,0.5000375711792089,0.4999636944462982,0.5000865336861133,0.6,28.8,21.3,0.59765625,0.544921875,1.0063476550000001,0.5001432902225919,0.4999860773340239,0.499788162320102,61.5,9.9,93.45,0.12475585999999998,0.43676758,0.845703125,0.5003740466607162,0.4999464410812441,0.4999509043244737,56.55,19.2,29.4
0.01489258000000001,0.54638672,0.42114258,0.5000526263020701,0.4999701561787878,0.5000923292264274,-0.15,28.2,21.45,0.596679685,0.55078125,0.97363281,0.5001141791778662,0.5000252473220941,0.4998051492606458,61.65,10.5,92.25,0.1171875,0.442871095,0.84033203,0.5004302702609076,0.4999473070263524,0.49997095562685173,58.5,18.3,29.25
0.026855470000000024,0.552246095,0.416259765,0.5000458315607592,0.4999616960443046,0.5001091829983493,-0.6,29.55,21.45,0.591796875,0.552246095,0.978027345,0.5001367619057911,0.5000624188209043,0.4997951569888787,61.35,9.75,91.2,0.12353515499999998,0.432128905,0.8308105450000001,0.5004451922151469,0.4999646937345614,0.4999364487222105,58.5,18.3,29.25
0.03784179499999999,0.5625,0.41015625,0.500025313906405,0.5000174532925199,0.5000979915981196,-0.6,29.55,21.6,0.578125,0.546875,0.98779297,0.5001266362908693,0.5000325749996921,0.49978090122681496,60.45,8.1,93.45,0.12548827999999998,0.454345705,0.82861328,0.5004827633943558,0.49994424275178473,0.49994044561346407,58.05,19.5,28.8
0.04394531499999999,0.5700683599999999,0.390625,0.5000304433418102,0.5000104586237432,0.5001033207864577,-0.6,29.55,21.6,0.5656738299999999,0.5554199200000001,0.97998047,0.5000957932686603,0.5000592878747592,0.4997667121363285,61.65,10.05,92.25,0.11889648499999998,0.44970703,0.83154297,0.5004723047706127,0.49996309492570007,0.49994044561346407,57.45,20.1,30.0
0.03222656499999999,0.56591797,0.38354492,0.5000167205160335,0.5000168537719218,0.5001009892883764,1.05,27.3,21.6,0.541503905,0.556640625,0.9816894549999999,0.5000724111799378,0.500144489263788,0.49975945095577495,62.4,9.0,92.85,0.13012695500000002,0.46899414,0.82763672,0.5004836960110417,0.49996296175707816,0.49994863932343697,57.0,19.2,29.1
0.021972654999999976,0.5637207049999999,0.38183594,0.5000150551228613,0.5000585550982727,0.5000950604921739,-0.3,28.5,21.9,0.529785155,0.5764160150000001,0.96923828,0.5000661492876476,0.5001404923725343,0.4997636477744943,63.15,10.05,92.55,0.110351565,0.48144531,0.8049316400000001,0.5004677748558056,0.49996396095807494,0.4998984111910255,57.3,20.25,29.1
0.03247070500000001,0.5539550799999999,0.36669922,0.5000356393615264,0.500024048280898,0.5000478966343301,-0.45,28.95,21.0,0.5407714849999999,0.580078125,1.0004882800000001,0.5000433001352121,0.5000015321372838,0.49975045788500466,63.15,10.05,92.55,0.12182616999999998,0.48779297000000005,0.8005371099999999,0.5004436599905966,0.49993105286229506,0.49988235677990106,58.2,20.55,29.7
0.023681640000000014,0.5627441400000001,0.35888672,0.500046697593134,0.5000223828877257,0.5000583552580733,-0.45,27.9,21.75,0.5334472650000001,0.57861328,0.9914550799999999,0.5000167871003445,0.5000244479612966,0.49976677872063946,62.7,9.0,92.55,0.12329101500000002,0.5517578150000001,0.81689453,0.5003693835772872,0.4999642273825852,0.4998695666580766,56.55,19.95,30.15
0.01879883000000001,0.5607910150000001,0.354248045,0.5000224494720368,0.500039569668469,0.5000205842386651,-0.45,27.9,21.75,0.5534667950000001,0.5817871099999999,1.01879883,0.49998274654767944,0.5000056622844258,0.49979788816735876,64.05,8.4,93.15,0.12451172000000002,0.5705566400000001,0.7966308599999999,0.5003386072266557,0.4999802817937098,0.49987363013364106,56.55,19.95,30.15
0.02026366999999999,0.5578613299999999,0.34765625,0.5000559570884147,0.4999922725547368,0.5000401691890669,0.6,28.8,21.3,0.53564453,0.59765625,1.0131835949999999,0.4999531025666666,0.5000897978881468,0.49977304061292976,63.45,9.3,92.85,0.11157226500000002,0.57080078,0.8142089849999999,0.5002854479010319,0.5000117910080942,0.49987189815615785,55.2,18.75,28.8
0.0017089849999999843,0.5515136700000001,0.34790039,0.5000710122112759,0.4999746860935949,0.5000163208356349,1.05,28.5,20.55,0.5461425799999999,0.596679685,0.9958496099999999,0.4999684242013046,0.49998041504959817,0.4997856975661323,63.45,9.3,92.85,0.11108398499999998,0.5891113299999999,0.8200683599999999,0.5002703261938598,0.49997575187890264,0.49986064008435077,55.2,18.75,28.8
-0.0007324199999999905,0.5495605450000001,0.3515625,0.5000542251109314,0.49996142953252787,0.5000109915600303,1.05,27.0,19.5,0.5573730450000001,0.6047363299999999,1.005615235,0.4999453752086699,0.4999462411537783,0.49983519292205736,62.85,9.6,92.7,0.11987304499999998,0.59814453,0.7980957049999999,0.5002033108738374,0.49999160644982776,0.4999072044215964,57.3,19.2,29.1
0.005615234999999984,0.5451660150000001,0.34667969,0.5001067182443797,0.4999083368784816,0.4999910069292297,1.05,27.0,19.5,0.5615234400000001,0.5969238299999999,0.99560547,0.49991519829137,0.499949172259724,0.4998511807488708,62.7,8.55,92.25,0.11621094,0.587402345,0.7990722650000001,0.500158345345453,0.5000154548032599,0.4999067381568868,58.2,19.35,29.7
0.0034179700000000254,0.5380859400000001,0.353271485,0.500140425700957,0.4999120007609138,0.4999859440781355,0.6,28.5,21.6,0.546875,0.59033203,0.9880371099999999,0.499888418831992,0.49993578253003507,0.4998679678492153,62.7,8.55,92.25,0.11083984500000002,0.5612792950000001,0.8171386700000001,0.5000954601725726,0.5000676148406205,0.49992099383168415,57.15,19.35,28.95
0.01049804499999999,0.5439453150000001,0.36254883,0.5001326316713828,0.49990873655888024,0.49991606432374475,-0.15,29.4,22.05,0.5451660150000001,0.5744628900000001,0.9899902349999999,0.4999287212769473,0.499975219029882,0.4998958797654784,63.15,7.5,92.25,0.10839844,0.5593261700000001,0.8142089849999999,0.5000506944843875,0.5000966593010352,0.49993744792320727,58.05,19.5,29.1
0.02026366999999999,0.541503905,0.37084961,0.5001732006281149,0.4998885520878804,0.4999495053558118,0.45,28.65,21.45,0.553222655,0.5632324200000001,0.99316406,0.4999479065469505,0.4999774839436523,0.4998905505771403,62.7,9.0,91.8,0.11157226500000002,0.532714845,0.8293457049999999,0.5000302435016108,0.5000885321753732,0.4999527028862679,57.9,18.6,28.65
0.018066404999999976,0.53857422,0.38208008,0.5001845918685439,0.49988801915159325,0.49991832923751506,0.45,28.65,21.45,0.5568847650000001,0.54736328,0.9948730450000001,0.4999479065469505,0.4999890750242807,0.4998909502575391,63.3,7.65,91.65,0.10375976500000002,0.5183105450000001,0.8269042950000001,0.5000631515973908,0.5000491623471037,0.4999838790045646,57.0,19.5,29.1
0.017333984999999986,0.5290527349999999,0.38623047,0.5001819272743749,0.49990753751768413,0.4998922825546236,0.75,27.15,22.5,0.5595703150000001,0.5520019549999999,1.00878906,0.49997108879547364,0.4999778170397401,0.4998938812762184,63.3,7.65,91.65,0.098632815,0.5100097650000001,0.8205566400000001,0.5000977250863429,0.5000035306265439,0.500013856081665,57.0,19.5,29.1
0.0048828149999999935,0.524902345,0.384277345,0.5001999800874929,0.49990966926283253,0.4999047396676268,1.05,27.75,21.6,0.5559082049999999,0.541503905,0.99267578,0.4999702894346762,0.5000027978500574,0.4998929486595326,63.15,8.55,92.25,0.11791991999999998,0.513671875,0.8181152349999999,0.5000881990792855,0.49998727637522006,0.5000273123956651,56.4,21.15,28.65
0.010253904999999975,0.53076172,0.384277345,0.50019651604526,0.49988708653490743,0.4999410451340621,1.2,27.9,19.95,0.5627441400000001,0.54296875,0.98876953,0.4999852779732265,0.49999054057725356,0.49988721979079587,62.85,8.85,92.4,0.11840820500000002,0.49658202999999995,0.842285155,0.5000834694115456,0.4999502381322982,0.5000436332312999,56.4,21.15,28.65
-0.005859375,0.5275878900000001,0.380126955,0.5001628751729936,0.49990886981476873,0.4999143323462616,0.6,26.55,20.85,0.57373047,0.5505371099999999,0.9865722650000001,0.4999968690538548,0.500017986228807,0.49988522130153584,63.15,8.25,91.8,0.12036133000000002,0.50439453,0.83984375,0.5000552909835057,0.5000166539317226,0.5000288445329489,57.15,19.35,28.2
-0.009277345000000025,0.5095214849999999,0.392822265,0.5001807281459123,0.4999109348883396,0.4999476401224402,0.6,26.55,20.85,0.5703125,0.5529785150000001,0.9763183599999999,0.5000263131946683,0.5000442994234754,0.49988562098193456,61.95,8.25,91.8,0.11889648499999998,0.498291015,0.83642578,0.5000854678135391,0.5000121240169154,0.5000276454917528,57.6,19.2,28.8
-0.004394529999999975,0.51171875,0.396972655,0.5001861906774052,0.49989428104388356,0.4999675581689298,1.05,27.3,20.85,0.576660155,0.5612792950000001,1.005126955,0.5000578223217863,0.5000429004548135,0.4998961462772552,63.45,8.55,93.3,0.12377929499999998,0.50048828,0.821777345,0.5001347634165312,0.4999968690538548,0.500028711364327,57.6,19.2,28.8
0.008789064999999993,0.5300292950000001,0.39355469,0.5001569463767911,0.499953169238244,0.4999678912650175,0.15,26.4,22.05,0.5656738299999999,0.5466308599999999,1.0063476550000001,0.5000602871630224,0.5000172534523206,0.4998901508094752,61.8,7.35,92.7,0.12402344,0.505371095,0.830566405,0.5001249043133861,0.5000109249757193,0.5000279119162632,55.8,19.2,27.75
0.007568359999999984,0.5244140650000001,0.407470705,0.500138360627386,0.49991932843851183,0.49998481162125036,0.3,27.3,21.3,0.5598144549999999,0.56982422,0.9978027349999999,0.5000508943245869,0.5000430337107018,0.4999184624934035,61.8,7.35,92.7,0.11840820500000002,0.5056152349999999,0.8332519549999999,0.5001455551363622,0.500024780970118,0.49998534455753746,57.45,20.1,29.7
0.017333984999999986,0.52783203,0.40600586,0.5001045864992313,0.4999542351108182,0.49998794256739554,0.3,27.3,21.3,0.5437011700000001,0.5578613299999999,0.9846191400000001,0.5000251807377831,0.5000524264618708,0.499873030613043,63.75,6.3,92.55,0.11230469,0.51171875,0.8312988299999999,0.5001454884647847,0.5000040635628309,0.49999753524603036,56.7,20.1,29.7
0.027587890000000014,0.51904297,0.41064453,0.5000610199395088,0.5000299104055231,0.49999420445968584,1.65,27.0,20.25,0.5495605450000001,0.5769042950000001,1.00366211,0.500013856081665,0.5000476302098198,0.49989721206256293,63.3,6.6,92.4,0.11865234500000002,0.5148925799999999,0.8405761700000001,0.5001366286499028,0.5000110582316077,0.5000061286364019,55.8,19.95,28.8
0.022949220000000024,0.5100097650000001,0.407714845,0.5000602204914449,0.5000039969785199,0.4999902741527433,1.65,25.05,20.85,0.548339845,0.588378905,1.0073242199999999,0.500009259582547,0.5000149218669728,0.4999110015599171,63.6,7.35,90.9,0.11328125,0.5283203150000001,0.850585935,0.5001308996938996,0.5000343736487528,0.49995530089612594,55.8,19.95,28.8
0.006347654999999975,0.509277345,0.39355469,0.5000294441408134,0.5000425673587257,0.5000302435016108,0.75,25.65,22.05,0.5549316400000001,0.5856933599999999,1.0073242199999999,0.499997401990142,0.5000229157367464,0.4999062718049106,61.8,6.15,93.15,0.11572265499999998,0.5466308599999999,0.83984375,0.5001304333419234,0.5000121906884929,0.4999600972354434,57.0,19.2,28.35
0.005371095000000025,0.5134277349999999,0.387939455,0.5000101921992328,0.5000349065850399,0.50000472966774,0.3,25.8,19.8,0.55419922,0.58984375,1.01196289,0.5000050627638277,0.4999904739929426,0.49993431697706214,63.3,6.9,91.65,0.11450195500000002,0.5515136700000001,0.841796875,0.5000883989194849,0.5000010658725742,0.49997055585918654,58.2,19.05,27.9
0.005615234999999984,0.5212402349999999,0.39086914,0.5000155214748374,0.5000233820887224,0.5000186523337161,0.3,25.8,19.8,0.5607910150000001,0.595214845,1.006591795,0.49999680246954387,0.49998994105665556,0.499942510687035,62.7,8.55,91.2,0.11621094,0.5505371099999999,0.845703125,0.5000933285146907,0.49999993341568905,0.499971222051362,58.5,19.35,28.95
0.009521484999999984,0.52294922,0.395996095,0.5000137228257767,0.5000216501112393,0.5000667488082455,0.45,26.4,22.5,0.556640625,0.588867185,0.9938964849999999,0.49999247239493616,0.4999962029489458,0.49993065318189633,62.7,8.55,91.2,0.10766601500000002,0.5500488299999999,0.8381347650000001,0.5000837358360558,0.500002664594169,0.49996396095807494,57.6,20.25,28.8
0.021972654999999976,0.5227050799999999,0.39453125,0.499967225072842,0.5000438996558102,0.500024048280898,3.0,24.9,20.7,0.5573730450000001,0.5705566400000001,0.9938964849999999,0.4999862771742233,0.5000013989686619,0.499981947186882,63.45,7.8,92.25,0.106445315,0.5368652349999999,0.830566405,0.5000713453073636,0.5000105252953206,0.5000035306265439,56.4,21.15,28.95
0.024902345000000024,0.5192871099999999,0.390625,0.4999891416958581,0.5000346401605296,0.49999487056459485,0.6,25.8,20.85,0.564453125,0.569335935,1.0073242199999999,0.5000186523337161,0.5000012657127736,0.4999589647785582,64.2,7.05,91.8,0.11376952999999998,0.5383300799999999,0.838867185,0.5000830696438804,0.5000068614128884,0.49997548545439235,58.05,21.0,29.85
0.03247070500000001,0.525878905,0.373046875,0.4999919395459155,0.5000163874199458,0.5000069279971994,0.6,25.8,20.85,0.5642089849999999,0.5595703150000001,1.0083007800000001,0.49999367152339874,0.5000084602217496,0.49994710718615304,62.85,8.1,91.95,0.11108398499999998,0.5236816400000001,0.84472656,0.5000941278754881,0.5000171201964322,0.5000121240169154,58.05,21.0,29.85
0.02612304499999999,0.5246582049999999,0.37084961,0.49996635912773363,0.5000407687969315,0.4999439762400079,1.35,26.55,20.85,0.5485839849999999,0.5563964849999999,1.0102539050000001,0.5000151883787497,0.4999954701724594,0.4999875428869968,62.85,8.1,91.95,0.09985351500000002,0.5217285150000001,0.834472655,0.5001095160944371,0.49999260565082454,0.5000009992009967,56.25,19.2,30.15
0.0068359399999999935,0.5222167950000001,0.35498047,0.49993385071235247,0.5000251140662058,0.49995263630195697,0.0,24.3,20.55,0.5461425799999999,0.5510253900000001,1.002929685,0.5000226493122361,0.4999997335754897,0.4999708889552743,62.85,8.1,91.95,0.09985351500000002,0.5227050799999999,0.8337402349999999,0.5001126470405822,0.49998694336639876,0.5000097925188342,56.25,19.2,30.15
0.01049804499999999,0.524902345,0.353027345,0.49996695864833174,0.5000027978500574,0.4999884755036826,1.2,25.65,20.55,0.537109375,0.5537109400000001,1.0014648449999999,0.5000342403928644,0.5000033307863445,0.4999719548278485,61.95,7.5,91.8,0.110351565,0.5290527349999999,0.8303222650000001,0.5001058522120049,0.49997928250544654,0.5000296439810128,57.9,20.85,28.95
0.002197265000000016,0.5139160150000001,0.35546875,0.4999366485624099,0.4999910069292297,0.49994530853709246,0.45,25.65,20.7,0.5441894549999999,0.5529785150000001,1.0083007800000001,0.5000510275804753,0.5000159211552361,0.49996089659624077,63.75,7.8,93.3,0.10815429499999998,0.54248047,0.846679685,0.50008953137637,0.49996489357476076,0.5000257802583812,57.0,18.75,27.3
-0.004394529999999975,0.52001953,0.362060545,0.4999510374930956,0.499980015281933,0.4999265896190654,0.45,26.1,21.75,0.549316405,0.567871095,1.0112304699999999,0.5000579555776746,0.5000062618922902,0.4999548346314163,63.75,7.8,93.3,0.11352539000000002,0.54638672,0.8601074200000001,0.5000921960578055,0.4999495053558118,0.5000227825681245,56.25,19.2,28.8
0.005859375,0.5114746099999999,0.373046875,0.4999731538690446,0.49994590814495693,0.499962561989413,0.45,26.1,21.75,0.55859375,0.57519531,1.010742185,0.5000608866836205,0.49998687669482134,0.49996675880813235,62.85,8.1,92.7,0.11865234500000002,0.580566405,0.9470214849999999,0.5000445658479856,0.4999382472840047,0.5000536255903334,57.15,20.85,28.2
0.021728515000000014,0.5236816400000001,0.38208008,0.4999476401224402,0.4999489724195247,0.4999199280463764,1.35,26.25,22.35,0.548828125,0.59863281,1.00854492,0.5000572228011881,0.4999626952453014,0.5000040635628309,63.45,8.55,91.8,0.12841797000000002,0.604492185,0.7355957049999999,0.5002430137981947,0.4998714318914481,0.5000579555776746,57.15,19.8,30.0
0.0048828149999999935,0.52685547,0.412841795,0.49994617456946727,0.49996442722278467,0.49993051992600795,1.05,25.8,22.35,0.5632324200000001,0.6267089849999999,0.9836425799999999,0.5000376378507864,0.4999677580091291,0.5000234486730334,63.6,7.35,92.7,0.14331054499999998,0.6389160150000001,0.78955078,0.5000359724576141,0.49993951299677825,0.5000232488328341,57.3,19.2,28.05
0.010253904999999975,0.5183105450000001,0.41040039,0.49995916461875756,0.4999292542132344,0.49995610034418986,1.2,26.7,21.75,0.5634765650000001,0.65625,0.9816894549999999,0.5000933950990016,0.49994437592040664,0.5000535589187559,63.6,7.35,92.7,0.14575195500000002,0.6286621099999999,0.834472655,0.499877027591563,0.5001338973841564,0.500044166167587,57.3,19.2,28.05
0.014648439999999993,0.524902345,0.403808595,0.49991493186685965,0.49993591578592345,0.49994837289892663,1.2,26.7,21.75,0.56591797,0.6589355450000001,0.9787597650000001,0.500056090344303,0.49996122969232853,0.5000870666224003,63.75,7.8,91.2,0.14208984500000002,0.63671875,0.866210935,0.49980221824196647,0.500124371377099,0.5000479632186411,57.15,20.1,27.9
0.0026855449999999906,0.533691405,0.412109375,0.4999080704539713,0.49995669986478786,0.49995356891864273,0.3,28.5,22.65,0.5803222650000001,0.6633300799999999,0.9826660150000001,0.49997581855048007,0.4999742197416188,0.5001406255411563,62.7,7.5,91.2,0.14013672000000002,0.63769531,0.8034667950000001,0.4997691102187208,0.5001299670772138,0.5000649502464514,57.15,20.1,27.9
0.013671875,0.517578125,0.43310547,0.4999337174564641,0.4999270558837751,0.4999261232670893,0.45,26.4,21.45,0.57373047,0.64160156,0.9831542950000001,0.4999677580091291,0.49998041504959817,0.500160410419024,62.7,7.5,91.2,0.134765625,0.635742185,0.813964845,0.4997599173077511,0.5001410253088215,0.5000319088947831,57.15,20.1,27.9
0.03222656499999999,0.5285644549999999,0.42919922,0.49990966926283253,0.4999729540288453,0.4999191952698899,1.5,27.15,22.5,0.568847655,0.62988281,0.96826172,0.4999822802829697,0.49998101457019617,0.5002076408611786,64.05,8.4,91.95,0.131103515,0.62207031,0.8078613299999999,0.4997276753168802,0.5000189854298038,0.5000544249511308,56.55,21.0,28.8
0.020019529999999976,0.529785155,0.42944336,0.4998853545574243,0.4999868101105104,0.4999606967560414,1.5,26.1,21.45,0.56982422,0.60888672,0.958984375,0.5000015988088613,0.4999795490172233,0.5002137694975806,63.3,6.9,92.4,0.13720702999999998,0.5871582049999999,0.8044433599999999,0.4996485359799424,0.5000260466828915,0.5000722779240494,56.4,20.1,28.2
0.007080080000000009,0.529785155,0.418945315,0.49990154213717064,0.499977284103453,0.49994977178032207,1.5,26.1,21.45,0.577148435,0.6032714849999999,0.9641113299999999,0.4999725543484465,0.5000127236247799,0.500231822397965,63.45,6.3,92.55,0.154296875,0.5690917950000001,0.8229980450000001,0.49963394720905735,0.5000692136494816,0.5000574226413875,55.35,20.1,28.2
0.016601564999999995,0.53076172,0.41479492,0.49988595407802233,0.5000257802583812,0.4999333843603764,0.6,26.55,22.35,0.57519531,0.5959472650000001,0.96533203,0.4999802151221323,0.5000215834396619,0.5002362189696173,63.45,6.3,92.55,0.14135741999999998,0.5466308599999999,0.830566405,0.4996267527000812,0.5000746760937081,0.50010225500115,55.8,21.0,28.8
0.015136720000000025,0.5270996099999999,0.41455078,0.4998539785989282,0.5000311095339858,0.49993298467997765,2.25,25.35,21.0,0.5808105450000001,0.5827636700000001,0.9724121099999999,0.4999624288207911,0.5000599540669347,0.5002441462550798,61.5,8.4,93.15,0.13134765499999998,0.52783203,0.8200683599999999,0.49962708570890246,0.5000891316959714,0.5000764747427687,55.8,21.0,28.8
0.013427734999999984,0.5310058599999999,0.415527345,0.49989787825473836,0.50002617993878,0.49994863932343697,1.5,26.7,21.75,0.57373047,0.5856933599999999,0.97265625,0.4999736202210207,0.5000491623471037,0.5002291577165295,63.3,8.1,92.7,0.11889648499999998,0.506835935,0.8269042950000001,0.4996393430689728,0.5000166539317226,0.5000978583422313,57.15,20.85,28.2
0.005615234999999984,0.529296875,0.40307617,0.49984685067426304,0.5000577557374754,0.4999276554043731,1.5,26.7,21.75,0.58154297,0.5739746099999999,1.00415039,0.4999830130594562,0.500057489312965,0.5002458782325631,63.6,6.9,93.45,0.11645508000000002,0.502441405,0.8342285150000001,0.49961309645861546,0.5000030643618342,0.5000895980479474,57.15,20.85,28.2
-0.0048828100000000065,0.524902345,0.39819336,0.49984878249194564,0.5000294441408134,0.4999359823702344,1.2,27.15,21.45,0.5783691400000001,0.5764160150000001,1.0112304699999999,0.49997581855048007,0.500060153907134,0.5002476102973128,63.45,7.05,92.85,0.12597656499999998,0.49633789,0.83300781,0.499614362171389,0.500009326166858,0.5000987909589171,57.6,18.75,29.85
-0.006591794999999991,0.5344238299999999,0.387939455,0.49984671741837466,0.4999970023097432,0.4999684242013046,0.45,27.15,23.1,0.57080078,0.564453125,1.0209960949999999,0.4999449755282711,0.5000634181091675,0.5002508078277689,62.4,8.55,93.6,0.11669922000000002,0.49609375,0.8156738299999999,0.49965699620169207,0.5000274456515534,0.5000887320155726,57.15,20.1,27.45
0.0031738300000000094,0.53173828,0.38647461,0.4998248675542025,0.5000170536121212,0.49994544179298084,0.75,27.45,20.7,0.564941405,0.5576171900000001,1.013671875,0.49996502683064914,0.5000608200993095,0.5002322220783637,62.85,8.85,92.7,0.110351565,0.48486327999999995,0.82421875,0.49964480551319923,0.5000644173101643,0.5000352396811276,56.55,21.45,28.8
0.0078125,0.5378417950000001,0.380859375,0.49978836216030137,0.5000326416712696,0.4999642940541627,1.65,27.3,22.35,0.5505371099999999,0.5456542950000001,1.0004882800000001,0.4999708889552743,0.500047363698043,0.5002287580361309,62.85,8.85,92.7,0.09887695500000002,0.47729492,0.83544922,0.4996821102678978,0.5000580221619856,0.5000451653685837,56.7,20.1,29.7
0.011474609999999984,0.53173828,0.37915039,0.49980028633701745,0.5000053292756045,0.4999856776536252,1.8,27.15,21.45,0.5419921900000001,0.54638672,1.002685545,0.4999906071615645,0.5000443660077863,0.500211771095587,61.35,9.3,92.25,0.09008789000000002,0.47705077999999995,0.8254394549999999,0.4997044264840461,0.5000526929736476,0.5000303100859218,55.65,20.85,28.65
-0.006347654999999975,0.5197753900000001,0.37524414,0.4997897611289633,0.5000481630588405,0.4999561669285008,1.2,27.45,21.0,0.54345703,0.5439453150000001,1.01879883,0.500003464042233,0.500048229730418,0.5001913866971213,63.45,7.5,91.5,0.08837890499999998,0.462402345,0.8327636700000001,0.4997488590761434,0.5000542916952424,0.5000233155044115,56.7,20.1,29.25
-0.0048828100000000065,0.5187988299999999,0.375976565,0.49978802906421355,0.5000311095339858,0.49998307964376715,0.75,27.45,21.75,0.536621095,0.5505371099999999,1.022216795,0.5000111248159187,0.5000472304421547,0.5001933851863813,63.15,8.55,92.55,0.087890625,0.462158205,0.8332519549999999,0.499779435673842,0.5000393698282696,0.5000036638824322,56.7,20.1,29.25
0.006591794999999991,0.520996095,0.369140625,0.49980115236939227,0.5000265130348677,0.5000080604540845,1.5,28.2,22.8,0.5432128900000001,0.556640625,1.0161132800000001,0.5000041968187193,0.5000303100859218,0.5001741998291117,61.95,8.55,92.85,0.09326172000000002,0.45678711,0.8254394549999999,0.4997899609691626,0.5000425673587257,0.49998727637522006,57.15,19.8,29.25
0.00390625,0.5295410150000001,0.37963867,0.4997843652690478,0.5000325749996921,0.5000151217071722,1.5,28.2,22.8,0.5393066400000001,0.553222655,1.005126955,0.49999393794790903,0.5000115244963174,0.5001683377044865,63.3,8.1,93.15,0.102539065,0.46435547,0.83203125,0.49979782158304775,0.5000302435016108,0.5000009992009967,57.15,19.8,29.25
0.00390625,0.5427246099999999,0.381591795,0.4997791692493317,0.500022049791638,0.5000278453319522,2.4,27.0,22.35,0.5517578150000001,0.5500488299999999,1.01098633,0.49999680246954387,0.500005196019716,0.5001673384162233,62.25,9.15,93.15,0.08984375,0.455810545,0.8303222650000001,0.49979908729582134,0.5000407687969315,0.4999910069292297,57.45,20.1,29.7
0.01245116999999999,0.5476074200000001,0.38623047,0.4998172066932503,0.5000166539317226,0.5000546914629076,1.65,27.0,22.95,0.5485839849999999,0.549316405,1.0063476550000001,0.499997934926429,0.500019984718067,0.5001640743014563,62.25,9.15,93.15,0.110351565,0.4609375,0.831054685,0.49982400152182765,0.5000256470024929,0.49996382770218656,57.15,19.8,28.65
0.010009765000000016,0.54296875,0.387695315,0.49979002755347357,0.5000304433418102,0.50001945178178,0.15,27.9,20.7,0.556640625,0.5471191400000001,1.005859375,0.4999868101105104,0.5000125236973141,0.5001390934038724,62.25,9.15,92.7,0.10449219,0.451660155,0.837402345,0.499821536767858,0.5000265130348677,0.4999764180710781,56.4,20.55,28.65
-0.0026855449999999906,0.55126953,0.38647461,0.4998057488685103,0.5000357726174147,0.5000430337107018,0.15,27.9,20.7,0.5651855450000001,0.54345703,1.0024414050000001,0.4999990007990032,0.5000238483534322,0.5001265697065583,62.55,8.85,93.45,0.11621094,0.46118164,0.8366699200000001,0.4998410551339489,0.5000053292756045,0.4999744862533956,57.0,19.5,29.1
0.004150390000000016,0.55859375,0.392578125,0.49983532617794574,0.5000178529729187,0.5000614862042185,1.65,28.05,21.6,0.5729980450000001,0.54296875,0.9982910150000001,0.49999054057725356,0.5000186523337161,0.5001322319909841,61.65,8.55,92.55,0.11596679499999998,0.475585935,0.82519531,0.4998634379344082,0.49999913396762513,0.4999972021499426,56.25,19.95,30.45
0.001953125,0.549316405,0.392089845,0.4998212702560812,0.50000872664626,0.5000147220267734,0.3,28.8,22.65,0.5700683599999999,0.55517578,0.991210935,0.4999754188700814,0.5000226493122361,0.5001050528512074,61.65,8.55,92.55,0.12988281499999998,0.47119140499999995,0.831054685,0.4998885520878804,0.5000164540915232,0.5000013322970845,56.55,18.75,29.4
-0.0078125,0.544921875,0.39770508,0.49983912331626634,0.5000346401605296,0.5000207174945535,-0.15,28.65,22.05,0.57373047,0.5480957049999999,0.990234375,0.49999726873425354,0.5000124571130031,0.5001034540423461,61.65,8.55,92.55,0.13232422000000002,0.48120117,0.8327636700000001,0.4998714984757592,0.4999888085997704,0.5000078606138851,56.55,18.75,29.4
-0.010742185000000007,0.5400390650000001,0.39892578,0.49989647928607645,0.5000143889306857,0.500042167678327,0.75,27.15,21.75,0.5881347650000001,0.5524902349999999,0.99267578,0.5000054624442265,0.5000397029243573,0.5000949272362856,61.35,9.3,91.8,0.12939452999999998,0.49072265499999995,0.830078125,0.49987816004844815,0.4999828798035678,0.4999972021499426,56.55,18.75,29.4
-0.0017089849999999843,0.5478515650000001,0.41479492,0.4999332511917544,0.5000029311059457,0.5000545582070192,0.75,27.15,21.75,0.5900878900000001,0.5478515650000001,1.0034179699999999,0.5000048629236283,0.5000317756388947,0.5000937281950893,63.15,7.5,92.25,0.12792968999999998,0.487060545,0.83544922,0.499883755748563,0.4999704226905646,0.500022049791638,56.25,19.95,27.0
0.003662109999999984,0.5568847650000001,0.41748047,0.4998956133409681,0.5000132564738006,0.500019984718067,0.75,29.4,21.0,0.591308595,0.5390625,0.99609375,0.500026779459378,0.5000330413516683,0.5000925957382042,63.15,7.5,92.25,0.13696289,0.49072265499999995,0.8474121099999999,0.4998828897161881,0.49998307964376715,0.500039503084158,56.55,20.25,29.1
0.010742189999999993,0.561035155,0.418945315,0.4999429770390112,0.5000155880591484,0.5000479632186411,1.05,30.3,21.9,0.5930175799999999,0.5495605450000001,1.001708985,0.5000438996558102,0.5000213835994626,0.5000717449877623,63.15,10.5,91.8,0.13769531499999998,0.48901367,0.84033203,0.49988435526916103,0.49999213938611486,0.5000202511425773,57.6,19.95,27.0
-0.007568359999999984,0.561035155,0.411621095,0.4999551010559266,0.5000283782682392,0.5000660161190256,1.35,27.0,21.9,0.6003417950000001,0.546875,1.012939455,0.5000315757986954,0.500064217469965,0.5000701462661675,63.6,9.6,93.15,0.130859375,0.48364258,0.8430175799999999,0.49990520593233645,0.4999756852945917,0.5000369050742999,57.0,18.75,29.4
-0.0078125,0.5559082049999999,0.415283205,0.4999349164976602,0.5000350398409282,0.5000542916952424,1.35,27.0,22.35,0.588378905,0.5510253900000001,1.01196289,0.500039569668469,0.5000298438212122,0.5000671485759107,63.6,8.85,93.15,0.131103515,0.47265625,0.84863281,0.49989028406536357,0.5000035306265439,0.500028777948638,57.45,18.3,29.7
-0.018310545000000046,0.5476074200000001,0.41479492,0.4999652932551594,0.5000106584639425,0.5000708123710765,1.35,27.0,22.35,0.596679685,0.5556640650000001,1.012939455,0.5000305765976986,0.5000535589187559,0.5000320421506715,63.6,8.85,93.15,0.12524414,0.47583008,0.8605957049999999,0.49986503674326943,0.5000299104055231,0.5000110582316077,57.45,19.35,28.95
-0.027832030000000032,0.5368652349999999,0.41479492,0.4999842121006523,0.5000094594227464,0.5000731439564243,0.3,29.55,21.6,0.6052246099999999,0.55419922,1.01953125,0.5000440329116985,0.5000742764133095,0.5000269792995773,63.6,8.85,92.7,0.12573241999999998,0.46826172000000005,0.85644531,0.49987236450813394,0.5000431002950128,0.5000311095339858,57.45,19.35,28.95
-0.0078125,0.5397949200000001,0.422851565,0.49997615164656783,0.5000110582316077,0.5000734103809346,1.65,30.3,22.95,0.588378905,0.55078125,1.0092773449999999,0.5000360390419251,0.5000449655283844,0.5000701462661675,64.2,8.55,92.25,0.11669922000000002,0.481689455,0.842773435,0.49990707116570804,0.5000462312411579,0.5000368384027225,55.65,20.1,29.25
0.007568359999999984,0.540527345,0.43408203,0.5000036638824322,0.5000065283168006,0.5001031209462583,0.6,27.75,21.9,0.5866699200000001,0.549316405,1.0063476550000001,0.5000618193003062,0.5000860007498261,0.5000393698282696,64.2,8.55,92.25,0.13208008000000002,0.47802734500000005,0.86376953,0.4998766944954752,0.5000743429976204,0.5000382373713844,55.65,20.1,29.25
0.007324220000000025,0.560058595,0.43774414,0.5000269792995773,0.5000013989686619,0.5001359624577273,0.0,29.25,21.6,0.5969238299999999,0.5419921900000001,1.021484375,0.5000634846934785,0.5000392365723811,0.5000291776290366,64.05,9.6,92.7,0.12963866999999998,0.446533205,0.8815917950000001,0.4998825566201004,0.5000760083907927,0.5000586883541611,57.6,21.0,28.8
0.0007324199999999905,0.568359375,0.423339845,0.5000029976902568,0.5000329747673573,0.5001152450504402,0.0,29.25,21.6,0.6657714849999999,0.524902345,1.0541992199999999,0.5000832694840798,0.5002130367210942,0.49998840891937163,63.75,9.75,91.8,0.12158202999999998,0.44555664,0.8615722650000001,0.4999299204054099,0.500092928834292,0.5000635512777895,56.25,20.7,30.9
-0.005859375,0.5632324200000001,0.42236328,0.5000502282196779,0.5000063950609122,0.5001372947548118,1.35,31.05,22.35,0.59375,0.5417480450000001,1.00097656,0.5000640842140766,0.5000932618431132,0.4999986010313381,63.45,10.05,92.85,0.13989258000000002,0.44604492,0.8684082049999999,0.49994530853709246,0.5001006561922887,0.5000574226413875,57.15,18.3,29.7
-0.006103515000000016,0.5490722650000001,0.411376955,0.500029377469236,0.5000046630834291,0.5001067182443797,-0.3,29.55,22.35,0.60253906,0.5244140650000001,1.013427735,0.5000520267814721,0.5000351730095501,0.4999726876043349,63.45,10.05,92.85,0.12646484500000002,0.45800781,0.88232422,0.49997408648573044,0.5001166439318357,0.5000678813523972,57.0,20.25,29.4
-0.01098633000000001,0.5461425799999999,0.392089845,0.5000425673587257,0.5000165872601451,0.500078739656539,1.35,29.85,22.65,0.6110839849999999,0.5222167950000001,1.009033205,0.5000632848532791,0.5000834027399681,0.499947173770464,63.3,9.9,92.4,0.11254883000000002,0.45263672,0.8615722650000001,0.5000089930707703,0.500099723575603,0.5000958598529712,57.3,21.0,29.1
-0.007568359999999984,0.5373535150000001,0.389160155,0.5000783399761404,0.49997348696513233,0.5000949939078629,1.35,29.85,22.65,0.5764160150000001,0.532714845,0.999023435,0.500071411978941,0.5000430337107018,0.4999614962041053,63.3,9.9,93.45,0.11694335999999998,0.47412109500000005,0.8327636700000001,0.5000083269658613,0.5000953935882616,0.500073543636823,57.3,19.95,28.35
-0.006347654999999975,0.536621095,0.392822265,0.500115644730839,0.49995769906578463,0.500079605688914,-0.75,29.7,21.75,0.5695800799999999,0.548828125,0.9807128900000001,0.5000963262049475,0.5000957266843493,0.49995663319321043,63.75,10.05,91.8,0.11279297000000002,0.498779295,0.838378905,0.499988608759571,0.5000681477769074,0.5001118475925184,57.3,19.95,28.35
0.01684570500000001,0.536621095,0.39038086,0.5001179762289203,0.49996229556490274,0.5000483628990399,-0.3,29.85,22.65,0.5480957049999999,0.556152345,0.97363281,0.500092928834292,0.5000537588462217,0.4999678912650175,63.15,10.5,92.85,0.130859375,0.5187988299999999,0.8195800799999999,0.4999932051714226,0.500060087322823,0.5001137128258899,58.05,19.5,29.1
0.03393554499999999,0.5478515650000001,0.40576172,0.5001466875932473,0.49994710718615304,0.5000569563766779,-2.7,28.8,20.85,0.5478515650000001,0.5803222650000001,0.979492185,0.5000999900873797,0.5000221829602599,0.49995969755504466,64.35,10.35,93.75,0.123046875,0.5205078150000001,0.7985839849999999,0.499988608759571,0.5000320421506715,0.5001203743985789,58.05,19.5,29.1
0.056640625,0.54638672,0.415283205,0.5001733337967369,0.4999832794839665,0.5000111914002296,1.2,28.95,21.75,0.53173828,0.5861816400000001,0.96972656,0.5000821370271946,0.49998780931150716,0.49999020748116585,65.1,10.65,91.95,0.131103515,0.52734375,0.8137207049999999,0.4999188621738022,0.5000410352214418,0.500171135554544,57.3,21.0,28.35
0.060546875,0.5495605450000001,0.411376955,0.5001468874334466,0.5000341738085534,0.4999547679598389,1.2,28.95,21.75,0.573242185,0.6135253900000001,0.95751953,0.5000522932932489,0.5000383039556954,0.5000139226659761,65.1,10.65,91.95,0.138671875,0.5373535150000001,0.817871095,0.4998870199505965,0.5000453652087831,0.5001067182443797,55.8,19.5,28.35
0.06689452999999998,0.5322265650000001,0.41430664,0.5001788629125407,0.5000355727772153,0.49998634375853424,0.3,30.6,22.95,0.54345703,0.607910155,0.9484863299999999,0.5000268461309554,0.5000058622118916,0.5000232488328341,65.1,9.9,92.4,0.13208008000000002,0.5373535150000001,0.8234863299999999,0.4998660360315327,0.5000364387223237,0.500100189927579,57.6,21.0,30.15
0.07006835999999998,0.5224609400000001,0.411621095,0.5001833928273478,0.5000451653685837,0.49993591578592345,0.3,28.5,20.85,0.5310058599999999,0.6306152349999999,0.9562988299999999,0.500031375958496,0.49997934917702397,0.5000511608363637,64.2,9.0,92.25,0.14453125,0.525390625,0.802246095,0.4998676347531275,0.5000069946687767,0.5000525597177592,57.0,21.0,28.05
0.067382815,0.5354003900000001,0.40625,0.5001395597558486,0.5000862672616029,0.49992605668277834,-0.45,29.7,21.45,0.5625,0.60498047,0.9660644549999999,0.5000428338705024,0.5000016653931723,0.5000574226413875,61.65,10.8,92.55,0.138916015,0.5324707049999999,0.8029785150000001,0.4998058821243987,0.5000327082555805,0.5000809379859984,57.0,21.0,28.05
0.07055664000000002,0.5478515650000001,0.40136719,0.5001506179001899,0.5000403690292663,0.4999381141153828,-0.45,29.7,21.45,0.55078125,0.6115722650000001,0.9743652349999999,0.5000362388821243,0.49997035601898715,0.5000512274206746,63.6,9.15,91.65,0.12646484500000002,0.533203125,0.82128906,0.4998227358090541,0.5000488292510159,0.5000479632186411,57.0,21.0,28.05
0.05224609500000003,0.55908203,0.39086914,0.500115644730839,0.5000466309215567,0.49994024577326474,0.0,28.8,21.3,0.54345703,0.6042480450000001,0.9787597650000001,0.5000152549630607,0.4999795490172233,0.5001187756769842,63.75,10.05,91.5,0.12841797000000002,0.498779295,0.8020019549999999,0.49981787288542573,0.5000371714988102,0.5000646171503637,56.7,20.1,28.65
0.04589843999999999,0.5480957049999999,0.376953125,0.5000455650489825,0.5000377044350973,0.4999192618542009,-0.3,27.75,21.6,0.548339845,0.59716797,0.9899902349999999,0.49998234686728066,0.4999413116458389,0.5000773407751437,63.45,11.25,90.75,0.12646484500000002,0.51123047,0.8200683599999999,0.4997985543595342,0.5000907305048327,0.5000413683175295,56.7,20.1,28.65
0.03149414000000002,0.546875,0.36743164,0.5000460979852696,0.4999828798035678,0.4999225926405454,-0.15,28.2,22.5,0.5598144549999999,0.603515625,0.989746095,0.5000080604540845,0.4999455750488692,0.5000898644724577,63.45,11.25,90.75,0.11328125,0.5080566400000001,0.8171386700000001,0.4998275321483715,0.500088931855772,0.5000265796191786,56.25,22.2,29.1
0.03491210999999998,0.5427246099999999,0.36669922,0.5000014655529729,0.4999737534769091,0.49994437592040664,1.35,28.05,22.35,0.5510253900000001,0.5886230450000001,0.9777832049999999,0.5000048629236283,0.4999891416958581,0.5001039203943223,62.85,9.9,91.65,0.11010741999999998,0.494140625,0.8166503900000001,0.4998334609445741,0.5001020551609506,0.5000284448525503,57.15,20.55,28.65
0.02807616999999999,0.5402832049999999,0.36279297,0.4999516371009602,0.499967225072842,0.49993378404077504,1.35,28.05,22.35,0.5485839849999999,0.5900878900000001,0.9953613299999999,0.5000458315607592,0.49991999463068737,0.5000832694840798,63.45,11.25,92.85,0.09814452999999998,0.502685545,0.810546875,0.49983792418780376,0.5000995237354036,0.5000225827279251,57.45,20.1,28.2
0.023193359999999986,0.5422363299999999,0.361083985,0.49993138587111635,0.49990453982742744,0.49995729938538597,0.3,27.75,20.55,0.540527345,0.6008300799999999,0.999023435,0.500035372937016,0.4999790160809362,0.5000710122112759,64.05,10.65,91.65,0.09155273499999998,0.49511719,0.8098144549999999,0.49984431933598245,0.5001236386006125,0.5000063284766012,55.5,20.25,29.4
0.02075195500000001,0.544921875,0.356689455,0.4999175298767177,0.49991086830402864,0.4999748192622168,0.75,29.4,22.05,0.5244140650000001,0.58544922,1.00317383,0.5000501615481006,0.4999807480584194,0.500066815479823,64.05,10.65,91.65,0.08715820500000002,0.49902344,0.8083496099999999,0.49984831622723597,0.5001030543619474,0.49999500382048323,58.35,20.7,27.75
0.005615234999999984,0.541015625,0.344970705,0.4998766944954752,0.49990294101856614,0.49996289508550074,1.35,27.3,19.5,0.5310058599999999,0.6022949200000001,1.0112304699999999,0.5000510275804753,0.4999717549876492,0.5001051194355184,63.15,10.5,91.5,0.07714844,0.5002441400000001,0.80078125,0.49985577716072244,0.5001097825189473,0.5000106584639425,56.4,20.1,28.65
-0.020751954999999954,0.55126953,0.35058594,0.4998802917063301,0.4998731638689314,0.5000151217071722,1.35,27.3,19.5,0.5283203150000001,0.6115722650000001,1.028564455,0.5000291776290366,0.49998168067510523,0.5000898644724577,64.05,11.1,93.15,0.08129883000000002,0.50732422,0.8112792950000001,0.4998494486841211,0.500104853011008,0.5000175865484083,56.4,20.1,28.65
-0.021484375,0.5490722650000001,0.35473633,0.49984032235746245,0.499846317737976,0.5000325749996921,-0.45,28.2,21.45,0.5458984400000001,0.6267089849999999,1.024414065,0.5000252473220941,0.49994577488906855,0.500111581168008,64.05,11.1,93.15,0.07641601500000002,0.515625,0.8112792950000001,0.49985677644898563,0.5001241048653222,0.5000033307863445,56.25,22.95,28.05
-0.03369140500000003,0.5458984400000001,0.357666015,0.4998248675542025,0.49986357119029656,0.5000218499514386,0.45,29.4,23.55,0.502441405,0.63720703,1.0092773449999999,0.4999875428869968,0.5000063950609122,0.5001440229990782,64.05,11.1,93.15,0.08251952999999998,0.525878905,0.811523435,0.4998603070755295,0.500104853011008,0.49997488593379424,56.25,22.95,28.05
-0.03955078000000003,0.5480957049999999,0.36669922,0.49984338663203015,0.499841654654547,0.5000407021253541,0.6,28.05,21.3,0.545410155,0.6101074200000001,1.0004882800000001,0.5000235153446109,0.49993764776340666,0.5001183759965854,63.15,10.8,91.2,0.08984375,0.51513672,0.8034667950000001,0.49983099619060445,0.5001576791532776,0.4999840788447639,57.15,21.15,27.15
-0.029785155000000032,0.55029297,0.37866211,0.4998293307974322,0.4998251339787128,0.5000710122112759,1.5,28.95,21.45,0.537597655,0.616210935,0.9909667950000001,0.5000080604540845,0.4999851447173381,0.5001169770279235,64.05,9.9,91.95,0.080078125,0.521484375,0.80029297,0.4998429869516315,0.5001766645830813,0.4999796822731117,56.7,20.85,28.2
-0.014160155000000032,0.5524902349999999,0.40161133,0.499790094225051,0.49989794483904937,0.5000541585266205,1.5,28.95,21.45,0.528808595,0.61767578,0.9924316400000001,0.5000321753192934,0.5000157213150367,0.5001374280107002,63.15,10.5,92.25,0.07373047000000002,0.513183595,0.796875,0.4998487159076347,0.5001930520902935,0.49994710718615304,57.0,21.75,28.05
-0.0017089849999999843,0.5769042950000001,0.405029295,0.4997980880075581,0.49990787061377195,0.5000411684773302,1.35,30.3,22.35,0.540527345,0.6154785150000001,1.013671875,0.49997635148676717,0.5000015321372838,0.5001500183795917,63.15,10.5,92.25,0.07666015499999998,0.5183105450000001,0.80029297,0.4998494486841211,0.5002048430111213,0.49997495251810525,57.9,20.85,27.45
0.0078125,0.587402345,0.407958985,0.4998172066932503,0.4999676914248182,0.5000743429976204,1.2,28.65,22.35,0.5300292950000001,0.62060547,1.002929685,0.4999958031812807,0.500015987739547,0.5001640743014563,63.6,10.65,91.95,0.07690429499999998,0.48120117,0.8107910150000001,0.49983386062497276,0.5002149019544657,0.49995456811963945,58.95,19.35,27.9
0.008300779999999975,0.5925292950000001,0.403564455,0.4998039502194497,0.5000399027645567,0.5000572894727656,1.05,28.65,22.5,0.5329589849999999,0.603515625,0.99316406,0.49998654368600004,0.5000243812897193,0.5001553476551963,63.75,10.8,92.55,0.06713866999999998,0.48535156,0.8125,0.4998457182173779,0.500165073502453,0.49992565700237956,57.6,22.2,26.25
