IMU1_AccX,IMU1_AccY,IMU1_AccZ,IMU1_GyrX,IMU1_GyrY,IMU1_GyrZ,IMU1_MagX,IMU1_MagY,IMU1_MagZ,IMU2_AccX,IMU2_AccY,IMU2_AccZ,IMU2_GyrX,IMU2_GyrY,IMU2_GyrZ,IMU2_MagX,IMU2_MagY,IMU2_MagZ,IMU3_AccX,IMU3_AccY,IMU3_AccZ,IMU3_GyrX,IMU3_GyrY,IMU3_GyrZ,IMU3_MagX,IMU3_MagY,IMU3_MagZ
-876.95312,76.17188,-402.83203,0.12617002615959527,0.05395859915465669,0.04170132635082572,-7.35,27.75,17.4,-414.55078,-21.97266,978.02734,0.03930324395858551,0.028245012350874635,0.03703833018827246,85.35,-1.65,77.7,-1027.34375,50.29297,53.71094,0.11750987694412462,-0.21716695550252443,0.0373046674321268,54.9,20.55,-9.3
-908.20312,86.42578,-426.26953,0.11977496524736285,0.007594102108352528,0.01678710034445706,-7.35,27.75,17.4,-396.97266,-15.625,979.98047,0.024914226006368657,0.037171498810199634,0.00373046674321268,86.4,-1.65,77.7,-1030.27344,57.12891,54.19922,0.07820680751846432,-0.20970602201609906,0.017986141540577164,55.65,19.35,-8.25
-922.85156,93.75,-421.875,0.13762793816601288,0.04463243229662499,0.07247776424879292,-7.35,27.75,17.4,-391.60156,-0.48828,983.88672,0.05915461887076901,0.011457912006417574,-0.03863705178309927,86.4,1.65,78.15,-1011.23047,57.61719,44.43359,0.048496242194690044,-0.2372848421914875,0.024514545607661954,55.65,19.35,-8.25
-921.38672,86.91406,-435.54687,0.13509651261892028,-0.0093261668580317,0.04396624012113876,-7.2,26.4,15.45,-393.55469,-7.32422,976.07422,0.032375159492794015,-0.04689734606693803,-0.03863705178309927,86.4,1.65,78.15,-1000.48828,37.10938,19.04297,0.05235987755982989,-0.17573196639555305,0.04836289903983767,54.6,20.1,-7.8
-951.17187,90.82031,-453.125,0.14562172067307208,-0.028777861371508503,0.08886518419454328,-7.2,26.4,15.45,-406.25,-9.76562,964.35547,0.03623896939085906,-0.041301645952119014,0.016520588567677526,86.4,1.65,78.15,-996.09375,60.05859,24.90234,0.04316687932372535,-0.14682076186919218,0.0033307863445059785,54.6,20.1,-7.8
-940.42969,82.03125,-438.47656,0.1618759719968953,-0.02238280045927608,0.09539358826162808,-7.5,27.45,17.25,-412.10937,1.95312,941.89453,0.05235987755982989,-0.0373046674321268,-0.0190520141147701,86.4,1.65,78.15,-1005.85937,51.75781,38.08594,0.07927250555973205,-0.12217304763960307,0.07127872305267281,55.2,19.95,-6.9
-957.51953,85.44922,-433.59375,0.1281684281531288,0.01625425132382319,0.06248540521527499,-7.5,27.45,17.25,-407.22656,0.48828,932.61719,0.008526806060618296,-0.04316687932372535,-0.02224963183734891,85.8,0.3,78.0,-1012.69531,54.6875,53.22266,0.07714093494427138,-0.09832469420742734,0.0664823837352672,55.2,19.95,-6.9
-963.86719,91.79688,-408.20312,0.14735378542275127,-0.04103530870826468,0.09419454706550798,-6.9,27.9,17.55,-414.55078,10.74219,914.0625,0.02518073778314819,-0.0006661921754862356,-0.07034601910040704,85.8,0.3,78.0,-1018.06641,54.19922,75.19531,0.07047936225525941,-0.10845022186287244,0.015721227770264124,55.2,19.95,-6.9
-941.89453,100.58594,-409.17969,0.18106132926651775,0.009992359033517936,0.04236751852631195,-6.9,27.9,17.55,-409.17969,15.13672,913.57422,0.019318525891549636,-0.04143498910697138,-0.025980098580561592,84.9,-0.15,78.15,-1024.41406,43.94531,76.17188,0.07287744464749962,-0.14668759324726502,0.017453292519943295,55.2,19.95,-6.9
-922.85156,104.98047,-399.90234,0.16267533279430868,0.001065872574192937,0.08500154882940344,-7.05,27.3,17.1,-389.64844,21.97266,910.15625,0.04276719892501865,-0.0559571756811154,-0.02851152412765417,84.9,-0.15,78.15,-1006.83594,46.38672,63.47656,0.030509926121187674,-0.17200149965234038,0.06341810916754076,55.5,19.2,-9.45
-911.13281,121.09375,-373.53516,0.1873230470238978,-0.033973881087620825,0.11391275335576431,-7.05,27.3,17.1,-405.76172,25.87891,908.20312,0.01492186697285072,-0.035039753661813756,-0.03916990080373314,84.9,-0.15,78.15,-986.32812,43.94531,71.28906,0.057689065897869374,-0.21410268093479798,0.011724423783197109,55.5,19.2,-9.45
-901.85547,119.62891,-367.1875,0.1841256038342442,-0.06461715036366086,0.14295712650405235,-7.05,27.3,17.1,-392.08984,10.25391,912.10937,0.026646290756047828,-0.02011788668896304,-0.011058231607710873,84.9,-0.15,78.15,-976.07422,55.17578,64.45313,0.07367680544491303,-0.19798159823290198,0.11697702792349074,54.6,21.15,-8.25
-898.4375,121.09375,-339.35547,0.16400771714528115,-0.05036147556629638,0.1528161423827179,-7.05,27.3,17.1,-377.44141,29.78516,910.15625,0.00839363743869113,0.010525208054151804,-0.0025314255470925756,85.5,0.0,79.35,-979.00391,34.66797,75.68359,0.08899852734939565,-0.16427405438913548,0.07607506237007844,54.6,21.15,-8.25
-878.41797,128.41797,-349.12109,0.12710255557893585,0.014255674797364485,0.08673361357908262,-7.05,28.05,16.35,-377.44141,18.55469,909.66797,0.0186523337160634,-0.05009496378951684,-0.09086376072100198,85.5,0.0,79.35,-971.67969,32.22656,88.37891,0.11018228661255162,-0.17053594667944072,0.05409194230950906,56.7,18.6,-8.25
-874.51172,143.55469,-356.93359,0.1341638086666545,0.0022649137703130416,0.12177336724089637,-7.05,28.05,16.35,-374.51172,14.64844,920.41016,0.06101985224237535,-0.05342575013402282,-0.05902145024884184,84.9,1.2,77.4,-968.75,21.97266,85.9375,0.12470447318669564,-0.14575488929499925,0.03597245761407953,56.7,18.6,-8.25
-896.48437,161.13281,-364.74609,0.103787051167394,0.00039968039870670147,0.10125580015322662,-6.6,27.3,18.45,-368.65234,10.74219,911.62109,0.02011788668896304,-0.04396624012113876,-0.07101221127589329,84.9,1.2,77.4,-971.67969,11.23047,68.84766,0.11790973187575651,-0.12403828101120941,0.0002665117767795341,54.45,20.7,-7.35
-893.06641,166.50391,-373.53516,0.1496186991930643,0.030376757499260505,0.06994633870170035,-6.6,27.3,18.45,-363.28125,17.57813,899.41406,0.04556513624889076,-0.03823737138439257,-0.08020520951199782,85.5,1.8,76.95,-964.84375,-8.30078,68.35938,0.06981317007977318,-0.13509651261892028,-0.031975479094087315,54.45,20.7,-7.35
-896.97266,141.60156,-389.16016,0.08127108208619076,0.0069280844657914915,0.08326948407972427,-7.65,27.75,17.7,-368.16406,18.06641,902.83203,0.04529862447211123,-0.008127125661911596,-0.11484528277510488,85.5,1.8,76.95,-947.75391,10.25391,55.66406,0.09446088430936231,-0.10685150026804564,-0.007061253087718659,55.8,18.0,-8.7
-898.4375,155.76172,-390.625,0.11830941227446322,-0.03677181841149293,0.13163238311956194,-7.65,27.75,17.7,-368.16406,22.46094,893.06641,0.021183759263155976,-0.02571358680378206,-0.08047172128877735,85.5,1.8,76.95,-963.86719,5.37109,72.26563,0.10765086106545904,-0.04902909121532391,0.0182526533173567,55.8,18.0,-8.7
-896.48437,126.95313,-397.94922,0.08686678220100978,-0.03863705178309927,0.09712565301130725,-7.65,27.75,17.7,-364.74609,29.78516,891.11328,0.01065855120900417,0.02891120452636087,-0.045032112695331694,85.5,1.8,76.95,-985.35156,-4.39453,70.3125,0.12870145170668787,-0.028245012350874635,-0.01252378458061051,54.75,19.5,-9.45
-902.34375,125.48828,-394.53125,0.05142717360756412,-0.03570594583729999,0.07887282516102534,-7.65,27.75,17.7,-390.13672,6.83594,876.46484,0.0011990411961201044,0.03930324395858551,-0.11124815918674456,85.65,1.65,77.1,-995.11719,15.13672,76.66016,0.15681312090271013,-0.0014655529728996386,0.020650910242522108,54.75,19.5,-9.45
-907.22656,126.46484,-390.625,0.05182702853919601,0.0182526533173567,0.04516545585018406,-6.45,25.35,15.45,-376.46484,6.83594,913.57422,-0.033973881087620825,0.023048992634762316,-0.0750091897958855,85.65,1.65,77.1,-1019.04297,20.99609,78.61328,0.1621424837736748,-0.04290054207987102,0.018385996472209065,54.75,19.5,-9.45
-903.80859,100.58594,-387.20703,0.02051756708766974,-0.023048992634762316,0.005728868736746187,-6.45,25.35,15.45,-388.67187,-7.32422,921.875,0.010392039432224637,0.05435827955336339,-0.09099692934292915,85.95,0.15,77.4,-1008.78906,5.85937,79.58984,0.16573960736203514,-0.09113009796485633,0.02238280045927608,54.75,19.5,-9.45
-894.04297,105.46875,-391.60156,0.04143498910697138,-0.014255674797364485,-0.04916225983725108,-7.05,26.25,16.65,-378.90625,2.92969,930.17578,-0.004263315763846549,0.011724423783197109,-0.10951609443706539,85.95,0.15,77.4,-1010.25391,9.76562,84.96094,0.25154051698885194,-0.1670719917130076,-0.06674889551204674,54.75,19.5,-9.45
-910.15625,100.09766,-381.83594,0.031309286918601076,-0.028111843728947466,0.03783769098568587,-7.05,26.25,16.65,-397.94922,-21.48438,953.61328,-0.06994633870170035,0.04223434990438478,-0.13123270272085524,85.35,-0.15,77.4,-994.62891,0.97656,64.45313,0.2595344740288364,-0.16573960736203514,0.05235987755982989,57.9,20.85,-7.8
-882.8125,115.23438,-382.8125,0.07647474276878514,-0.030509926121187674,-0.001065872574192937,-6.6,26.25,16.35,-389.16016,-41.99219,966.30859,-0.08486838020747627,0.017320123898016127,-0.13483000084214075,85.35,-0.15,77.4,-984.86328,11.71875,53.71094,0.30816388484545365,-0.23755135396826701,0.09299533133646266,57.9,20.85,-7.8
-882.8125,127.44141,-379.39453,0.05022813241144401,-0.03570594583729999,0.021583439661862675,-6.6,26.25,16.35,-394.04297,-70.80078,961.42578,0.016920443499309427,0.017986141540577164,-0.10938292581513821,87.6,0.3,77.25,-989.74609,26.36719,62.01172,0.3515972759459585,-0.20624189251674072,0.05822208945142844,56.1,20.1,-9.3
-859.86328,136.23047,-375.97656,0.08420218803199005,-0.05382543053272952,-0.015188378749630253,-8.25,26.7,15.45,-415.03906,-62.5,954.58984,0.015454890526409788,-0.010392039432224637,-0.1432236382808319,87.6,0.3,77.25,-987.79297,19.04297,60.54688,0.3039003945486819,-0.2372848421914875,0.08193727426167699,56.1,20.1,-9.3
-851.07422,138.18359,-374.02344,-0.022649312236055614,0.005462531492891852,-0.04436592051984546,-8.25,26.7,15.45,-405.27344,-68.84766,959.96094,-0.025313906405075356,-0.03570594583729999,-0.14508887165243822,86.85,0.3,77.25,-1001.95312,0.97656,72.26563,0.3126937123860797,-0.24634449727273963,0.053292581512095656,56.55,19.5,-8.4
-839.84375,143.55469,-381.34766,-0.022516143614128445,-0.007860613885132062,-0.044099583275991124,-8.25,26.7,15.45,-427.73437,-57.12891,961.91406,0.04942877161403061,-0.03250850264764638,-0.1881225823542364,86.85,0.3,77.25,-1004.39453,34.17969,65.91797,0.32615002638603074,-0.2776539587242659,0.10432007472095307,56.55,19.5,-8.4
-842.77344,138.18359,-379.88281,0.03264167126957355,-0.0470306892217904,-0.024514545607661954,-8.25,26.7,15.45,-448.24219,-20.01953,960.44922,0.06195255619464112,-0.09179629014034256,-0.13696174599052663,86.4,0.9,77.4,-1009.27734,25.87891,59.08203,0.3269493871834442,-0.2761884057513663,0.08380250763328333,55.2,19.95,-7.95
-853.02734,124.02344,-406.73828,0.03224199087086685,-0.03557277721537283,-0.02051756708766974,-6.6,27.3,15.6,-433.10547,-82.51953,936.03516,0.07754061534297808,-0.07647474276878514,-0.1793292645168386,86.4,0.9,77.4,-998.53516,26.85547,43.94531,0.34147174829051335,-0.28844567855519726,0.09779167065386828,55.2,19.95,-7.95
-857.42187,128.41797,-443.35937,-0.0035972981212855125,-0.04330022247857772,-0.094860564708069,-6.6,27.3,15.6,-418.94531,-42.96875,917.96875,0.1115144964305989,-0.1065849884912661,-0.16094326804462952,86.4,0.9,77.4,-986.81641,45.41016,58.10547,0.3237519439937906,-0.2254272497863632,0.09699230985645488,54.9,19.35,-8.55
-871.58203,95.70313,-489.74609,0.07394331722169258,0.007327764864498192,-0.08033837813392498,-7.05,27.3,17.1,-443.84766,-28.80859,891.11328,0.08993105676873621,-0.03184231047216015,-0.17426641342265342,86.4,0.9,77.4,-998.04687,58.59375,66.89453,0.32481781656798353,-0.18319289988197843,0.07514235841781267,54.9,19.35,-8.55
-886.71875,81.05469,-465.33203,-0.01119140022963804,0.0041301471419193814,-0.08127108208619076,-7.05,27.3,17.1,-421.875,-33.69141,903.80859,0.10325420214676014,-0.021716608283789844,-0.24221435013082027,86.55,0.0,78.3,-1011.71875,75.19531,67.87109,0.33347779125052895,-0.1329647674705344,0.09019756854551575,55.5,18.0,-5.85
-907.71484,82.03125,-438.47656,0.01305663360124438,0.0019984019935335075,-0.12510415358540233,-7.2,25.65,16.5,-423.82812,-11.23047,928.71094,0.08153759386297028,0.02518073778314819,-0.18559115680714383,86.55,0.0,78.3,-1023.4375,87.40234,66.40625,0.2963062924403293,-0.1358958734163337,0.10112245699837426,55.5,18.0,-5.85
-924.80469,83.00781,-411.13281,0.020251229843815406,0.02411486520895525,-0.1276355791324949,-7.2,25.65,16.5,-410.15625,-4.88281,963.37891,0.09632611768096865,0.05076115596500308,-0.2395497559618005,85.65,0.9,78.45,-1041.99219,58.10547,93.75,0.23981626773858006,-0.13496316946406792,0.05555749528240869,55.5,18.0,-5.85
-919.43359,84.96094,-419.43359,0.022915824012835147,-0.023048992634762316,-0.0839356762552105,-7.2,25.65,16.5,-407.71484,-22.46094,974.12109,0.0575558972759422,0.10325420214676014,-0.24061562853599347,85.65,0.9,78.45,-1030.27344,89.84375,103.02734,0.29524041986613636,-0.2424808619075998,0.05182702853919601,55.5,18.0,-5.85
-900.87891,84.47266,-430.17578,0.03184231047216015,-0.04529862447211123,-0.09019756854551575,-7.2,25.65,16.5,-423.82812,10.74219,985.83984,0.05808874629657607,0.04449926367469782,-0.22729248315796954,85.8,0.3,78.45,-1031.25,68.35938,72.75391,0.26819444871138187,-0.21117157498899872,0.07194491522815906,57.3,19.2,-6.6
-909.17969,91.30859,-438.96484,0.0676814249313873,-0.09472739608614184,-0.05475795995207009,-8.7,27.0,16.35,-397.94922,20.99609,993.16406,0.06355127778946792,0.030509926121187674,-0.2343537362456882,85.8,0.3,75.75,-1032.71484,90.33203,70.3125,0.2488759228198322,-0.19078717652325616,0.05822208945142844,57.3,19.2,-6.6
-937.01172,97.16797,-435.54687,0.07034601910040704,-0.07460950939717881,-0.06381778956624745,-8.7,27.0,16.35,-421.875,25.87891,970.70312,0.10551911591707318,-0.03304135166828025,-0.2115712553877054,85.8,0.3,75.75,-1030.27344,77.14844,79.58984,0.24341339132694037,-0.2019785767528942,0.09352835489002174,57.3,19.2,-6.6
-937.5,103.02734,-432.61719,0.022915824012835147,-0.10818371008609293,-0.096459460835821,-7.35,27.0,18.15,-422.36328,25.87891,947.26562,0.0458314734927451,-0.03330786344505979,-0.16973658588202734,86.7,0.45,79.2,-1018.55469,85.9375,85.9375,0.20983919063802625,-0.17586530955040544,0.07261110740364529,57.3,19.2,-6.6
-938.47656,104.49219,-424.80469,0.02571358680378206,-0.09845786282935451,-0.06928032105913931,-7.35,27.0,18.15,-420.89844,20.99609,938.47656,0.09579326866033477,0.006794741310939124,-0.17972894491554528,86.7,0.45,79.2,-1018.55469,83.00781,68.35938,0.19651604526000233,-0.13656206559181994,0.07727410356619854,56.25,19.5,-6.9
-927.73437,91.30859,-416.99219,-0.007594102108352528,-0.14895250701757806,-0.1204409828899239,-6.9,27.0,18.15,-418.94531,10.74219,931.64062,0.12417144963313657,-0.009592678634811233,-0.20371064150257337,85.95,-0.9,77.4,-1020.01953,101.5625,56.64063,0.17013626628073403,-0.07807346436361194,0.05542415212755633,56.25,19.5,-6.9
-909.66797,84.96094,-424.80469,0.0373046674321268,-0.16400771714528115,-0.07354363682298586,-6.9,25.65,16.2,-418.94531,19.04297,937.98828,0.10685150026804564,0.011724423783197109,-0.1476202971995308,85.95,-0.9,77.4,-1024.41406,67.87109,98.63281,0.15161710118659782,-0.10525260414029364,0.06794793670816685,56.1,19.8,-6.45
-922.36328,85.44922,-417.48047,0.057689065897869374,-0.2157014025296248,-0.10045643935581322,-6.9,25.65,16.2,-409.66797,11.23047,935.05859,0.047696706864351436,-0.015055210127703087,-0.1726676918278266,86.25,0.3,78.0,-1015.625,99.60938,86.91406,0.22436137721217028,-0.15161710118659782,0.06248540521527499,56.1,19.8,-6.45
-913.57422,41.50391,-418.45703,0.022649312236055614,-0.19491732366517553,-0.08073805853263168,-7.35,26.55,17.4,-406.25,16.11328,929.6875,0.05089432458693025,-0.015454890526409788,-0.17946243313876573,86.25,0.3,78.0,-1005.85937,88.37891,74.21875,0.20037985515806736,-0.1325650870718277,0.04649766566823133,56.1,19.8,-6.45
-897.46094,32.22656,-414.55078,0.04036911653277844,-0.20570904349610689,-0.12017464564606957,-7.35,26.55,17.4,-409.66797,15.625,943.84766,0.03210864771601448,-0.006261892290305255,-0.13149921449763477,86.25,0.3,78.0,-1007.32422,104.00391,83.00781,0.22076425362380997,-0.08073805853263168,0.06101985224237535,57.45,18.3,-6.45
-900.87891,-10.25391,-416.99219,0.08646710180230308,-0.17826339194264562,-0.08926486459324998,-7.35,26.55,17.4,-403.80859,28.80859,947.75391,0.051960197161123184,-0.014522186574144018,-0.19651604526000233,86.25,0.3,78.0,-1010.25391,101.5625,92.77344,0.18878859999679742,-0.07727410356619854,0.04982845201273731,57.45,18.3,-6.45
-912.59766,13.18359,-400.87891,0.09952373540354745,-0.1893216235503565,-0.0831363154577971,-7.35,26.55,17.4,-389.16016,19.53125,965.82031,0.06501683076236757,0.005995380513525721,-0.17133530747685413,86.55,-0.3,77.55,-1022.94922,115.72266,95.21484,0.17373356440201956,-0.11804290049768368,0.0454317930940384,56.7,19.35,-7.2
-915.52734,5.85937,-415.03906,0.15734614445626918,-0.22889120475279634,-0.06754825630946014,-6.9,26.4,18.3,-399.90234,38.08594,973.63281,0.06941348968106648,-0.01119140022963804,-0.13522968124084744,86.55,-0.3,77.55,-1003.41797,97.65625,83.49609,0.21703361234767207,-0.11497862592995724,-0.007727445263204894,56.7,19.35,-7.2
-927.73437,16.60156,-420.41016,0.19145336869874238,-0.26486366236687586,-0.04023577337792608,-6.9,26.4,18.3,-389.64844,36.62109,946.28906,0.041301645952119014,-0.03424039286440035,-0.14775346582145796,85.5,-1.05,78.6,-993.65234,82.03125,83.00781,0.23661865001600124,-0.19838127863160868,0.03863705178309927,56.7,19.35,-7.2
-935.05859,16.60156,-418.45703,0.18226037046263785,-0.27019302523784056,-0.032375159492794015,-5.55,27.75,16.65,-375.97656,39.55078,957.51953,0.061419532641082054,-0.04196783812760525,-0.11244720038286467,85.5,-1.05,78.6,-987.79297,83.49609,71.77734,0.22116393402251666,-0.20650840429352027,0.04836289903983767,56.7,19.35,-7.2
-954.58984,24.90234,-396.48437,0.12656970655830196,-0.24554513647532625,-0.08286980368101757,-5.55,27.75,16.65,-387.69531,31.25,934.08203,0.08047172128877735,-0.047430369620497105,-0.07887282516102534,85.05,-0.75,77.55,-990.23437,80.56641,80.56641,0.22782550671152862,-0.17293420360460615,0.06475031898558803,55.35,19.35,-7.2
-941.40625,42.48047,-390.625,0.13323127924731393,-0.2603338348262498,-0.061819213039788753,-6.15,27.45,16.2,-381.83594,22.46094,910.64453,0.06075351499852101,-0.07860648791717102,-0.13363095964602065,85.05,-0.75,77.55,-990.23437,67.38281,63.96484,0.21903218887413078,-0.1474869540446784,0.08420218803199005,55.35,19.35,-7.2
-934.57031,50.29297,-401.36719,0.15907803467302317,-0.26646255849462785,-0.05102749320885741,-6.15,27.45,16.2,-389.16016,25.87891,921.38672,0.03970292435729221,-0.03863705178309927,-0.11044862385640596,85.05,-0.75,77.55,-994.62891,86.42578,90.82031,0.20464317092191392,-0.1805283057129587,0.08806582339712987,55.35,19.35,-7.2
-939.45312,61.52344,-402.34375,0.1775971997671594,-0.33068002845958205,-0.005196019716112318,-6.15,27.45,16.2,-400.87891,19.53125,921.875,0.03930324395858551,-0.03623896939085906,-0.1009892883764471,85.05,-0.75,77.55,-986.32812,74.70703,88.86719,0.1897213039490632,-0.1513507639427435,0.07460950939717881,55.35,19.35,-7.2
-935.05859,50.29297,-411.13281,0.19771508645612243,-0.29524041986613636,-0.004929507939332785,-6.15,27.45,16.2,-380.37109,5.85937,926.75781,0.03597245761407953,-0.011591080628344743,-0.13069985370022136,85.95,-0.15,77.7,-1002.92969,60.05859,79.58984,0.16507358971947408,-0.18092798611166538,0.004396658918698916,56.7,18.6,-8.55
-927.24609,53.22266,-393.55469,0.1877227274226045,-0.32335226359508384,0.02731248293153406,-5.55,25.5,17.4,-387.69531,3.90625,931.15234,0.05462479133014293,0.015454890526409788,-0.10791737284223858,85.95,-0.15,77.7,-978.51562,67.87109,78.61328,0.12683621833508152,-0.1386936362072806,0.03877022040502644,56.7,18.6,-8.55
-916.01562,49.31641,-383.78906,0.11551147495059111,-0.24541196785339908,0.003996978519992214,-5.55,25.5,17.4,-388.67187,25.39063,938.47656,0.05076115596500308,0.015588059148336955,-0.062219067971420655,86.25,0.3,78.0,-984.86328,52.73438,87.40234,0.14095872451051883,-0.11044862385640596,-0.0017320647496791726,57.45,18.6,-6.45
-918.45703,66.40625,-387.20703,0.1309663654770009,-0.31962179685187114,0.0559571756811154,-6.6,26.55,18.45,-386.71875,17.57813,931.64062,-0.0022649137703130416,0.025846929958634426,-0.0660827033365605,86.25,0.3,78.0,-978.02734,76.17188,93.75,0.1398928519363259,-0.11830941227446322,0.03570594583729999,57.45,18.6,-6.45
-930.66406,87.40234,-384.27734,0.11564464357251827,-0.28684678242744527,0.03877022040502644,-6.6,26.55,18.45,-408.20312,19.04297,912.59766,0.020650910242522108,0.02331550441154185,-0.09699230985645488,86.25,0.3,78.0,-992.67578,76.17188,98.14453,0.16041041902399564,-0.14282395788212518,0.04156815772889855,55.8,19.95,-7.65
-914.0625,89.84375,-387.20703,0.1228392398150893,-0.30816388484545365,0.10725118066675235,-5.4,26.7,16.5,-391.60156,1.95312,928.71094,0.03304135166828025,0.029577396701847107,-0.08513471745133061,86.25,0.3,78.0,-1010.25391,96.67969,92.28516,0.14388983045631812,-0.14921901879435762,0.021716608283789844,55.8,19.95,-7.65
-907.71484,61.52344,-391.11328,0.09579326866033477,-0.3198883086286507,0.1009892883764471,-5.4,26.7,16.5,-412.10937,9.76562,943.35937,0.03543943406052046,0.03464007326310706,-0.11164783958545127,85.5,0.0,77.55,-1006.83594,60.05859,87.89063,0.15628027188207627,-0.21783314767801065,-0.01252378458061051,58.2,18.3,-7.8
-898.92578,69.82422,-384.76562,0.11577798672737065,-0.2959066120416226,0.11298004940349854,-6.15,27.15,17.25,-399.41406,23.92578,934.08203,0.023715184810248553,0.02571358680378206,-0.11910877307187663,85.5,0.0,77.55,-994.62891,90.82031,90.82031,0.16147629159818858,-0.22835835573216248,-0.013722825776730615,58.2,18.3,-7.8
-895.99609,64.45313,-362.79297,0.08566774100488968,-0.30336754552804795,0.013189976756096747,-6.15,27.15,17.25,-414.0625,-4.39453,931.64062,0.02238280045927608,-0.02224963183734891,-0.1394931715376192,87.6,-0.75,77.25,-1001.95312,84.96094,71.28906,0.17213484280719277,-0.1851914764084371,0.010525208054151804,56.7,20.1,-8.25
-886.71875,75.68359,-343.75,0.07967236049136395,-0.2198315496715442,0.02238280045927608,-6.15,27.15,17.25,-400.87891,13.18359,930.66406,0.0656830229378538,0.02518073778314819,-0.103787051167394,87.6,-0.75,77.25,-981.44531,99.12109,80.56641,0.14921901879435762,-0.19558351584066178,0.03783769098568587,56.7,20.1,-8.25
-893.06641,92.28516,-337.89062,0.043699902877284424,-0.20744110824578604,0.0660827033365605,-6.15,27.15,17.25,-390.625,18.55469,951.17187,0.0462311538914518,0.05742272865401504,-0.08766614299842318,84.6,-0.9,77.7,-981.44531,87.40234,78.61328,0.19278557851678965,-0.2050428513206206,0.0458314734927451,57.6,18.45,-7.35
-883.30078,100.09766,-334.47266,0.04383307149921159,-0.1700030976588069,0.058888281626914674,-6.45,26.7,16.5,-385.74219,10.25391,949.70703,0.023981696587028086,-0.010525208054151804,-0.13309793609246157,84.6,-0.9,77.7,-986.32812,103.51563,93.26172,0.21383616915801848,-0.11870909267316991,-0.0025314255470925756,57.6,18.45,-7.35
-909.17969,82.03125,-347.16797,0.010392039432224637,-0.15548091108466286,0.047830050019203804,-6.45,26.7,16.5,-401.36719,-2.92969,972.65625,0.031309286918601076,-0.002664594169019743,-0.0920628019171221,84.6,-0.9,77.7,-1011.23047,103.02734,76.17188,0.18599083720585052,-0.11617766712607734,-0.03250850264764638,57.6,18.45,-7.35
-914.0625,70.80078,-349.12109,0.09619294905904148,-0.2250275693876565,0.05489130310692246,-4.95,26.25,17.1,-385.74219,16.11328,935.54687,0.017053612121236593,-0.0381042027624654,-0.11377941020091194,84.6,-0.9,77.7,-988.28125,98.14453,85.44922,0.15548091108466286,-0.08606742140359638,0.023981696587028086,57.6,18.45,-7.35
-941.89453,92.77344,-362.79297,0.05036147556629638,-0.22582693018506989,0.06475031898558803,-4.95,26.25,17.1,-410.15625,14.16016,953.125,0.0559571756811154,0.01065855120900417,-0.13696174599052663,86.7,-0.9,77.7,-992.1875,103.02734,93.75,0.1771975193684527,-0.0486294108166172,-0.005462531492891852,57.6,18.45,-7.35
-947.26562,69.33594,-372.55859,0.05062781281015071,-0.19145336869874238,0.031442630073453444,-6.3,25.05,17.4,-385.74219,19.04297,929.19922,0.047696706864351436,-0.03930324395858551,-0.09259565093775597,86.7,-0.45,77.4,-990.23437,93.75,96.19141,0.13483000084214075,-0.03677181841149293,-0.02704597115475453,57.15,19.05,-5.4
-945.3125,97.65625,-379.88281,0.02891120452636087,-0.17866307234135234,0.002131745148385874,-6.3,25.05,17.4,-378.41797,9.27734,943.84766,0.02145027103993551,-0.017852972918649995,-0.061819213039788753,86.7,-0.45,77.4,-992.67578,108.39844,86.42578,0.08566774100488968,-0.03663864978956576,-0.012257272803830977,57.15,19.05,-5.4
-944.33594,79.10156,-376.46484,0.0291777163031404,-0.14135840490922555,-0.007194421709645826,-6.3,25.05,17.4,-390.13672,17.08984,947.26562,-0.011857592405124276,-0.07900616831587771,-0.06821444848494637,85.95,0.15,78.9,-997.55859,105.95703,99.60938,0.09885754322806121,-0.01358965715480345,-0.022649312236055614,55.65,18.6,-5.4
-944.33594,88.37891,-386.71875,0.022915824012835147,-0.18146100966522447,-0.0462311538914518,-6.3,25.05,17.4,-393.55469,0.0,927.24609,0.016520588567677526,-0.04916225983725108,-0.0932618431132422,85.95,0.15,78.9,-997.55859,101.07422,83.49609,0.07407648584361974,0.02278248085798278,-0.021316927885083145,55.65,18.6,-5.4
-960.44922,95.70313,-383.78906,0.029577396701847107,-0.21716695550252443,0.012390441425758144,-6.0,25.5,17.1,-398.4375,10.25391,912.10937,-0.0031976177225788113,-0.07740727218812571,-0.08540122922811014,86.55,-1.05,77.25,-1000.97656,98.63281,84.47266,0.09579326866033477,0.024514545607661954,0.005062851094185151,57.45,18.6,-7.2
-933.10547,91.79688,-388.18359,0.08593407824874401,-0.2476768816237121,0.06208572481656829,-6.0,25.5,17.1,-410.15625,21.48438,934.08203,-0.007860613885132062,0.02091724748637644,-0.07687442316749184,86.55,-1.05,77.25,-997.07031,99.12109,82.03125,0.02464771422958912,0.011857592405124276,-0.008127125661911596,57.45,18.6,-7.2
-928.71094,76.17188,-383.30078,0.05089432458693025,-0.17666467034781883,0.006661572689011957,-4.95,25.8,17.4,-416.50391,22.46094,920.89844,-0.008926486459324997,-0.003463954966433146,-0.031309286918601076,85.05,0.75,77.25,-981.93359,99.12109,104.00391,0.024914226006368657,0.08073805853263168,-0.04063545377663278,56.55,19.5,-6.3
-941.40625,107.91016,-379.88281,0.010525208054151804,-0.24328022270501318,-0.015987739547043658,-4.95,25.8,17.4,-383.30078,17.57813,924.31641,-0.04276719892501865,-0.00652840406708479,-0.04143498910697138,85.05,0.75,77.25,-1004.39453,94.72656,84.96094,0.03490658503988659,0.03543943406052046,-0.0575558972759422,56.55,19.5,-6.3
-958.00781,128.41797,-373.04687,-0.04183466950567808,-0.22822518711023532,-0.030110245722480975,-5.1,25.8,17.4,-389.64844,21.48438,950.68359,-0.023182161256689485,-0.007993957039984428,-0.08406884487713767,85.8,-1.8,77.55,-992.1875,104.00391,103.02734,0.04223434990438478,0.04223434990438478,-0.04636449704630416,56.7,17.85,-6.75
-940.42969,115.23438,-386.71875,0.07940584871458442,-0.3036340573048275,0.006261892290305255,-5.1,26.1,17.25,-387.20703,-1.46484,960.9375,-0.04916225983725108,0.01492186697285072,-0.05475795995207009,85.8,-1.8,77.55,-993.65234,100.09766,103.51563,0.01851916509413623,-0.005995380513525721,-0.07887282516102534,56.7,17.85,-6.75
-925.78125,107.42188,-388.18359,0.05182702853919601,-0.3003032709603215,0.027179139776681696,-5.1,26.1,17.25,-385.25391,-0.48828,960.44922,-0.04116847733019184,-0.04649766566823133,-0.08100457030941122,85.35,-0.9,77.4,-984.86328,99.60938,111.81641,0.01678710034445706,-0.0025314255470925756,-0.04902909121532391,56.7,17.85,-6.15
-929.19922,106.44531,-366.69922,0.015987739547043658,-0.31535830655509944,-0.015987739547043658,-5.55,25.5,17.4,-369.62891,-13.18359,949.70703,-0.04689734606693803,0.017053612121236593,-0.0361056262360067,85.35,-0.9,77.4,-981.93359,93.26172,94.23828,0.028777861371508503,0.07021285047847989,-0.0377045223637587,56.7,17.85,-6.15
-915.03906,106.44531,-351.07422,-0.01025887081029747,-0.2836493392377916,-0.10698466888997281,-5.55,25.5,17.4,-369.14062,-0.97656,948.24219,0.015055210127703087,-0.04889592259339674,-0.04063545377663278,85.35,-0.9,77.4,-970.21484,102.05078,75.19531,0.010924888452858507,-0.007194421709645826,-0.05462479133014293,56.7,17.85,-6.15
-905.27344,105.95703,-331.05469,-0.05995397966818241,-0.29310867471775054,-0.06168604441786158,-5.55,25.5,17.4,-390.13672,-7.8125,917.96875,0.03743801058697916,-0.06714857591075343,-0.030509926121187674,85.35,-0.9,77.4,-978.51562,100.09766,82.51953,-0.01119140022963804,0.10791737284223858,-0.01119140022963804,56.7,17.85,-6.15
-895.50781,99.60938,-336.91406,-0.07634157414685798,-0.279918872494579,-0.08180393110682463,-5.55,25.5,17.4,-387.69531,-10.25391,919.43359,-0.002664594169019743,-0.05489130310692246,-0.07847314476231865,86.55,-1.8,79.8,-971.19141,84.96094,66.89453,-0.08979788814680904,0.10871673363965198,-0.06674889551204674,55.8,19.2,-5.55
-903.32031,91.30859,-343.75,-0.0069280844657914915,-0.2819172744881125,-0.051960197161123184,-5.25,25.8,18.15,-385.25391,1.46484,928.71094,-0.01065855120900417,-0.04316687932372535,-0.08180393110682463,86.55,-1.8,79.8,-987.79297,68.84766,95.21484,-0.04383307149921159,0.13483000084214075,-0.03464007326310706,55.8,19.2,-5.55
-915.03906,89.35547,-341.30859,-0.04529862447211123,-0.29710565323774274,-0.09659262945774817,-5.25,25.8,18.15,-383.30078,-0.48828,929.6875,-0.017586461141870464,-0.02424803383088242,-0.04956194023595778,85.5,0.0,78.0,-992.1875,88.37891,86.91406,-0.08033837813392498,0.14841965799694418,-0.0381042027624654,55.8,19.2,-5.55
-916.01562,68.35938,-354.98047,0.06355127778946792,-0.23368754407020198,-0.10831705324094529,-4.5,25.8,17.7,-380.37109,6.34766,926.75781,0.02091724748637644,-0.021849951438642212,-0.0190520141147701,85.5,0.0,78.0,-993.65234,70.3125,92.77344,-0.07953901733651159,0.15921137782787553,-0.031575798695380616,55.8,19.2,-5.55
-949.70703,70.3125,-348.63281,-0.02331550441154185,-0.2242282085902431,-0.09685914123452771,-4.5,25.8,17.7,-380.37109,-3.90625,928.71094,-0.014522186574144018,-0.004796339317405617,-0.0750091897958855,87.15,0.15,78.45,-990.23437,78.125,84.96094,-0.07900616831587771,0.17679783896974602,-0.04023577337792608,56.4,17.85,-6.15
-935.54687,60.05859,-354.98047,-0.023182161256689485,-0.2600673230494703,-0.17626498994911213,-5.7,26.1,18.3,-382.8125,-1.95312,924.31641,0.009859190411590769,-0.055290983505629165,-0.014122506175437317,87.15,0.15,78.45,-980.46875,59.57031,84.96094,-0.09299533133646266,0.1990474708070949,-0.0831363154577971,56.4,17.85,-6.15
-946.28906,36.62109,-344.72656,-0.005329188338039486,-0.231955653853448,-0.1881225823542364,-5.7,26.1,18.3,-399.41406,2.92969,930.17578,-0.022649312236055614,-0.016120908168970823,-0.01305663360124438,87.15,0.15,78.45,-988.28125,65.91797,75.19531,-0.07820680751846432,0.18465845285487806,-0.053558918755949994,57.0,19.5,-6.6
-946.28906,48.82813,-342.28516,0.0470306892217904,-0.2951072512442092,-0.11058196701125833,-5.7,26.1,18.3,-382.32422,3.41797,930.66406,-0.010525208054151804,0.008260294283838763,0.015721227770264124,87.15,0.15,78.45,-1014.64844,76.17188,89.35547,-0.09885754322806121,0.2238285281915364,-0.1111148160318922,57.0,19.5,-6.6
-951.17187,39.55078,-329.58984,0.0920628019171221,-0.3409387247369543,-0.07687442316749184,-5.7,26.1,18.3,-385.25391,2.92969,933.59375,-0.0033307863445059785,-0.019718206290256335,0.011058231607710873,84.75,-1.05,77.25,-1003.41797,50.78125,87.89063,-0.10538594729514601,0.2087733180638333,-0.08047172128877735,57.0,19.5,-6.6
-932.61719,53.71094,-327.14844,0.0863337586474507,-0.3186890928996054,-0.04889592259339674,-5.4,25.65,17.25,-397.94922,-5.37109,950.68359,-0.009992359033517936,0.008926486459324997,-0.012790121824464847,84.75,-1.05,77.25,-1005.85937,63.47656,107.42188,-0.05422511093143622,0.14495552849758583,-0.03557277721537283,56.55,19.2,-6.9
-915.52734,55.17578,-319.33594,0.04916225983725108,-0.2740566606029804,-0.12803525953120162,-5.4,25.65,17.25,-396.97266,-5.37109,948.24219,-0.02651294760119546,0.022649312236055614,0.0031976177225788113,86.25,-1.05,78.3,-1009.27734,56.64063,104.49219,-0.07833997614039148,0.13363095964602065,-0.08247012328231085,56.55,19.2,-6.9
-924.31641,58.10547,-322.26562,0.04343339110050489,-0.24541196785339908,-0.10165548055193334,-3.45,25.8,17.4,-405.27344,-3.90625,942.38281,-0.020251229843815406,-0.019185357269622467,0.019318525891549636,86.25,-1.05,78.3,-1003.41797,63.47656,99.60938,0.0029311059457992773,0.10192181779578767,-0.07567538197137175,56.4,18.6,-7.5
-947.75391,31.73828,-333.49609,0.034773416417959425,-0.24101530893470016,-0.1897213039490632,-3.45,25.8,17.4,-398.4375,-15.13672,947.26562,-0.04076879693148514,0.017320123898016127,-0.060087322823034785,86.25,-1.05,78.3,-998.04687,44.43359,91.79688,-0.03104294967474674,0.07181157207330668,-0.08500154882940344,56.4,18.6,-7.5
-935.05859,68.84766,-322.26562,0.07021285047847989,-0.2756553821978072,-0.08326948407972427,-4.65,25.35,18.6,-404.78516,-18.55469,941.89453,-0.05995397966818241,0.03543943406052046,-0.02851152412765417,86.25,-1.05,78.3,-1015.13672,64.94141,110.35156,-0.04303371070179819,0.09712565301130725,-0.08233695466038368,56.4,18.6,-7.5
-941.89453,46.875,-315.91797,0.07594189374815126,-0.21996471829347133,-0.06355127778946792,-4.65,25.35,18.6,-411.62109,-13.18359,935.05859,-0.02611326720248876,-0.023981696587028086,0.004929507939332785,87.6,-1.05,78.6,-1014.16016,66.40625,108.39844,-0.0571562168772355,0.04942877161403061,-0.05062781281015071,56.4,18.6,-7.5
-943.84766,47.85156,-327.14844,0.08460186843069674,-0.22036439869217805,-0.008526806060618296,-4.65,26.4,19.35,-402.83203,-18.55469,939.45312,-0.04290054207987102,-0.04316687932372535,-0.0462311538914518,87.6,-1.05,78.6,-1004.39453,56.15234,119.14063,-0.05142717360756412,0.06728174453268061,-0.027712163330240767,56.1,17.55,-8.25
-930.17578,48.33984,-323.73047,0.015588059148336955,-0.16094326804462952,-0.06861412888365308,-4.65,26.4,19.35,-408.69141,-26.36719,950.68359,-0.025447249559927724,0.010791719830931338,-0.056356856079822104,85.95,-0.15,78.45,-1023.4375,54.19922,116.21094,-0.035173096816666125,0.0369049870334201,-0.1029876903699806,56.1,17.55,-8.25
-953.61328,25.87891,-309.08203,0.04343339110050489,-0.1508177403891844,-0.05062781281015071,-4.65,26.4,19.35,-401.85547,-21.48438,948.73047,-0.011857592405124276,0.008526806060618296,-0.01638741994575036,85.95,-0.15,78.45,-998.53516,55.66406,104.98047,-0.03903673218180597,0.01678710034445706,-0.0632847660126884,56.1,17.55,-8.25
-939.94141,28.80859,-296.875,0.010392039432224637,-0.1151117945518844,-0.03344103206698695,-4.65,26.4,19.35,-396.48437,-22.46094,939.45312,0.005196019716112318,0.004796339317405617,-0.06155287579593442,85.05,-1.8,78.6,-1004.88281,45.89844,102.53906,-0.039569755735365045,0.02411486520895525,-0.08167076248489745,56.1,17.55,-8.25
-946.77734,53.22266,-280.27344,0.09619294905904148,-0.1849249646316576,-0.06368444641139509,-4.65,26.1,17.25,-397.94922,-32.71484,944.82422,0.015321547371557422,-0.031442630073453444,-0.06208572481656829,85.05,-1.8,78.6,-993.16406,57.12891,96.67969,-0.03210864771601448,0.047830050019203804,-0.04156815772889855,57.0,19.5,-5.25
-915.52734,47.36328,-274.41406,0.07460950939717881,-0.11471211415317771,-0.011724423783197109,-4.65,26.1,17.25,-405.27344,-28.32031,926.75781,0.0014655529728996386,-0.026379778979268294,-0.028644692749581334,85.05,-1.8,78.6,-1019.53125,57.12891,108.39844,-0.034773416417959425,-0.03637213801278623,-0.06861412888365308,57.0,19.5,-5.25
-922.36328,64.45313,-287.10937,0.10791737284223858,-0.14868599524079854,-0.03104294967474674,-3.3,26.1,19.65,-403.32031,-31.25,923.33984,0.02744565155346123,-0.05435827955336339,-0.06315159739076123,85.05,-1.8,78.6,-1028.80859,51.75781,104.98047,-0.034107224242473186,-0.013989337553510148,-0.05182702853919601,56.25,18.0,-7.65
-902.34375,57.12891,-286.62109,0.0022649137703130416,-0.02558041818185489,-0.09859103145128169,-3.3,26.1,19.65,-388.67187,-32.22656,932.61719,-0.003463954966433146,-0.04103530870826468,-0.026646290756047828,85.05,-1.8,78.6,-1001.95312,49.31641,116.69922,-0.0006661921754862356,0.0069280844657914915,-0.08127108208619076,56.25,18.0,-7.65
-915.52734,67.38281,-295.41016,0.019984718067035872,0.01065855120900417,-0.06888046612750741,-3.6,24.9,19.65,-399.90234,-25.87891,951.17187,0.03557277721537283,0.0011990411961201044,-0.04609798526952463,85.35,-1.95,77.7,-1004.39453,56.64063,110.83984,-0.0369049870334201,-0.0482297304179105,-0.02851152412765417,56.25,18.45,-6.9
-923.33984,49.31641,-286.62109,-0.020650910242522108,0.0361056262360067,-0.08100457030941122,-3.6,24.9,19.65,-402.83203,-19.53125,936.52344,0.017186780743163762,-0.06115319539722772,-0.02145027103993551,85.35,-1.95,77.7,-1015.13672,42.48047,98.14453,-0.03277483989150072,-0.05475795995207009,-0.009992359033517936,56.25,18.45,-6.9
-937.98828,45.41016,-274.41406,-0.0046631706954784495,-0.008127125661911596,-0.07154523482945235,-3.3,27.15,16.8,-394.04297,-12.20703,925.29297,0.0275788201753884,0.02198312006056938,-0.02744565155346123,85.35,-1.95,78.9,-1002.92969,59.08203,105.46875,-0.03930324395858551,-0.05275955795853659,-0.03970292435729221,57.0,17.7,-6.6
-929.19922,36.62109,-277.83203,0.022516143614128445,0.056356856079822104,-0.05076115596500308,-3.3,27.15,16.8,-384.27734,-29.78516,949.21875,0.015721227770264124,0.003463954966433146,-0.030509926121187674,85.35,-1.95,78.9,-1001.95312,64.94141,106.44531,0.002664594169019743,-0.04036911653277844,0.013989337553510148,57.0,17.7,-6.6
-943.84766,20.50781,-293.45703,0.03117611829667391,0.09805818243064782,-0.05076115596500308,-4.95,25.5,18.15,-379.39453,-33.20313,960.44922,0.026379778979268294,0.007727445263204894,-0.05116083636370978,85.5,-1.05,76.95,-1006.83594,74.70703,122.55859,-0.06901380928235978,-0.037171498810199634,-0.05515781488370199,56.55,19.2,-6.3
-934.08203,7.32422,-302.73437,-0.03757117920890633,0.12630319478152247,-0.10392039432224637,-4.95,25.5,18.15,-386.71875,-19.53125,953.125,0.02731248293153406,-0.02944405354699474,-0.025047394628295826,85.5,-1.05,76.95,-997.55859,62.01172,109.86328,-0.07674125454556469,-0.05808874629657607,-0.03637213801278623,56.55,19.2,-6.3
-957.51953,17.57813,-295.41016,-0.031442630073453444,0.15641344050400344,-0.094860564708069,-5.55,25.5,18.15,-401.85547,-13.18359,963.86719,0.0385038831611721,-0.012390441425758144,-0.051960197161123184,86.4,-0.9,78.15,-1002.92969,67.87109,119.14063,-0.1013889687751538,-0.03570594583729999,-0.031575798695380616,56.7,17.85,-7.8
-956.05469,4.39453,-278.32031,-0.002664594169019743,0.17866307234135234,-0.0936615235119489,-5.55,25.5,18.75,-371.58203,-14.64844,948.73047,0.008260294283838763,0.014788698350923554,-0.03743801058697916,86.4,-0.9,78.15,-1002.44141,73.73047,104.00391,-0.08033837813392498,-0.08326948407972427,-0.07420982899847209,56.7,17.85,-7.8
-958.49609,17.57813,-300.29297,0.06674889551204674,0.12403828101120941,-0.020650910242522108,-4.05,25.5,18.75,-372.07031,-10.25391,937.98828,0.05688970510045597,0.004529827540626083,-0.03743801058697916,85.8,-1.5,78.6,-1004.39453,69.33594,91.79688,-0.07833997614039148,-0.044099583275991124,-0.05169368538434365,56.7,17.85,-7.8
-959.96094,14.64844,-314.94141,0.04902909121532391,0.16480707794269456,-0.0579555776746489,-4.05,25.35,18.3,-379.39453,-12.20703,953.61328,-0.00039968039870670147,-0.015321547371557422,-0.03490658503988659,85.8,-1.5,78.6,-994.62891,76.17188,106.44531,-0.06954665830299364,-0.03450690464117989,-0.010924888452858507,56.7,17.85,-7.8
-942.38281,16.60156,-307.12891,0.05036147556629638,0.15494788753110378,-0.04196783812760525,-4.05,25.35,18.3,-373.53516,-13.67187,947.26562,0.00039968039870670147,-0.05022813241144401,-0.04010260475599891,85.95,-0.9,77.7,-989.25781,76.17188,105.46875,-0.10165548055193334,0.04076879693148514,-0.04170132635082572,56.7,17.85,-7.8
-952.63672,12.69531,-293.45703,0.01585457092511649,0.21690044372574488,-0.09632611768096865,-5.1,26.1,19.65,-379.88281,-10.25391,943.35937,0.015454890526409788,-0.008659974682545464,-0.0486294108166172,85.95,-0.9,77.7,-1003.41797,90.33203,112.30469,-0.09952373540354745,0.018785676870915768,-0.0855343978500373,58.05,17.4,-6.6
-947.26562,34.17969,-289.55078,0.017453292519943295,0.2022450885296737,-0.05289272658046376,-5.1,26.1,19.65,-374.51172,-4.88281,944.33594,0.0069280844657914915,-0.008926486459324997,-0.01811948469542953,85.95,-0.9,77.7,-995.60547,79.58984,117.67578,-0.10884990226157916,0.005462531492891852,-0.06541651116107426,58.05,17.4,-6.6
-951.17187,34.17969,-297.36328,0.015321547371557422,0.19185304909744907,-0.045032112695331694,-5.1,26.1,19.65,-371.09375,0.48828,941.89453,0.038903563559878805,0.029577396701847107,0.03384071246569365,85.95,-0.9,77.7,-989.74609,80.56641,105.95703,-0.12057432604477626,0.04996179516758968,-0.060487003221741484,57.0,17.7,-6.3
-944.82422,32.71484,-304.6875,0.0482297304179105,0.2121041044083393,-0.05382543053272952,-5.1,26.1,19.65,-366.21094,-11.23047,953.61328,0.0035972981212855125,0.007194421709645826,0.0030642745677264445,86.25,-1.5,77.25,-989.25781,75.68359,124.51172,-0.12843493992990834,0.023448673033469015,-0.08713329397778931,57.0,17.7,-6.3
-972.65625,39.55078,-303.22266,0.07247776424879292,0.21183759263155974,-0.06195255619464112,-4.65,26.1,18.6,-360.83984,7.32422,938.47656,0.013189976756096747,0.0038636353651398474,0.014389017952216851,86.25,-1.5,77.25,-976.5625,73.73047,102.05078,-0.15388201495691084,0.007860613885132062,-0.060087322823034785,56.4,17.85,-6.15
-963.86719,22.46094,-314.94141,0.08979788814680904,0.1942511314896893,-0.00746093348642536,-4.65,26.1,18.6,-354.49219,-5.37109,957.03125,-0.017586461141870464,-0.015188378749630253,0.024514545607661954,85.95,-1.65,78.45,-987.79297,75.68359,104.00391,-0.11524496317381157,0.014389017952216851,-0.035173096816666125,56.4,17.85,-6.15
-969.23828,26.85547,-314.45312,0.02851152412765417,0.21463552995543186,-0.09232931369390163,-5.1,26.4,17.85,-357.42187,-6.34766,957.51953,-0.005062851094185151,-0.02704597115475453,0.01305663360124438,85.95,-1.65,78.45,-967.77344,74.21875,108.88672,-0.14535520889629253,0.018385996472209065,-0.0462311538914518,56.55,17.4,-7.35
-971.67969,25.87891,-338.86719,0.0377045223637587,0.2500749640159523,-0.0559571756811154,-5.1,26.4,17.85,-355.95703,-3.90625,939.45312,0.022649312236055614,-0.02091724748637644,-0.010924888452858507,85.5,-0.3,77.25,-973.14453,67.38281,89.35547,-0.15907803467302317,0.04929560299210344,-0.08420218803199005,56.55,17.4,-7.35
-981.44531,45.41016,-323.24219,0.0182526533173567,0.24194801288696594,-0.06634921511334003,-5.1,24.6,17.55,-360.83984,-7.8125,945.3125,0.0011990411961201044,0.002664594169019743,0.007327764864498192,85.5,-0.3,77.25,-987.30469,79.10156,88.37891,-0.16680547993622805,0.07647474276878514,-0.05742272865401504,56.4,19.35,-6.45
-983.88672,53.22266,-334.47266,0.12470447318669564,0.2050428513206206,0.02011788668896304,-5.1,24.6,17.55,-347.65625,-16.60156,948.73047,0.022649312236055614,-0.019851374912183504,0.03224199087086685,85.65,-0.9,78.45,-986.32812,62.5,103.51563,-0.1276355791324949,0.0762082309920056,-0.05036147556629638,56.4,19.35,-6.45
-969.72656,43.45703,-336.91406,0.05169368538434365,0.223695185036684,-0.06981317007977318,-5.25,25.05,17.4,-373.53516,-4.88281,926.75781,-0.010525208054151804,-0.014389017952216851,0.018385996472209065,85.65,-0.9,78.45,-988.28125,56.15234,101.5625,-0.14668759324726502,0.10152213739708096,-0.07207808385008622,55.8,17.4,-6.3
-983.88672,43.45703,-336.42578,0.04170132635082572,0.18998781572584275,-0.04103530870826468,-5.25,25.05,17.4,-354.98047,-27.34375,941.40625,-0.014788698350923554,-0.02851152412765417,0.01119140022963804,85.5,-1.05,79.35,-990.72266,47.85156,94.23828,-0.14895250701757806,0.10605213947063225,-0.058888281626914674,55.8,17.4,-6.3
-972.16797,28.32031,-345.21484,0.01305663360124438,0.17693100759167316,-0.0762082309920056,-5.25,25.05,17.4,-368.65234,-20.99609,929.19922,0.05129400498563695,-0.0033307863445059785,0.024781057384441488,85.5,-1.05,79.35,-979.00391,53.22266,98.63281,-0.1432236382808319,0.05995397966818241,0.012390441425758144,55.8,17.4,-6.3
-969.23828,41.99219,-341.30859,0.08593407824874401,0.1470872736459717,-0.042634030303091486,-5.25,25.05,17.4,-346.67969,-19.53125,933.10547,0.0030642745677264445,0.025313906405075356,0.03184231047216015,84.9,-0.9,77.4,-972.65625,28.80859,91.30859,-0.1418912539298594,0.04942877161403061,-0.013189976756096747,55.8,17.4,-6.3
-958.98437,15.625,-366.69922,0.06128636401915488,0.12070749466670343,-0.04556513624889076,-4.5,27.0,18.15,-384.76562,-13.67187,924.31641,-0.0006661921754862356,0.013189976756096747,0.05209336578305035,84.9,-0.9,77.4,-979.98047,32.22656,88.86719,-0.1552143993078833,0.07740727218812571,-0.026246610357341126,57.0,18.0,-7.65
-958.00781,28.32031,-360.35156,0.053292581512095656,0.077007591789419,0.007594102108352528,-4.5,27.0,18.15,-362.79297,-32.71484,944.82422,-0.02038439846574257,0.00039968039870670147,0.06475031898558803,84.9,-0.9,77.4,-1026.85547,53.71094,96.19141,-0.11457894553125055,0.13349761649116829,-0.02038439846574257,57.0,18.0,-7.65
-945.80078,26.85547,-355.95703,-0.03277483989150072,0.11497862592995724,-0.04023577337792608,-4.95,25.5,17.1,-381.83594,-18.06641,951.66016,0.01811948469542953,-0.014522186574144018,0.05142717360756412,84.9,-0.9,77.4,-998.04687,43.94531,110.83984,-0.1305666850782942,0.04076879693148514,0.0011990411961201044,57.0,18.0,-7.65
-944.82422,21.48438,-348.63281,-0.0030642745677264445,0.12377176923442987,-0.10538594729514601,-4.95,25.5,17.1,-367.1875,-20.01953,946.28906,0.014389017952216851,0.06541651116107426,0.048762579438544375,85.05,-1.8,78.3,-982.91016,29.78516,109.375,-0.16547327011818078,0.09299533133646266,-0.060487003221741484,57.0,18.0,-7.65
-941.89453,30.76172,-356.44531,0.04156815772889855,0.11977496524736285,-0.08540122922811014,-5.25,25.05,18.75,-380.37109,-19.04297,941.89453,0.023715184810248553,-0.03490658503988659,-0.005196019716112318,85.05,-1.8,78.3,-987.30469,30.27344,101.5625,-0.10871673363965198,0.06781476808623968,-0.07660791139071231,57.6,17.4,-7.35
-947.26562,28.80859,-364.74609,0.07127872305267281,0.1548147189091766,-0.06288508561398169,-5.25,25.05,18.75,-378.90625,-23.92578,950.68359,0.031309286918601076,0.010791719830931338,0.06928032105913931,84.75,-1.05,78.0,-1008.30078,35.15625,89.84375,-0.10698466888997281,0.07714093494427138,0.0022649137703130416,57.6,17.4,-7.35
-952.14844,31.25,-370.11719,0.07754061534297808,0.015721227770264124,-0.08846550379583658,-5.25,25.05,18.75,-387.20703,-15.13672,932.61719,0.04316687932372535,0.00559570011481902,0.052626389336609423,84.75,-1.05,78.0,-1011.71875,25.87891,98.14453,-0.13922665976083967,0.05702304825530834,0.008526806060618296,57.6,18.45,-5.85
-961.91406,25.87891,-388.67187,0.09299533133646266,0.06355127778946792,-0.02731248293153406,-5.25,25.05,18.75,-377.44141,-18.06641,944.82422,0.011457912006417574,0.02558041818185489,0.05582383252626303,85.8,-1.5,78.3,-993.65234,23.4375,93.75,-0.11644417890285688,0.062219067971420655,-0.028777861371508503,57.6,18.45,-5.85
-951.17187,28.32031,-384.27734,0.07087904265396612,0.04303371070179819,-0.03916990080373314,-4.95,23.7,17.7,-398.4375,-29.29688,946.77734,0.03344103206698695,0.027179139776681696,0.09579326866033477,85.8,-1.5,78.3,-1005.85937,20.99609,104.00391,-0.08007204089007065,0.06554985431592662,0.009059655081252166,57.6,18.45,-5.85
-954.10156,32.71484,-391.11328,0.03570594583729999,0.08406884487713767,-0.14388983045631812,-4.95,23.7,17.7,-382.8125,-24.41406,944.33594,0.013989337553510148,0.0038636353651398474,0.06395095818817463,85.8,-1.5,78.3,-1007.8125,22.94922,81.54297,-0.12510415358540233,0.13483000084214075,0.008260294283838763,57.0,19.95,-7.35
-939.94141,22.46094,-385.25391,0.0033307863445059785,0.020650910242522108,-0.10392039432224637,-6.6,25.05,17.7,-390.625,-28.80859,931.64062,-0.00279793732387211,0.012923464979317213,0.021316927885083145,85.8,-1.5,78.3,-1009.27734,40.52734,100.58594,-0.1277687477544221,0.10711783751189999,0.03877022040502644,57.0,19.95,-7.35
-959.47266,42.96875,-396.48437,0.02984373394570144,0.0458314734927451,-0.09352835489002174,-6.6,25.05,17.7,-394.53125,-10.25391,949.70703,0.01305663360124438,0.03783769098568587,0.052226708937902724,85.8,-1.5,78.3,-1003.90625,26.85547,92.77344,-0.11284688078157137,0.11937511031573096,-0.05822208945142844,56.25,18.0,-7.65
-956.54297,41.99219,-376.46484,0.03677181841149293,-0.02051756708766974,0.03304135166828025,-4.5,25.05,17.1,-395.01953,-16.60156,942.87109,0.0006661921754862356,0.041301645952119014,0.055690663904335864,84.0,-1.8,80.1,-1019.04297,16.11328,97.16797,-0.08939820774810235,0.04010260475599891,-0.02944405354699474,56.25,18.0,-7.65
-966.79687,39.0625,-398.4375,0.007327764864498192,-0.04889592259339674,0.03330786344505979,-4.5,25.05,17.1,-392.57812,-27.34375,936.52344,-0.0182526533173567,0.04023577337792608,0.07474267801910597,84.0,-1.8,80.1,-1013.67187,41.01563,82.51953,-0.0936615235119489,0.09632611768096865,-0.00373046674321268,56.25,18.0,-7.65
-954.10156,23.92578,-391.11328,-0.017453292519943295,-0.08859884695068895,0.05489130310692246,-4.2,24.3,17.7,-419.92187,-9.27734,936.03516,-0.023448673033469015,0.02851152412765417,0.07261110740364529,85.05,0.0,78.3,-1025.39063,36.62109,79.10156,-0.07101221127589329,0.0668820641339739,-0.029977077100553806,56.25,18.0,-7.65
-946.28906,24.90234,-382.8125,-0.04250068714823912,-0.04529862447211123,-0.02851152412765417,-4.2,24.3,17.7,-410.15625,-20.01953,926.75781,0.03783769098568587,0.019851374912183504,0.04183466950567808,85.05,0.0,78.3,-1015.13672,28.32031,87.89063,-0.08233695466038368,0.09512707648484854,-0.02198312006056938,56.7,18.6,-7.2
-943.84766,31.25,-385.74219,-0.07674125454556469,-0.08020520951199782,-0.011457912006417574,-4.2,24.3,17.7,-414.55078,-19.04297,920.89844,0.009192998236104533,0.00186523337160634,0.05502447172884963,85.05,0.0,78.3,-1002.92969,42.96875,87.89063,-0.04996179516758968,0.07474267801910597,0.013189976756096747,56.7,18.6,-7.2
-940.42969,46.875,-382.8125,-0.06115319539722772,-0.07234459562686575,-0.006261892290305255,-4.2,24.3,17.7,-413.57422,-16.11328,926.75781,0.006128723668378088,0.023582016188321384,0.0567565364785288,85.05,0.0,78.3,-1035.15625,40.03906,89.35547,-0.10951609443706539,0.057689065897869374,-0.0033307863445059785,56.7,18.6,-7.2
-931.64062,40.03906,-394.04297,-0.07327712504620633,-0.13389747142280017,0.07114555443074566,-6.15,24.6,17.25,-409.66797,-40.52734,923.82812,0.012390441425758144,-0.019851374912183504,0.006661572689011957,87.3,-0.75,79.05,-1019.04297,47.36328,85.44922,-0.10445324334288024,0.06741508768753297,-0.0486294108166172,56.7,18.6,-7.2
-929.6875,45.41016,-408.20312,-0.05555749528240869,-0.11444560237639817,0.06408430134302699,-6.15,24.6,17.25,-412.10937,-25.87891,925.78125,0.04996179516758968,0.04836289903983767,0.031442630073453444,87.3,-0.75,79.05,-1009.27734,59.57031,92.77344,-0.1009892883764471,0.0369049870334201,-0.0063950609122324234,57.0,19.5,-5.85
-943.35937,39.0625,-406.73828,-0.09605978043711431,-0.14282395788212518,0.1009892883764471,-4.65,24.6,18.3,-432.61719,-30.27344,947.75391,0.009859190411590769,0.0025314255470925756,0.02091724748637644,84.6,-0.15,78.45,-1024.41406,69.33594,87.40234,-0.06594953471463334,0.01358965715480345,-0.011457912006417574,57.0,19.5,-5.85
-961.42578,60.54688,-399.90234,-0.10045643935581322,-0.11697702792349074,0.0035972981212855125,-4.65,24.6,18.3,-421.38672,-33.20313,945.3125,0.04010260475599891,0.03837054000631974,0.02931088492506757,84.6,-0.15,78.45,-1028.80859,48.33984,85.44922,-0.05862176985013514,0.0684807857288007,-0.03264167126957355,57.3,18.45,-6.6
-979.49219,41.01563,-385.25391,-0.14162474215307985,-0.11684385930156357,0.025047394628295826,-4.35,25.65,18.3,-414.0625,-34.17969,953.61328,0.0365053066347134,0.04609798526952463,0.03077643789796721,86.25,-0.75,79.05,-1032.22656,62.01172,88.37891,-0.09526041963970092,0.026379778979268294,0.005995380513525721,57.3,18.45,-6.6
-973.14453,31.25,-396.48437,-0.16200914061882243,-0.14388983045631812,-0.03210864771601448,-4.35,25.65,17.85,-417.96875,-25.87891,958.49609,0.04250068714823912,0.012257272803830977,0.04236751852631195,86.25,-0.75,79.05,-1036.13281,61.03516,80.56641,-0.10551911591707318,-0.01585457092511649,-0.005462531492891852,55.35,18.6,-6.15
-954.58984,41.50391,-396.48437,-0.08127108208619076,-0.1552143993078833,-0.026912627999902163,-4.35,25.65,17.85,-400.39062,-22.46094,947.75391,0.0365053066347134,-0.020251229843815406,0.004529827540626083,86.25,-0.75,79.05,-1021.48437,50.78125,89.35547,-0.09899088638291359,0.007727445263204894,-0.004263315763846549,55.35,18.6,-6.15
-954.10156,42.48047,-383.78906,-0.08833233517390941,-0.2127702965838255,-0.03797085960761303,-4.35,25.65,17.85,-414.0625,-10.74219,958.00781,0.07234459562686575,-0.04170132635082572,0.05209336578305035,86.25,-0.75,79.05,-1021.48437,54.19922,81.05469,-0.07780712711975761,-0.06115319539722772,-0.0025314255470925756,56.4,16.35,-7.5
-943.84766,30.27344,-371.09375,-0.08220361150553133,-0.1885222627529431,-0.031309286918601076,-4.35,25.65,17.85,-424.31641,-10.25391,936.03516,0.03264167126957355,-0.026379778979268294,0.04436592051984546,84.0,-2.25,78.6,-1023.92578,62.98828,86.91406,-0.07820680751846432,-0.0684807857288007,0.023848353432175718,56.4,16.35,-7.5
-953.61328,52.24609,-372.55859,-0.14295712650405235,-0.13469683222021359,-0.060487003221741484,-5.1,24.9,18.6,-421.38672,5.85937,937.98828,0.04449926367469782,0.008260294283838763,0.01585457092511649,84.0,-2.25,78.6,-1019.53125,72.75391,78.61328,-0.08766614299842318,-0.05462479133014293,0.009059655081252166,56.4,20.1,-6.45
-951.17187,53.71094,-351.5625,-0.18798923919938404,-0.18026179393617914,-0.09086376072100198,-5.1,24.9,18.6,-418.45703,-0.97656,931.64062,0.03210864771601448,-0.0019984019935335075,0.05369226191080236,85.95,-1.2,78.15,-1025.87891,75.68359,77.63672,-0.09619294905904148,-0.1135130729570576,0.0377045223637587,56.4,20.1,-6.45
-918.94531,53.22266,-348.63281,-0.1771975193684527,-0.13363095964602065,-0.05422511093143622,-5.55,26.55,17.1,-426.26953,27.83203,912.10937,0.01585457092511649,-0.05542415212755633,-0.00559570011481902,85.95,-1.2,78.15,-1035.64453,69.33594,83.98438,-0.12470447318669564,-0.10245484134934674,0.048496242194690044,56.1,19.05,-7.2
-898.4375,68.84766,-331.54297,-0.13309793609246157,-0.16853754468590723,-0.0972588216332344,-5.55,26.55,17.1,-415.03906,4.88281,919.92187,0.03797085960761303,-0.017586461141870464,0.07420982899847209,85.65,-0.45,79.95,-1029.29688,66.89453,92.77344,-0.08047172128877735,-0.08406884487713767,0.021183759263155976,56.1,19.05,-7.2
-885.25391,49.31641,-301.75781,-0.14868599524079854,-0.11804290049768368,-0.16147629159818858,-5.55,25.5,18.15,-406.25,18.55469,931.15234,0.023582016188321384,0.012257272803830977,0.06514999938429474,85.65,-0.45,79.95,-1015.13672,88.86719,92.28516,-0.103787051167394,-0.09459422746421467,0.006128723668378088,56.1,19.05,-7.2
-877.92969,72.26563,-300.78125,-0.20624189251674072,-0.10352071392353968,-0.16573960736203514,-5.55,25.5,18.15,-404.29687,27.83203,934.08203,0.009059655081252166,0.03210864771601448,0.12630319478152247,86.7,-2.4,78.45,-1027.34375,88.37891,90.82031,-0.0847350370526239,-0.10845022186287244,0.0006661921754862356,56.1,19.05,-7.2
-877.92969,78.125,-292.96875,-0.24208118150889307,0.03983609297921937,-0.20264476892838043,-4.65,25.35,16.5,-384.27734,8.78906,969.23828,-0.014788698350923554,0.0373046674321268,0.10858339048479962,86.7,-2.4,78.45,-1025.87891,68.35938,104.00391,-0.11537830632866394,-0.09579326866033477,-0.0377045223637587,56.1,19.05,-7.2
-917.48047,70.3125,-324.21875,-0.21863250847542406,-0.05302606973531612,-0.22156361442122338,-4.65,25.35,16.5,-393.55469,-17.08984,982.91016,0.003996978519992214,-0.0019984019935335075,0.052226708937902724,85.65,-0.45,77.4,-1003.90625,62.5,93.26172,-0.11977496524736285,-0.1196416220925105,0.03877022040502644,57.6,18.75,-6.3
-922.36328,76.66016,-318.35937,-0.2109050632122192,0.03490658503988659,-0.18865543137487029,-4.65,25.35,16.5,-393.06641,4.39453,964.35547,0.0058622118915985545,-0.03703833018827246,0.06954665830299364,85.65,-0.45,77.4,-1000.0,76.66016,82.51953,-0.14975186781499147,-0.1496186991930643,-0.004396658918698916,57.6,18.75,-6.3
-929.19922,95.21484,-299.80469,-0.19971366298258114,0.007327764864498192,-0.1803951370910315,-4.65,25.35,16.5,-381.34766,1.46484,962.89062,-0.026379778979268294,-0.012790121824464847,0.09113009796485633,85.35,-0.9,79.5,-990.72266,63.47656,86.91406,-0.1722680114291199,-0.1115144964305989,-0.031975479094087315,56.55,18.45,-5.25
-919.92187,96.19141,-282.22656,-0.2314226302998889,0.01625425132382319,-0.1901209843477699,-3.15,25.5,16.35,-382.32422,-28.32031,962.89062,-0.012390441425758144,-0.07687442316749184,0.10765086106545904,85.35,-0.9,79.5,-996.09375,68.84766,74.21875,-0.1670719917130076,-0.08913169597132281,-0.012257272803830977,56.55,18.45,-5.25
-933.59375,108.39844,-277.34375,-0.30336754552804795,0.07127872305267281,-0.2484762424211255,-3.15,25.5,16.35,-383.78906,-5.85937,923.82812,0.0361056262360067,-0.0470306892217904,0.08606742140359638,85.35,-0.9,79.5,-977.53906,62.01172,100.58594,-0.17839656056457281,-0.05089432458693025,0.017186780743163762,57.3,18.45,-6.9
-924.31641,100.58594,-294.92187,-0.32575034598732405,0.07660791139071231,-0.2627320917514152,-4.65,26.1,18.6,-382.8125,-15.625,906.73828,0.004263315763846549,-0.04023577337792608,0.11138132780867173,85.35,-0.9,79.5,-985.83984,50.78125,93.26172,-0.13123270272085524,-0.053292581512095656,0.014122506175437317,57.3,18.45,-6.9
-944.33594,117.1875,-312.5,-0.3336109598724561,0.1281684281531288,-0.2885788471771244,-4.65,26.1,18.6,-389.64844,-12.69531,908.20312,0.004929507939332785,-0.04982845201273731,0.1253706653621819,84.9,-1.2,77.7,-978.02734,51.26953,78.61328,-0.13496316946406792,-0.06554985431592662,0.009992359033517936,56.55,19.5,-5.85
-969.23828,122.55859,-323.24219,-0.3084302220893079,0.13109953409892808,-0.30256818473063457,-4.65,24.9,18.6,-372.07031,-27.83203,895.01953,-0.014655355196071187,0.015454890526409788,0.10312103352483297,84.9,-1.2,77.7,-987.79297,55.17578,78.61328,-0.16613928776074183,-0.03943641258051267,0.0283781809728018,56.55,19.5,-5.85
-983.88672,113.28125,-342.28516,-0.377044350972961,0.15814550525368262,-0.34147174829051335,-4.65,24.9,18.6,-482.42187,-3.41797,855.95703,-0.04476577545147736,-0.22462788898894978,0.09872437460613405,86.4,-1.65,76.65,-980.46875,64.45313,102.05078,-0.1382939558085739,-0.032375159492794015,-0.016920443499309427,57.0,18.45,-6.9
-991.21094,121.09375,-333.49609,-0.34919901902079303,0.09232931369390163,-0.30376722592675465,-4.65,24.9,18.6,-267.57812,-42.48047,933.59375,-0.012656953202537678,-0.11537830632866394,0.06341810916754076,86.4,-1.65,76.65,-986.32812,49.31641,103.02734,-0.15028489136855053,-0.023848353432175718,0.028245012350874635,57.0,18.45,-6.9
-1008.30078,113.28125,-306.64062,-0.4138161693844539,0.11910877307187663,-0.3450688718788737,-4.65,24.9,18.6,-382.8125,-14.16016,944.82422,0.04636449704630416,-0.0058622118915985545,0.04143498910697138,86.4,-0.9,77.7,-997.55859,43.45703,101.07422,-0.13403064004472734,-0.018785676870915768,-0.0046631706954784495,57.0,18.0,-6.6
-998.04687,134.27734,-294.92187,-0.3835727550400458,0.1273690673557154,-0.42394187157282426,-5.1,25.65,18.6,-367.1875,-3.41797,940.42969,0.02518073778314819,0.014122506175437317,0.03970292435729221,86.4,-0.9,77.7,-983.39844,54.6875,105.46875,-0.14988521096984384,-0.007194421709645826,-0.002664594169019743,57.0,18.0,-6.6
-984.86328,138.67187,-283.69141,-0.4740368353623411,0.14269061472727282,-0.5057458026796489,-5.1,25.65,18.6,-397.46094,18.55469,915.52734,0.05435827955336339,0.015321547371557422,0.06554985431592662,86.4,-0.9,77.7,-999.51172,42.96875,97.65625,-0.1289677889505422,-0.07447634077525163,0.05435827955336339,57.0,18.0,-6.6
-960.44922,152.34375,-310.05859,-0.5110749910176884,0.14135840490922555,-0.6191255324818542,-5.55,25.05,18.45,-390.13672,-16.60156,931.64062,0.08286980368101757,-0.025447249559927724,0.06421746996495417,86.4,-0.9,77.7,-989.25781,59.08203,102.05078,-0.12417144963313657,-0.0632847660126884,-0.04063545377663278,57.0,18.0,-6.6
-960.9375,179.6875,-291.01562,-0.5525099801246598,0.1545482071323971,-0.6515006919746481,-5.55,25.05,18.45,-396.48437,7.32422,945.80078,0.07554203881651937,-0.007594102108352528,0.0093261668580317,86.4,-0.9,77.7,-990.72266,44.43359,105.95703,-0.13389747142280017,-0.08566774100488968,-0.016520588567677526,56.7,19.05,-6.45
-934.08203,175.29297,-266.11328,-0.5916798809283929,0.2047763395438411,-0.7034608891357713,-4.65,26.7,18.3,-372.55859,0.97656,953.61328,0.10165548055193334,-0.05835525807335561,0.07141189167459998,87.3,-1.05,78.6,-991.21094,52.24609,113.28125,-0.11937511031573096,-0.12617002615959527,0.006128723668378088,56.7,19.05,-6.45
-927.73437,201.17187,-232.91016,-0.6488360978056283,0.22835835573216248,-0.7034608891357713,-4.65,26.7,18.3,-368.16406,0.48828,952.63672,0.07327712504620633,-0.024781057384441488,0.0632847660126884,87.3,-1.05,78.6,-1000.97656,53.22266,113.28125,-0.17093562707814744,-0.05808874629657607,-0.01958503766832917,56.7,19.05,-6.45
-896.48437,187.01172,-240.23437,-0.6950674262300054,0.27299078802878746,-0.8466845274166033,-5.1,25.65,18.3,-381.83594,14.64844,940.42969,0.06035383459981431,-0.006661572689011957,0.05302606973531612,85.8,-0.75,78.6,-1005.37109,48.82813,117.1875,-0.1442895108550248,-0.024914226006368657,-0.04250068714823912,56.7,19.05,-6.45
-900.39062,229.00391,-257.32422,-0.8139096875251024,0.38170752166843946,-0.9683247260355723,-5.1,25.65,18.3,-393.06641,12.20703,935.54687,0.02651294760119546,-0.023848353432175718,0.02651294760119546,85.8,-0.75,78.6,-996.58203,61.03516,125.48828,-0.1601439072472161,-0.05875493847206231,-0.0369049870334201,56.4,18.6,-4.95
-900.87891,208.00781,-305.66406,-0.8665359023287867,0.42767233831603696,-1.0394701059333928,-5.1,25.65,18.3,-401.36719,27.83203,924.80469,0.06022049144496195,-0.015321547371557422,0.031442630073453444,85.8,-0.75,78.6,-1014.64844,58.10547,109.375,-0.16533992696332844,-0.09179629014034256,-0.007860613885132062,56.4,18.6,-4.95
-915.52734,196.77734,-317.38281,-0.9476738157930503,0.4561838624436911,-1.0753093949255452,-5.1,25.65,18.3,-394.04297,16.60156,935.05859,0.038903563559878805,0.015454890526409788,0.00652840406708479,85.8,-0.75,78.6,-988.28125,79.10156,108.88672,-0.1253706653621819,-0.09059724894422246,-0.0031976177225788113,57.3,19.5,-6.6
-951.17187,175.78125,-327.14844,-0.9542022198601351,0.4583154330591518,-1.1701699596336141,-4.2,25.8,18.15,-374.51172,14.64844,951.17187,0.0470306892217904,0.03703833018827246,0.019851374912183504,86.25,0.3,79.05,-989.25781,59.57031,95.21484,-0.09232931369390163,-0.0972588216332344,-0.005329188338039486,57.3,19.5,-6.6
-975.58594,158.69141,-352.05078,-1.0443996138727256,0.44912243482304726,-1.1798958068903524,-4.2,25.8,18.15,-371.58203,39.55078,943.84766,0.028644692749581334,0.03783769098568587,0.022116463215421746,86.25,0.3,79.05,-973.63281,54.6875,83.98438,-0.11218068860608514,-0.05435827955336339,-0.0011990411961201044,57.3,19.5,-6.6
-1009.76562,127.92969,-387.20703,-1.1296676744789085,0.4075542770941487,-1.262099592928809,-5.25,27.3,18.15,-382.8125,43.94531,937.01172,0.015588059148336955,-0.04250068714823912,0.021183759263155976,85.5,0.75,79.8,-976.07422,55.17578,95.70313,-0.06861412888365308,0.032375159492794015,-0.001065872574192937,56.4,20.1,-5.7
-1016.11328,135.74219,-407.22656,-1.2270596647340701,0.3478668092027458,-1.2896784131041976,-5.25,27.3,18.15,-385.25391,45.89844,924.31641,0.05875493847206231,-0.08273663505909039,0.03530626543859329,85.5,0.75,79.8,-976.5625,48.33984,93.26172,-0.07207808385008622,0.016920443499309427,-0.010392039432224637,56.4,20.1,-5.7
-1031.73828,148.4375,-434.08203,-1.3051333036306074,0.37811022354715396,-1.3163247038602452,-4.35,26.1,18.15,-339.35547,48.33984,947.75391,0.04449926367469782,-0.047430369620497105,0.017986141540577164,85.5,0.0,79.35,-984.86328,42.48047,87.40234,-0.09006439992358858,0.08686678220100978,-0.041301645952119014,57.0,20.25,-6.6
-1026.36719,150.87891,-447.75391,-1.338041312144035,0.27392349198105326,-1.425440943365679,-4.35,26.1,19.65,-350.09766,28.32031,936.52344,0.03837054000631974,0.016653931722529894,0.003463954966433146,85.5,0.0,79.35,-957.51953,39.0625,102.53906,-0.04529862447211123,0.11577798672737065,-0.0385038831611721,57.0,20.25,-6.6
-1022.94922,166.01562,-451.17187,-1.425973966919238,0.15721280130141685,-1.4799325660738947,-4.35,26.1,19.65,-374.02344,39.55078,936.03516,0.008659974682545464,0.01065855120900417,-0.0002665117767795341,85.5,0.0,79.35,-993.16406,27.83203,107.91016,-0.044099583275991124,0.12643636340344963,-0.0007993607974134029,57.0,20.25,-6.6
-1008.78906,174.31641,-456.54297,-1.578257260281322,0.10951609443706539,-1.4528867694520653,-4.35,26.1,19.65,-356.93359,29.78516,924.31641,0.023715184810248553,0.019851374912183504,0.004396658918698916,85.5,0.0,79.35,-978.02734,19.53125,105.95703,-0.00039968039870670147,0.14042570095695978,-0.04982845201273731,57.0,20.25,-6.6
-991.21094,171.875,-453.125,-1.7002971392989978,0.11577798672737065,-1.5711960071936035,-4.35,26.1,19.65,-373.53516,41.99219,913.57422,0.014655355196071187,0.045698304870817934,-0.0385038831611721,86.4,0.15,78.15,-976.5625,25.39063,112.79297,-0.008926486459324997,0.1821270273077855,-0.031708967317307775,57.6,18.75,-5.85
-959.96094,131.83594,-446.77734,-1.8652373858636198,0.01065855120900417,-1.6013062529160844,-4.2,25.8,17.1,-382.8125,30.76172,919.92187,-0.011724423783197109,0.07101221127589329,-0.03916990080373314,86.4,0.15,78.15,-963.86719,27.83203,115.72266,-0.055290983505629165,0.16800452113234815,-0.07207808385008622,57.6,18.75,-5.85
-938.47656,99.60938,-469.72656,-2.001932620077367,0.03543943406052046,-1.6138300374966947,-4.2,25.8,17.1,-381.83594,32.22656,951.66016,0.0011990411961201044,0.08846550379583658,-0.07007968185655272,87.15,-0.15,79.2,-989.74609,26.85547,107.42188,0.0058622118915985545,0.21503521035413858,-0.08366916447843097,57.6,18.75,-5.85
-897.46094,57.12891,-487.30469,-2.125704389311797,-0.053558918755949994,-1.635146965381778,-5.4,25.65,17.85,-379.88281,30.76172,947.26562,-0.012790121824464847,0.05902145024884184,-0.02558041818185489,87.15,-0.15,79.2,-997.55859,43.94531,118.16406,0.010924888452858507,0.20304444932708712,-0.05449162270821576,57.6,18.75,-5.85
-891.60156,5.37109,-473.63281,-2.1808622041954986,-0.09765850203194111,-1.6581961325494654,-5.4,25.65,17.85,-384.27734,37.59766,944.33594,-0.03344103206698695,0.09179629014034256,-0.041301645952119014,84.75,-1.05,78.0,-1007.32422,52.73438,106.93359,0.01305663360124438,0.15441503851046992,-0.08620059002552354,56.7,17.85,-5.7
-869.62891,-53.71094,-475.09766,-2.225627805114051,-0.1272358987337882,-1.6877733547183875,-5.55,27.3,18.15,-384.27734,37.10938,949.70703,-0.05049464418822355,0.06728174453268061,-0.04516545585018406,84.75,-1.05,78.0,-993.16406,53.22266,104.49219,0.04609798526952463,0.14442267947695198,-0.114312433754471,56.7,17.85,-5.7
-864.25781,-133.30078,-452.14844,-2.32941503081437,-0.14828631484209184,-1.7521239933052686,-5.55,27.3,18.15,-386.23047,54.6875,948.24219,-0.06288508561398169,0.09885754322806121,-0.05515781488370199,86.4,0.15,78.15,-994.62891,49.80469,115.72266,0.08886518419454328,0.09512707648484854,-0.14109189313244602,57.3,18.75,-5.25
-858.39844,-213.86719,-459.96094,-2.3773784239884264,-0.12830177130798115,-1.8130106769257168,-4.5,27.3,19.2,-402.34375,68.84766,946.77734,-0.08806582339712987,0.06168604441786158,-0.0031976177225788113,86.4,0.15,78.15,-1017.57812,75.68359,113.28125,0.08380250763328333,0.1151117945518844,-0.08606742140359638,57.3,18.75,-5.25
-864.74609,-292.48047,-461.91406,-2.3326124740040237,-0.19998017475936067,-1.8517810718636685,-4.5,27.3,19.2,-396.48437,66.89453,945.3125,-0.06741508768753297,0.03743801058697916,-0.01305663360124438,86.25,0.0,79.05,-1006.83594,91.79688,132.8125,0.07714093494427138,0.10551911591707318,-0.10152213739708096,57.0,19.95,-6.9
-868.65234,-397.94922,-477.05078,-2.2188330638031113,-0.22182995166507768,-1.800886572743813,-4.5,27.3,19.2,-377.44141,72.26563,942.38281,-0.10924958266028587,0.04689734606693803,-0.012656953202537678,86.25,0.0,79.05,-1013.18359,95.21484,111.81641,0.08713329397778931,0.12617002615959527,-0.1460214010717788,57.0,19.95,-6.9
-846.67969,-475.09766,-463.86719,-2.0693477077648996,-0.2383507147656804,-1.732139449771158,-4.5,27.3,19.2,-366.69922,93.75,945.3125,-0.14402299907824528,0.03530626543859329,0.062219067971420655,85.05,-0.3,78.0,-1018.55469,107.91016,123.53516,0.043699902877284424,0.12630319478152247,-0.13389747142280017,57.15,19.8,-6.45
-853.51562,-538.08594,-431.15234,-1.9189294732414968,-0.18945479217228367,-1.673117824989391,-2.7,26.55,19.2,-355.95703,93.26172,952.63672,-0.20064619240192172,0.05808874629657607,0.10032309620096086,85.05,-0.3,78.0,-996.09375,121.09375,126.46484,0.0656830229378538,0.11790973187575651,-0.11684385930156357,57.15,19.8,-6.45
-845.21484,-586.91406,-401.36719,-1.7879632822974212,-0.16094326804462952,-1.7012296687183384,-2.7,26.55,19.2,-358.88672,72.26563,958.49609,-0.18918828039550412,0.04210100674953242,0.14535520889629253,85.05,-0.3,78.0,-999.51172,113.76953,116.21094,0.0454317930940384,0.09925722362676792,-0.11950845347058334,58.05,18.45,-6.9
-839.35547,-627.44141,-369.62891,-1.574393624916182,-0.09619294905904148,-1.501915860667389,-4.05,28.2,18.9,-332.03125,67.38281,946.28906,-0.21796631629993785,0.01305663360124438,0.2083736376651266,85.05,-0.3,78.0,-983.39844,119.14063,126.46484,0.0031976177225788113,0.06821444848494637,-0.15734614445626918,58.05,18.45,-6.9
-848.63281,-651.85547,-341.30859,-1.384272640568412,-0.13922665976083967,-1.437698390702435,-4.05,28.2,18.9,-315.91797,64.45313,944.82422,-0.24594481687403294,-0.0030642745677264445,0.30243501610870743,84.6,-0.45,77.7,-997.55859,113.76953,122.55859,-0.0458314734927451,0.09939056678162028,-0.16440739754398787,57.15,18.6,-6.75
-824.21875,-656.25,-302.24609,-1.1866905482012917,-0.13456348906536122,-1.146588117978218,-2.4,28.5,19.5,-315.42969,44.92188,944.33594,-0.2238285281915364,-0.018785676870915768,0.3003032709603215,84.6,-0.45,77.7,-972.16797,117.1875,133.30078,-0.07847314476231865,0.11990813386929003,-0.196249708016148,57.15,18.6,-6.75
-788.08594,-631.34766,-318.84766,-0.9053062972667383,-0.11937511031573096,-0.7917932243096808,-2.4,28.5,19.5,-319.33594,23.92578,948.73047,-0.2279586753334558,-0.02145027103993551,0.34360331890597406,86.55,-0.3,79.05,-980.95703,105.46875,117.1875,-0.09792501380872065,0.12883462032861503,-0.16973658588202734,57.15,18.6,-6.75
-801.75781,-587.89062,-329.58984,-0.6116645989954287,-0.05622351292496973,-0.5631683568007387,-3.15,28.05,19.8,-336.42578,25.39063,946.77734,-0.26166621917722227,0.016120908168970823,0.44872275442434056,86.55,-0.3,79.05,-994.14062,89.35547,101.5625,-0.11804290049768368,0.08300314683586993,-0.19891430218516776,57.15,18.6,-6.75
-779.29687,-509.27734,-342.77344,-0.4445926072824211,-0.09685914123452771,-0.21756663590123115,-3.15,28.05,19.8,-325.68359,-5.37109,943.35937,-0.30949609466350086,-0.01119140022963804,0.4495222897546791,86.25,0.0,78.3,-993.16406,111.32813,112.30469,-0.1795957762936181,0.06514999938429474,-0.17546562915169872,56.1,18.6,-6.75
-800.78125,-466.30859,-319.33594,-0.2883123354003449,-0.014122506175437317,0.014655355196071187,-3.15,28.05,19.8,-352.05078,-25.39063,955.56641,-0.2941745472919434,-0.009192998236104533,0.48176410609262077,86.25,0.0,78.3,-1001.95312,84.47266,101.07422,-0.22076425362380997,0.02611326720248876,-0.1618759719968953,56.1,18.6,-6.15
-789.55078,-403.80859,-315.91797,-0.09472739608614184,-0.02198312006056938,0.2668622388933346,-3.15,28.05,19.8,-372.07031,-43.94531,948.24219,-0.27898616854231323,0.01851916509413623,0.5659662941246109,86.25,0.0,78.3,-992.1875,92.28516,112.79297,-0.19251906674001013,-0.020650910242522108,-0.13616238519311322,57.9,18.6,-6.15
-783.20312,-329.10156,-302.73437,0.10898307088350632,0.007594102108352528,0.5810215042523139,-3.15,28.5,19.8,-372.55859,-91.79688,954.58984,-0.21836599669864454,0.06288508561398169,0.5543752134962661,87.15,-0.15,78.45,-1014.64844,79.10156,97.16797,-0.22822518711023532,0.017453292519943295,-0.1196416220925105,57.9,18.3,-5.4
-784.66797,-275.87891,-318.84766,0.3441363424595331,0.016653931722529894,0.7859310124180822,-3.15,28.5,19.8,-378.90625,-110.35156,946.77734,-0.21690044372574488,0.021849951438642212,0.5702297844213825,87.15,-0.15,78.45,-999.51172,74.21875,96.19141,-0.2792526803190927,-0.008659974682545464,-0.11258036900479183,57.9,18.3,-5.4
-814.94141,-204.58984,-302.73437,0.5551745742936794,0.06395095818817463,0.937015264584046,-3.45,29.85,20.25,-381.34766,-109.86328,987.30469,-0.18612400582777772,0.060487003221741484,0.5439831740640415,84.9,0.15,77.4,-1024.41406,70.80078,110.35156,-0.2586017700765706,0.017453292519943295,-0.13922665976083967,56.25,19.95,-6.3
-835.9375,-133.78906,-314.94141,0.6885390221629206,0.07687442316749184,1.0883660285267895,-3.45,29.85,20.25,-405.27344,-137.20703,982.42187,-0.14881933839565087,0.0454317930940384,0.5218667108486197,84.9,0.15,77.4,-1024.41406,47.85156,116.21094,-0.2983046944338628,-0.0660827033365605,-0.14149157353115271,56.25,19.95,-6.3
-858.39844,-72.75391,-326.17187,0.8085803246541378,0.20451000229998678,1.1635083869446021,-3.3,28.65,19.95,-433.10547,-145.99609,980.95703,-0.10538594729514601,0.023048992634762316,0.4685743038694492,85.95,0.45,79.2,-1025.39063,51.75781,121.09375,-0.31442577713575887,-0.06315159739076123,-0.08779931162035035,57.45,19.05,-6.45
-861.81641,-7.32422,-336.91406,0.8843890497803618,0.22409486543539073,1.2888790523067841,-3.3,28.65,19.95,-416.99219,-142.57812,1002.44141,-0.09899088638291359,-0.03823737138439257,0.4696401764436422,85.95,0.45,79.2,-1029.78516,34.66797,118.16406,-0.3185559242776782,-0.11484528277510488,-0.0025314255470925756,57.45,19.05,-6.45
-871.09375,41.99219,-342.28516,0.9117013581789708,0.27352381158234657,1.2794195422939,-3.3,28.65,19.95,-428.71094,-153.32031,990.72266,-0.047696706864351436,-0.0373046674321268,0.452320052545626,85.95,0.45,79.2,-1022.94922,27.34375,112.30469,-0.32934764410860956,-0.06261874837012736,-0.0470306892217904,57.45,18.6,-7.5
-864.74609,95.21484,-342.28516,0.9767181889413383,0.2115712553877054,1.4093200351967081,-3.3,28.65,19.95,-414.0625,-165.03906,992.67578,-0.01025887081029747,-0.09792501380872065,0.41301680858704054,85.95,0.45,79.2,-1010.74219,8.30078,105.46875,-0.3815741785135871,-0.06341810916754076,-0.05102749320885741,57.45,18.6,-7.5
-871.09375,129.88281,-355.95703,0.9410122431040383,0.15508123068595617,1.4591484872094453,-3.45,28.05,21.6,-437.01172,-158.69141,953.61328,0.03357420068891412,-0.09419454706550798,0.3677181841149293,85.5,0.0,77.25,-1033.69141,-1.95312,111.81641,-0.4246080637483105,-0.06994633870170035,-0.034107224242473186,57.0,19.5,-5.85
-874.51172,152.34375,-358.39844,0.9563337904755957,0.19838127863160868,1.461147063735904,-3.45,28.05,21.6,-608.39844,-147.46094,969.72656,0.03077643789796721,-0.3050996102777272,0.36305518795237607,85.5,0.0,77.25,-1009.76562,-15.625,118.65234,-0.4456584798566141,-0.09086376072100198,0.0041301471419193814,57.0,19.5,-5.85
-901.36719,196.28906,-380.85937,0.8949142578345137,0.2295573969282826,1.4309034748585707,-4.35,29.4,19.65,-353.51562,-172.85156,890.625,0.06554985431592662,-0.512540543990588,0.2857810843861775,85.95,1.2,79.5,-1012.69531,-18.55469,109.86328,-0.4604471782075376,-0.0754088701945922,0.07394331722169258,57.0,19.5,-5.85
-925.78125,208.49609,-378.90625,0.8586752884436546,0.21263712796189838,1.423709053148925,-4.35,29.4,19.65,-395.01953,-116.69922,969.23828,0.13496316946406792,-0.18186069006393116,0.24594481687403294,85.95,1.2,79.5,-999.02344,-41.99219,108.39844,-0.4282051873366708,-0.03663864978956576,0.0462311538914518,57.0,19.5,-5.85
-965.33203,240.72266,-393.55469,0.8109785815793031,0.2117044240096326,1.3308468904343893,-3.6,29.4,19.65,-439.94141,-118.16406,939.45312,0.21743346727930396,-0.24274737368437935,0.16120977982140902,84.75,0.3,76.95,-1006.34766,-32.22656,124.51172,-0.4058223868773947,-0.03637213801278623,0.05702304825530834,58.35,18.75,-5.85
-1000.48828,250.48828,-401.85547,0.8578759276462412,0.1633415249697949,1.3502985849478661,-3.6,29.4,18.9,-370.11719,-81.05469,935.54687,0.18319289988197843,-0.14975186781499147,0.14975186781499147,84.75,0.3,76.95,-1008.30078,-50.29297,138.67187,-0.41341648898574723,-0.12470447318669564,0.04276719892501865,58.35,18.75,-5.85
-1018.06641,258.78906,-395.50781,0.8203047484373349,0.12510415358540233,1.2226631803482964,-3.6,29.4,18.9,-383.30078,-82.03125,905.76172,0.13776110678794004,-0.08420218803199005,0.08220361150553133,84.75,0.3,76.95,-1006.34766,-57.12891,142.08984,-0.3442695110814603,-0.1873230470238978,0.08899852734939565,58.35,18.75,-5.85
-1059.57031,257.32422,-390.625,0.7668789983033121,0.07007968185655272,1.124338486140869,-4.2,29.25,19.2,-403.32031,-98.63281,913.08594,0.15334916593627698,-0.020650910242522108,0.03344103206698695,84.75,0.3,76.95,-1001.46484,-75.19531,134.76562,-0.3246844734131311,-0.1898544725709904,0.11750987694412462,58.35,18.75,-5.85
-1047.85156,255.37109,-394.53125,0.6745496846094104,0.09139660974163587,0.9988346521567601,-4.2,29.25,19.2,-393.06641,-83.98438,929.6875,0.20544253171932733,-0.0002665117767795341,0.0031976177225788113,85.65,1.65,79.95,-992.1875,-74.21875,115.72266,-0.3017688239332212,-0.1815941782871516,0.17626498994911213,56.55,19.5,-6.3
-1041.99219,237.79297,-385.25391,0.5630351881788116,0.06368444641139509,0.8684013102333182,-4.2,29.25,19.2,-348.14453,-82.51953,926.75781,0.20024651200321503,-0.014788698350923554,-0.02464771422958912,85.65,1.65,79.95,-976.5625,-82.03125,95.70313,-0.26646255849462785,-0.18758955880067732,0.16720516033493477,56.55,19.5,-6.3
-1024.90234,233.39844,-394.53125,0.5262633697673186,-0.01212410418190381,0.7400995389253371,-4.2,29.25,19.2,-370.11719,-88.37891,952.63672,0.13003366152473514,-0.019318525891549636,-0.11551147495059111,84.9,0.9,79.2,-974.12109,-83.49609,100.58594,-0.23448690486761536,-0.13962634015954636,0.14029253233503258,57.15,20.55,-6.15
-1013.67187,220.70312,-407.22656,0.4671087508965496,0.0030642745677264445,0.6167274500896139,-5.1,28.95,19.95,-368.16406,-83.49609,969.72656,0.15428169535561753,-0.03250850264764638,-0.11764322009897699,84.9,0.9,79.2,-982.42187,-86.42578,93.26172,-0.20530936309740017,-0.1184425808963904,0.12617002615959527,57.15,20.55,-6.15
-996.58203,227.53906,-376.46484,0.4631117723765574,-0.09965690402547463,0.5958102026032375,-5.1,28.95,19.95,-372.07031,-80.07813,936.03516,0.1718683310304132,-0.007194421709645826,-0.13349761649116829,84.9,0.9,79.2,-977.53906,-84.47266,102.05078,-0.15041805999047772,-0.0855343978500373,0.16720516033493477,58.2,19.35,-6.45
-970.70312,207.03125,-378.90625,0.3958300278438768,-0.08286980368101757,0.3705161214388014,-4.2,30.3,17.7,-345.21484,-54.19922,945.80078,0.17746403114523224,-0.11884226129509709,-0.16480707794269456,84.9,0.9,79.2,-1000.0,-71.28906,103.02734,-0.17746403114523224,-0.10631847671448658,0.11084847878803786,58.2,19.35,-6.45
-972.65625,157.71484,-346.19141,0.36625263114202966,-0.0835359958565038,0.2615328760223699,-4.2,30.3,17.7,-351.07422,-27.83203,937.5,0.13283159884860724,0.03357420068891412,-0.16973658588202734,85.65,0.45,79.2,-990.72266,-58.10547,103.02734,-0.08486838020747627,-0.09459422746421467,0.09619294905904148,56.7,19.8,-5.4
-959.47266,149.41406,-366.69922,0.28524806083261844,-0.01025887081029747,0.1629418445710882,-3.45,29.55,19.2,-383.30078,-34.17969,946.77734,0.08686678220100978,0.004396658918698916,-0.1905206647464766,85.65,0.45,79.2,-979.49219,-32.71484,104.98047,-0.12497098496347518,-0.1252373222073295,0.13816078718664673,56.7,19.8,-5.4
-954.10156,130.37109,-352.05078,0.21769980452315832,-0.04250068714823912,0.1057856276938527,-3.45,29.55,19.2,-394.53125,-18.06641,928.22266,0.07394331722169258,0.00279793732387211,-0.19824811000968148,85.05,0.75,78.0,-989.25781,-51.75781,101.07422,-0.011990761027051442,-0.07021285047847989,0.12910113210539456,56.7,19.8,-5.4
-942.38281,112.30469,-330.07812,0.14562172067307208,0.02744565155346123,0.021583439661862675,-3.45,29.55,19.2,-385.74219,-55.17578,931.64062,0.04676417744501087,-0.04636449704630416,-0.23102294990118222,85.05,0.75,78.0,-1010.74219,-31.73828,96.67969,-0.016120908168970823,-0.08100457030941122,0.10698466888997281,56.7,19.8,-5.4
-934.08203,70.80078,-336.91406,0.16760484073364146,-0.01958503766832917,0.07674125454556469,-3.45,29.55,19.2,-370.11719,-25.87891,950.19531,0.11084847878803786,0.0454317930940384,-0.19958031982772878,84.45,0.75,79.8,-992.1875,-12.69531,102.53906,0.022915824012835147,-0.021050590641228807,0.09859103145128169,56.7,19.8,-5.4
-923.82812,68.84766,-338.86719,0.2157014025296248,-0.022516143614128445,-0.03290818304635308,-4.35,29.4,18.9,-382.8125,7.32422,929.19922,0.07607506237007844,0.0058622118915985545,-0.16613928776074183,84.45,0.75,79.8,-994.14062,-9.27734,109.375,-0.011058231607710873,0.00186523337160634,0.11724353970027028,57.0,19.5,-6.3
-914.0625,27.34375,-340.82031,0.1938514510909826,0.03290818304635308,-0.023048992634762316,-4.35,29.4,18.9,-371.09375,4.39453,949.70703,0.07727410356619854,-0.018918845492842937,-0.16107661119948188,84.45,0.75,79.8,-1013.67187,-8.30078,109.375,0.1333644478692411,-0.010924888452858507,0.1370949146124538,57.0,19.5,-6.3
-905.27344,-3.90625,-364.74609,0.21743346727930396,0.07634157414685798,-0.0373046674321268,-3.15,28.05,18.45,-329.10156,-0.97656,939.94141,0.08540122922811014,0.03783769098568587,-0.21183759263155974,84.45,0.75,79.8,-1010.25391,19.04297,106.93359,0.11417909059961863,-0.04436592051984546,0.06968000145784602,57.0,19.5,-6.3
-920.89844,-24.90234,-387.20703,0.23901690694116667,0.03530626543859329,-0.10125580015322662,-3.15,28.05,18.45,-311.52344,-15.13672,911.62109,0.10325420214676014,0.06981317007977318,-0.17493260559813967,85.95,0.45,77.7,-1006.34766,14.16016,101.07422,0.1629418445710882,-0.0009327039522657697,0.09765850203194111,57.0,19.5,-6.3
-941.40625,-48.33984,-390.13672,0.2641974701913896,0.10765086106545904,-0.12110717506541013,-5.55,28.8,19.2,-386.23047,-2.92969,931.64062,0.11564464357251827,0.15801233663175543,-0.1605435876459228,85.95,0.45,77.7,-995.11719,32.22656,71.28906,0.18186069006393116,0.05315923835724329,0.14162474215307985,55.8,20.25,-5.55
-956.54297,-58.10547,-392.57812,0.3710489704594353,-0.03543943406052046,0.00013316862192716734,-5.55,28.8,19.2,-407.71484,3.90625,903.80859,0.1159111553492978,0.08406884487713767,-0.15468155028724945,84.6,-0.45,78.15,-1015.13672,32.71484,79.10156,0.1994471512058016,0.08326948407972427,0.09526041963970092,55.8,20.25,-5.55
-957.51953,-87.40234,-399.41406,0.41181776739092046,0.026246610357341126,0.04942877161403061,-6.15,28.2,18.6,-383.78906,21.48438,939.45312,0.11884226129509709,0.051960197161123184,-0.16933690548332064,84.6,-0.45,78.15,-988.28125,32.22656,82.03125,0.2411484775566273,0.1253706653621819,0.035173096816666125,57.9,18.6,-6.15
-994.14062,-91.79688,-403.32031,0.44632467203210036,-0.0369049870334201,0.0,-6.15,28.2,18.6,-348.14453,38.08594,939.94141,0.14255744610534563,0.06381778956624745,-0.16640579953752135,85.5,-37.35,78.15,-993.65234,60.54688,52.24609,0.23488675979924725,0.18998781572584275,0.0932618431132422,57.9,18.6,-6.15
-991.69922,-79.10156,-387.69531,0.4376646973495548,0.0014655529728996386,0.04063545377663278,-6.15,28.2,18.6,-374.51172,36.62109,924.31641,0.16560643874010797,0.07301078780235198,-0.15628027188207627,85.5,1.05,79.05,-999.02344,67.38281,77.63672,0.1777305429220118,0.18865543137487029,0.08127108208619076,55.8,19.95,-5.25
-958.00781,-83.98438,-372.55859,0.4781669825042605,0.028111843728947466,0.05582383252626303,-6.15,28.2,18.6,-383.30078,56.64063,916.50391,0.1159111553492978,0.05702304825530834,-0.11777638872090417,85.5,1.05,79.05,-998.53516,83.98438,75.19531,0.19078717652325616,0.22662629098248332,0.040901965553412314,55.8,19.95,-5.25
-918.45703,-40.52734,-339.84375,0.4882925101597056,-0.0482297304179105,0.06621587195848767,-3.75,28.5,18.45,-296.38672,128.41797,857.91016,0.24234769328567263,0.10418690609902591,-0.14841965799694418,86.4,0.45,79.2,-986.81641,63.96484,75.19531,0.17986211353747242,0.223695185036684,0.08020520951199782,56.4,20.55,-5.7
-898.4375,-15.13672,-328.61328,0.45338592511981896,0.0,0.0656830229378538,-3.75,28.5,18.45,-390.13672,18.06641,900.87891,0.03797085960761303,0.1220398790176759,-0.0676814249313873,86.4,0.45,79.2,-984.375,81.54297,86.91406,0.22942422830635542,0.14988521096984384,0.06421746996495417,56.4,20.55,-5.7
-879.39453,-25.87891,-321.77734,0.539320003368563,-0.004529827540626083,0.17733086252330507,-5.55,27.0,19.8,-444.82422,27.83203,944.82422,0.04942877161403061,0.08446852527584436,-0.08886518419454328,86.25,-0.75,78.0,-986.81641,108.39844,84.47266,0.2242282085902431,0.2307564381244027,0.08953137637002952,56.7,20.1,-6.45
-867.67578,-8.30078,-319.82422,0.47017302546427603,0.014788698350923554,0.13616238519311322,-5.55,27.0,19.8,-423.33984,10.25391,949.70703,0.11671051614671123,0.028111843728947466,-0.10978260621384492,86.25,-0.75,78.0,-983.88672,104.00391,66.89453,0.2224961438405639,0.25833543283271626,0.04489894407340452,56.7,20.1,-6.45
-847.65625,-2.92969,-340.82031,0.45658354284239777,0.03903673218180597,0.14881933839565087,-4.95,27.75,17.7,-383.30078,55.66406,993.65234,0.1151117945518844,0.06115319539722772,-0.10005658442418133,85.35,-0.15,79.2,-985.83984,115.72266,73.24219,0.16933690548332064,0.31629101050736524,0.08007204089007065,56.7,19.8,-5.4
-851.07422,-25.39063,-348.63281,0.4472572014514409,0.06235223659334782,0.1930520902935692,-4.95,27.75,17.7,-415.52734,20.99609,966.79687,0.12963398112602842,0.05275955795853659,-0.04223434990438478,85.35,-0.15,79.2,-992.1875,119.14063,89.35547,0.1670719917130076,0.2981715258119357,0.08713329397778931,56.7,19.8,-5.4
-875.0,-30.27344,-364.25781,0.4252740813908715,0.08873201557261612,0.1909203451451833,-4.95,27.75,17.7,-374.02344,38.57422,952.14844,0.15161710118659782,0.06901380928235978,-0.08513471745133061,85.35,-0.15,79.2,-1006.34766,128.90625,76.66016,0.14855282661887137,0.34973204257435214,0.08033837813392498,56.7,19.8,-5.4
-880.37109,-25.87891,-366.69922,0.43499992864760995,0.09765850203194111,0.2109050632122192,-4.95,27.75,17.7,-396.97266,60.54688,951.66016,0.1666723113143009,0.1111148160318922,-0.07167840345137952,85.35,-0.15,79.2,-994.14062,125.97656,78.61328,0.14668759324726502,0.37358039600652787,0.08247012328231085,56.7,19.8,-5.4
-923.33984,-24.90234,-361.32812,0.46257892335592354,0.17320054084846048,0.20624189251674072,-6.45,27.9,19.65,-410.15625,41.99219,916.99219,0.17173498787556082,0.09659262945774817,-0.06355127778946792,85.05,1.8,79.35,-1000.48828,130.85937,72.26563,0.07034601910040704,0.3509310837704723,0.02984373394570144,56.55,20.7,-5.85
-942.87109,-11.71875,-370.11719,0.4527197329443327,0.17946243313876573,0.2109050632122192,-6.45,27.9,19.65,-393.55469,70.80078,926.26953,0.15055122861240486,0.0579555776746489,-0.05662319332367644,85.05,1.8,79.35,-1017.57812,136.71875,98.14453,0.031442630073453444,0.35013172297305883,0.05582383252626303,56.55,20.7,-5.85
-942.38281,8.30078,-392.57812,0.4155482341341331,0.1901209843477699,0.1885222627529431,-4.35,27.9,19.65,-392.57812,52.73438,962.40234,0.08939820774810235,0.04223434990438478,-0.027179139776681696,86.7,0.9,79.5,-1022.46094,121.58203,95.70313,0.00013316862192716734,0.3336109598724561,0.02611326720248876,56.7,21.15,-6.15
-975.09766,16.60156,-406.25,0.4059555554993219,0.19718223743548857,0.14881933839565087,-4.35,27.9,19.65,-421.875,65.42969,954.10156,0.12403828101120941,0.07967236049136395,-0.025047394628295826,86.7,0.9,79.5,-1036.62109,111.32813,82.51953,-0.019185357269622467,0.34973204257435214,0.016653931722529894,56.7,21.15,-6.15
-986.32812,25.39063,-427.24609,0.40449000252642225,0.10858339048479962,0.17733086252330507,-5.4,28.65,17.25,-395.50781,54.6875,944.82422,0.09885754322806121,0.01212410418190381,-0.03224199087086685,85.05,1.05,78.6,-1018.55469,114.74609,101.07422,-0.03943641258051267,0.3121608633654458,0.035039753661813756,56.7,21.15,-6.15
-1005.85937,36.13281,-416.99219,0.3867703727626246,0.1366952342137471,0.1803951370910315,-5.4,28.65,17.25,-391.11328,89.35547,922.85156,0.0373046674321268,0.026246610357341126,0.024381376985734785,85.05,1.05,78.6,-1010.25391,100.58594,86.91406,-0.047696706864351436,0.3021685043319279,-0.0058622118915985545,57.45,19.35,-6.15
-1016.11328,31.73828,-401.85547,0.33174572650084977,0.09605978043711431,0.23102294990118222,-5.55,28.5,18.75,-384.76562,103.02734,956.54297,-0.00186523337160634,0.038903563559878805,0.00559570011481902,85.05,1.05,78.6,-1010.74219,104.00391,73.73047,-0.06235223659334782,0.3108284790144733,0.04356655972243205,57.45,19.35,-6.15
-1001.95312,23.92578,-384.27734,0.25713621710367096,0.11564464357251827,0.14988521096984384,-5.55,28.5,18.75,-402.34375,9.27734,917.96875,0.13043334192344183,0.04436592051984546,-0.0750091897958855,85.05,1.05,78.6,-1008.30078,84.47266,87.89063,-0.07341046820105869,0.2611331956236632,0.017320123898016127,57.6,20.25,-5.85
-988.76953,18.06641,-348.63281,0.20211174537482135,0.11604432397122498,0.1159111553492978,-5.55,28.5,18.75,-389.16016,125.97656,943.35937,0.07474267801910597,0.003996978519992214,-0.059421130647548545,85.8,1.05,79.05,-1004.88281,83.00781,90.33203,-0.10272135312612628,0.2717917468326674,0.009459335479958867,57.6,20.25,-5.85
-944.82422,0.48828,-337.89062,0.16880405646268679,0.08899852734939565,0.1374945950111605,-5.55,28.5,18.75,-429.6875,80.07813,962.89062,-0.03424039286440035,-0.09259565093775597,-0.011324568851565207,85.8,1.05,79.05,-991.21094,65.42969,99.60938,-0.1099157748357721,0.2785864881436065,-0.02518073778314819,55.5,19.95,-6.3
-928.71094,7.8125,-319.33594,0.1424242774834185,0.05875493847206231,0.14948553057113714,-5.55,28.5,18.75,-334.47266,30.76172,961.91406,0.0579555776746489,-0.08486838020747627,0.007194421709645826,84.75,1.8,76.5,-999.51172,69.33594,101.5625,-0.08779931162035035,0.2137030005360913,0.006794741310939124,55.5,19.95,-6.3
-913.08594,-8.30078,-310.05859,0.13389747142280017,0.10765086106545904,0.08673361357908262,-6.0,28.5,18.75,-386.71875,75.68359,952.63672,0.056356856079822104,-0.06461715036366086,-0.011857592405124276,84.75,1.8,76.5,-993.65234,64.45313,113.28125,-0.0454317930940384,0.23875039516438712,0.03104294967474674,56.25,18.45,-6.9
-895.01953,-2.44141,-301.75781,0.07634157414685798,0.11138132780867173,0.07833997614039148,-6.0,28.5,18.75,-364.25781,88.86719,927.73437,0.047430369620497105,-0.10072277659966757,-0.0029311059457992773,84.75,1.8,76.5,-979.00391,52.24609,105.46875,-0.05688970510045597,0.1670719917130076,-0.0002665117767795341,56.25,18.45,-6.9
-890.13672,-14.16016,-296.875,0.06421746996495417,0.15095108354403677,0.10458658649773261,-4.65,25.65,18.6,-362.30469,74.70703,939.94141,0.04396624012113876,-0.0855343978500373,0.02424803383088242,84.75,1.8,76.5,-988.76953,42.96875,118.16406,-0.08220361150553133,0.15987757000336178,0.00013316862192716734,56.25,18.45,-6.9
-876.95312,-0.97656,-303.22266,-0.00186523337160634,0.2372848421914875,0.07447634077525163,-4.65,25.65,18.6,-364.25781,45.41016,944.33594,0.019984718067035872,-0.05142717360756412,0.022649312236055614,85.5,2.25,78.6,-979.00391,60.54688,123.53516,-0.04010260475599891,0.1815941782871516,-0.06435063858688132,56.25,18.45,-6.9
-886.23047,2.92969,-312.5,0.01625425132382319,0.2530060699617516,0.10671815711319327,-5.7,26.7,19.35,-369.62891,70.80078,930.17578,0.04889592259339674,-0.011058231607710873,0.03530626543859329,85.5,2.25,78.6,-1002.44141,71.28906,101.07422,-0.021183759263155976,0.18612400582777772,-0.03823737138439257,56.25,20.25,-7.95
-891.11328,17.57813,-332.51953,0.026379778979268294,0.2983046944338628,0.09086376072100198,-5.7,26.7,19.35,-364.25781,105.46875,965.33203,-0.03797085960761303,0.09192963329519492,0.004796339317405617,85.35,1.2,79.5,-1044.92188,66.40625,125.48828,0.025313906405075356,0.1253706653621819,0.008793317837397832,56.25,20.25,-7.95
-906.73828,20.50781,-353.51562,0.09859103145128169,0.2603338348262498,0.1641408857672083,-5.7,26.7,19.35,-377.44141,52.73438,968.75,-0.06728174453268061,0.09899088638291359,0.07434299762039927,85.35,1.2,79.5,-1027.34375,70.80078,125.97656,-0.024381376985734785,0.16280850141623585,-0.03783769098568587,56.25,20.25,-7.95
-940.42969,8.78906,-386.71875,0.1432236382808319,0.31162783981188674,0.14722044226789888,-5.7,26.7,19.35,-355.46875,57.61719,1000.0,-0.07247776424879292,0.1065849884912661,0.09712565301130725,85.5,1.05,80.1,-1040.03906,68.84766,110.83984,-0.0365053066347134,0.10352071392353968,-0.09605978043711431,56.25,20.25,-7.95
-977.53906,12.69531,-408.69141,0.14921901879435762,0.2558040072856237,0.17466609382136014,-4.95,28.05,18.45,-364.74609,40.52734,1015.625,-0.07474267801910597,0.08953137637002952,0.05475795995207009,85.5,1.05,80.1,-1022.46094,62.01172,123.53516,0.0007993607974134029,0.06128636401915488,-0.02944405354699474,55.65,19.35,-6.75
-1000.48828,15.625,-429.19922,0.09912405500484074,0.2816509372442581,0.16387437399042878,-4.95,28.05,18.45,-343.75,37.10938,1019.04297,-0.05702304825530834,0.05076115596500308,0.047830050019203804,85.5,1.05,80.1,-1022.94922,61.52344,101.5625,-0.05275955795853659,0.04516545585018406,-0.0660827033365605,55.65,19.35,-6.75
-1035.15625,16.60156,-434.57031,0.09139660974163587,0.2615328760223699,0.14722044226789888,-5.25,27.75,18.45,-351.07422,47.85156,994.14062,-0.03743801058697916,0.03623896939085906,0.08100457030941122,85.5,1.05,80.1,-1011.71875,66.89453,108.88672,-0.021316927885083145,-0.019851374912183504,-0.0458314734927451,57.3,19.95,-7.65
-1057.12891,12.69531,-419.43359,0.09046408032229529,0.19265240989486246,0.1637412053685016,-5.25,27.75,18.45,-367.1875,33.20313,966.30859,-0.022116463215421746,-0.03743801058697916,0.0750091897958855,85.35,0.15,79.5,-1000.48828,50.78125,94.72656,-0.014122506175437317,-0.015321547371557422,-0.017453292519943295,57.3,19.95,-7.65
-1058.59375,8.30078,-413.57422,0.11417909059961863,0.10898307088350632,0.18585766858392339,-6.0,27.3,17.4,-364.25781,28.32031,933.59375,-0.01212410418190381,-0.04236751852631195,0.0684807857288007,85.35,0.15,79.5,-976.5625,56.15234,96.67969,-0.00279793732387211,-0.01771980429672283,-0.016520588567677526,56.1,21.15,-8.85
-1030.27344,18.06641,-412.10937,0.13496316946406792,0.1025880099712739,0.19838127863160868,-6.0,27.3,17.4,-362.30469,36.13281,898.4375,-0.031975479094087315,-0.009459335479958867,0.07860648791717102,85.35,0.45,80.25,-969.72656,52.24609,95.21484,-0.023715184810248553,-0.0014655529728996386,-0.025047394628295826,56.1,21.15,-8.85
-995.60547,31.73828,-398.4375,0.11604432397122498,0.06022049144496195,0.22316233601605018,-6.45,27.45,17.25,-341.30859,28.80859,880.85937,-0.06461715036366086,0.020784078864449274,0.07727410356619854,85.35,0.45,80.25,-961.42578,51.75781,89.84375,-0.011457912006417574,-0.03943641258051267,-0.021849951438642212,55.8,19.95,-8.7
-972.65625,32.22656,-394.04297,0.06368444641139509,0.07447634077525163,0.1436233186795386,-6.45,27.45,17.25,-360.83984,25.39063,871.09375,-0.05968764242432808,0.017986141540577164,0.13309793609246157,85.35,0.45,80.25,-964.35547,50.29297,98.14453,-0.03184231047216015,0.045698304870817934,0.008260294283838763,55.8,19.95,-8.7
-928.71094,34.17969,-381.83594,0.04942877161403061,0.052226708937902724,0.1795957762936181,-6.45,27.45,17.25,-364.25781,19.53125,866.69922,-0.10938292581513821,0.019185357269622467,0.13509651261892028,85.35,0.45,80.25,-959.96094,51.75781,79.10156,-0.030376757499260505,0.04489894407340452,-0.0025314255470925756,55.8,19.95,-8.7
-895.50781,30.76172,-362.79297,0.07634157414685798,0.0025314255470925756,0.16773818388849382,-6.45,27.45,17.25,-366.69922,2.44141,876.46484,-0.07807346436361194,0.07993869773521828,0.1159111553492978,85.35,0.45,80.25,-967.77344,69.33594,89.35547,-0.017986141540577164,0.10352071392353968,-0.03970292435729221,55.5,19.5,-7.35
-878.90625,21.97266,-349.12109,0.14841965799694418,-0.024781057384441488,0.2460781600288853,-7.65,27.0,17.4,-335.44922,-7.32422,922.85156,-0.11058196701125833,0.11084847878803786,0.08233695466038368,86.4,0.15,78.9,-972.16797,53.71094,95.70313,-0.011591080628344743,0.08846550379583658,-0.025047394628295826,55.5,19.5,-7.35
-856.93359,23.4375,-354.49219,0.10911641403835869,-0.034373736019252726,0.19185304909744907,-7.65,27.0,17.4,-353.51562,-21.97266,959.96094,-0.09739199025516157,0.11218068860608514,0.05342575013402282,86.4,0.15,78.9,-985.35156,46.875,97.16797,0.0002665117767795341,0.09939056678162028,-0.01585457092511649,56.55,20.7,-7.95
-843.26172,28.80859,-348.14453,0.12403828101120941,0.013189976756096747,0.1700030976588069,-6.6,27.3,17.4,-356.44531,-18.55469,959.96094,-0.05982081104625525,0.09152977836356303,0.07674125454556469,85.35,0.45,77.4,-988.76953,34.66797,92.28516,-0.014389017952216851,0.07873965653909817,0.007993957039984428,56.55,20.7,-7.95
-820.80078,39.55078,-365.72266,0.10898307088350632,0.009192998236104533,0.14082538135566647,-6.6,27.3,17.4,-352.05078,-22.46094,981.44531,-0.01252378458061051,0.04556513624889076,0.06435063858688132,85.35,0.45,77.4,-1000.48828,47.85156,90.82031,-0.018918845492842937,0.09299533133646266,-0.0361056262360067,56.55,20.7,-7.95
-819.33594,49.31641,-368.16406,0.09272899409260832,0.018918845492842937,0.1524164619840112,-5.7,27.9,16.8,-355.95703,-17.57813,963.37891,0.009725847256738402,0.03277483989150072,0.022649312236055614,85.8,1.8,78.0,-987.30469,28.32031,79.10156,-0.03264167126957355,0.07101221127589329,-0.052226708937902724,56.55,20.7,-7.95
-818.35937,58.59375,-373.04687,0.05995397966818241,0.08526806060618297,0.1049862668964393,-5.7,27.9,16.8,-322.75391,-14.64844,958.98437,0.023981696587028086,0.07913933693780488,0.04969528339081014,85.8,1.8,78.0,-1009.27734,23.92578,103.51563,-0.0007993607974134029,0.052226708937902724,-0.0373046674321268,55.65,19.35,-7.8
-818.84766,83.49609,-383.30078,0.10458658649773261,0.04276719892501865,0.11750987694412462,-7.05,27.75,17.7,-429.19922,-9.27734,932.12891,-0.013855994398657782,0.09033073716744291,0.056356856079822104,85.8,1.8,78.0,-1016.60156,10.74219,104.49219,0.00279793732387211,0.0041301471419193814,-0.0283781809728018,55.65,19.35,-7.8
-812.98828,93.75,-388.67187,0.07607506237007844,0.05142717360756412,0.15374884633498367,-7.05,27.75,17.7,-440.42969,-8.30078,905.27344,-0.030643269276040042,0.00279793732387211,0.011457912006417574,85.8,1.8,78.0,-1013.18359,27.34375,93.26172,0.015588059148336955,-0.013323145378023914,-0.05502447172884963,56.1,19.35,-9.3
-817.38281,94.23828,-380.85937,0.07527570157266503,0.10884990226157916,0.1305666850782942,-7.05,27.75,17.7,-422.36328,-15.625,913.08594,-0.030376757499260505,-0.008260294283838763,0.0002665117767795341,85.95,0.9,78.15,-998.53516,16.11328,97.65625,-0.017852972918649995,-0.0365053066347134,0.007860613885132062,56.1,19.35,-9.3
-821.28906,102.05078,-383.78906,0.04316687932372535,0.11950845347058334,0.06115319539722772,-7.05,27.75,17.7,-422.36328,-33.69141,913.57422,-0.007727445263204894,0.0031976177225788113,0.017986141540577164,85.95,0.9,78.15,-1012.69531,8.30078,83.00781,0.032375159492794015,-0.04796321864113097,-0.0063950609122324234,56.25,19.5,-7.65
-833.00781,122.55859,-380.85937,0.007727445263204894,0.10485292374158693,0.052226708937902724,-5.7,28.2,17.85,-415.03906,-23.92578,927.24609,-0.0462311538914518,0.03797085960761303,-0.00186523337160634,85.5,0.3,78.6,-1022.94922,10.25391,79.10156,0.022649312236055614,-0.07420982899847209,-0.0369049870334201,56.25,19.5,-7.65
-833.49609,112.79297,-385.74219,-0.03024341434440814,0.14335680690275904,0.047430369620497105,-5.7,28.2,17.85,-381.83594,-44.92188,962.40234,-0.06661555235719438,0.07580855059329891,-0.029577396701847107,85.5,0.3,78.6,-1009.27734,-9.27734,94.23828,0.07367680544491303,-0.10312103352483297,0.009059655081252166,55.8,22.2,-6.9
-836.91406,97.65625,-403.32031,0.017053612121236593,0.15108425216596394,0.08380250763328333,-5.7,27.9,18.3,-409.66797,-33.20313,952.63672,-0.06728174453268061,0.0972588216332344,-0.018918845492842937,87.3,1.5,78.6,-1027.83203,17.08984,98.63281,0.08660027042423024,-0.12470447318669564,-0.05982081104625525,55.8,22.2,-6.9
-851.5625,95.21484,-411.62109,0.01065855120900417,0.1442895108550248,0.04076879693148514,-5.7,27.9,18.3,-449.21875,-24.41406,950.19531,-0.05422511093143622,0.09126344111970869,-0.06248540521527499,87.3,1.5,78.6,-1030.27344,3.90625,107.42188,0.12417144963313657,-0.1541485267336904,-0.038903563559878805,54.9,20.1,-6.15
-860.83984,56.64063,-430.66406,0.014522186574144018,0.16907039370654112,0.02238280045927608,-6.6,26.55,18.15,-419.43359,-42.48047,961.42578,-0.05609034430304257,0.05036147556629638,-0.08979788814680904,84.9,-0.15,76.35,-1028.32031,17.08984,97.16797,0.15095108354403677,-0.25793575243400957,0.003463954966433146,54.9,20.1,-6.15
-873.53516,40.52734,-430.66406,-0.04956194023595778,0.15588059148336955,-0.0559571756811154,-6.6,26.55,18.15,-408.20312,-28.80859,961.91406,0.00279793732387211,0.02145027103993551,-0.06901380928235978,84.9,-0.15,76.35,-1009.76562,30.76172,89.84375,0.1934517706922759,-0.25234005231919054,0.05076115596500308,56.1,21.15,-6.75
-907.71484,54.19922,-426.75781,-0.023848353432175718,0.24168150111018638,-0.031309286918601076,-6.6,26.55,18.15,-407.22656,-32.22656,954.10156,-0.01678710034445706,0.012257272803830977,-0.08420218803199005,84.9,0.9,78.15,-1024.41406,-6.34766,61.03516,0.1569464640575625,-0.29324201787260284,0.011724423783197109,56.1,21.15,-6.75
-890.625,22.46094,-418.94531,-0.0291777163031404,0.20530936309740017,-0.07860648791717102,-6.6,26.55,18.15,-411.62109,-27.34375,937.01172,-0.044099583275991124,-0.06661555235719438,-0.14229093432856613,84.9,0.9,78.15,-1030.27344,14.64844,50.78125,0.1512174207878911,-0.23168914207666846,0.006128723668378088,56.1,21.15,-6.75
-909.66797,20.01953,-422.36328,-0.004929507939332785,0.16267533279430868,-0.0014655529728996386,-6.6,26.55,18.15,-413.08594,-26.36719,939.45312,0.013456313999951081,-0.0454317930940384,-0.07687442316749184,86.85,1.05,78.0,-1014.16016,13.67187,52.73438,0.19145336869874238,-0.1430902951259795,0.05728938549916267,56.1,21.15,-6.75
-924.80469,29.78516,-436.52344,0.03570594583729999,0.10125580015322662,-0.04916225983725108,-5.7,27.15,18.6,-404.29687,-34.17969,940.42969,0.01492186697285072,-0.03677181841149293,-0.07767378396490525,86.85,1.05,78.0,-1036.62109,18.55469,79.10156,0.18012862531425197,-0.19398461971290976,0.05342575013402282,55.8,19.95,-8.4
-925.78125,22.94922,-433.59375,0.0648836621404404,0.12790191637634926,-0.06621587195848767,-5.7,27.15,18.6,-407.22656,-39.55078,933.10547,0.0186523337160634,0.03530626543859329,-0.132165406673121,86.85,1.05,78.0,-1016.60156,20.50781,67.87109,0.23635213823922172,-0.22675963413733566,0.03250850264764638,55.8,19.95,-8.4
-919.92187,37.10938,-426.26953,0.015321547371557422,0.20424349052320723,-0.09499390786292138,-6.15,27.15,17.85,-424.80469,-47.85156,930.17578,0.06928032105913931,0.06235223659334782,-0.13083302232214852,86.85,1.05,78.0,-1017.57812,12.69531,55.17578,0.19931398258387445,-0.18639051760455722,-0.015321547371557422,55.8,19.95,-8.4
-908.69141,31.25,-429.19922,0.03543943406052046,0.20304444932708712,-0.10325420214676014,-6.15,27.15,17.85,-432.12891,-41.99219,939.45312,0.015188378749630253,0.08300314683586993,-0.13043334192344183,87.45,0.9,78.9,-1030.76172,30.76172,60.05859,0.22782550671152862,-0.14668759324726502,0.034107224242473186,55.8,19.95,-8.4
-928.71094,27.83203,-441.40625,0.04276719892501865,0.15707963267948966,-0.019451694513476805,-5.55,27.3,17.1,-423.82812,-32.71484,941.89453,0.04902909121532391,0.06115319539722772,-0.14002602055825306,87.45,0.9,78.9,-1038.08594,36.13281,77.14844,0.2841821882584255,-0.11444560237639817,0.02851152412765417,55.8,19.95,-8.4
-938.47656,32.22656,-437.98828,0.10591879631577987,0.1434899755246862,-0.0005328490206338688,-5.55,27.3,17.1,-424.80469,-44.43359,958.00781,0.03210864771601448,0.05782240905272174,-0.1119141768293056,86.25,0.75,77.25,-1033.20313,26.36719,82.03125,0.2656630231642893,-0.1184425808963904,0.06541651116107426,55.8,20.7,-6.6
-941.89453,27.34375,-466.79687,0.13229857529504815,0.1325650870718277,-0.005196019716112318,-6.0,27.75,16.35,-411.13281,-40.03906,959.47266,0.03264167126957355,0.1253706653621819,-0.1228392398150893,86.25,0.75,77.25,-1022.94922,34.66797,70.80078,0.25527098373206464,-0.12217304763960307,0.038903563559878805,55.8,20.7,-6.6
-969.72656,25.39063,-481.44531,0.1325650870718277,0.15161710118659782,0.047696706864351436,-6.0,27.75,16.35,-416.50391,-31.25,957.51953,0.038903563559878805,0.04236751852631195,-0.17026943490266122,84.6,-0.15,78.45,-1029.29688,37.10938,70.80078,0.25407194253594456,-0.11124815918674456,0.017320123898016127,56.25,20.25,-6.3
-986.32812,-1.95312,-476.07422,0.10631847671448658,0.2083736376651266,-0.023182161256689485,-6.0,27.75,16.35,-429.19922,-35.15625,948.73047,0.07341046820105869,0.0559571756811154,-0.12976714974795558,84.6,-0.15,78.45,-1013.67187,43.94531,56.15234,0.24208118150889307,-0.10871673363965198,0.04956194023595778,56.25,20.25,-6.3
-1016.11328,-8.30078,-484.375,0.114312433754471,0.1529494855375703,-0.07274427602557246,-6.0,27.75,16.35,-405.27344,-13.67187,941.89453,0.06594953471463334,-0.005329188338039486,-0.1694700741052478,84.6,-0.15,78.45,-1014.16016,29.78516,76.17188,0.24541196785339908,-0.13189889489634146,0.1029876903699806,56.7,19.8,-8.25
-1024.90234,-5.37109,-478.51562,0.15561407970659,0.10871673363965198,-0.02238280045927608,-7.5,26.4,17.55,-406.73828,-31.73828,949.70703,0.06714857591075343,0.0033307863445059785,-0.18838891959809073,84.6,-0.15,78.45,-1006.34766,32.71484,84.96094,0.26219906819785616,-0.12430479278798894,0.09712565301130725,56.7,19.8,-8.25
-1029.29688,3.90625,-458.98437,0.2145023613335047,0.030110245722480975,0.02051756708766974,-7.5,26.4,17.55,-411.62109,-9.76562,932.12891,0.08739963122164364,-0.011058231607710873,-0.19758191783419526,84.6,-0.15,78.45,-996.58203,35.64453,70.80078,0.2314226302998889,-0.06475031898558803,0.03117611829667391,56.1,20.1,-7.2
-1013.18359,-10.74219,-444.82422,0.19771508645612243,-0.0005328490206338688,0.05049464418822355,-7.2,27.45,16.5,-398.92578,2.44141,934.08203,0.06435063858688132,-0.00186523337160634,-0.19758191783419526,85.05,1.05,78.0,-990.23437,36.62109,58.59375,0.23768452259019418,-0.018385996472209065,0.07234459562686575,56.1,20.1,-7.2
-1011.71875,-15.625,-437.01172,0.21956503789476464,-0.006128723668378088,0.03024341434440814,-7.2,27.45,16.5,-407.22656,6.34766,932.61719,0.08873201557261612,-0.03703833018827246,-0.20344412972579382,85.05,1.05,78.0,-993.65234,35.64453,68.35938,0.24288054230630649,-0.016653931722529894,0.030110245722480975,56.1,20.1,-7.2
-975.58594,-2.44141,-433.10547,0.16120977982140902,-0.017852972918649995,-0.009725847256738402,-7.05,28.05,18.15,-396.97266,-1.95312,921.38672,0.11231385722801229,-0.05822208945142844,-0.18146100966522447,85.35,-0.15,79.5,-996.58203,28.80859,61.52344,0.23568612059666066,0.015987739547043658,0.003463954966433146,56.1,20.1,-7.2
-962.40234,23.92578,-453.61328,0.17253452320589946,-0.031575798695380616,0.04676417744501087,-7.05,28.05,18.15,-392.57812,9.27734,913.57422,0.11671051614671123,-0.04183466950567808,-0.17679783896974602,85.35,-0.15,79.5,-989.74609,17.57813,48.82813,0.264330813346242,0.041301645952119014,0.044099583275991124,56.1,19.35,-6.45
-949.21875,41.99219,-432.61719,0.16720516033493477,-0.06861412888365308,-0.006661572689011957,-7.05,28.05,18.15,-406.73828,4.39453,922.85156,0.08886518419454328,-0.00373046674321268,-0.19225272949615577,85.35,-0.15,79.5,-982.91016,37.10938,58.10547,0.2536722621372378,0.06022049144496195,-0.001065872574192937,56.1,19.35,-6.45
-924.80469,53.71094,-433.59375,0.1512174207878911,-0.06861412888365308,-0.017986141540577164,-7.05,28.05,18.15,-406.25,-24.41406,901.36719,0.08766614299842318,-0.02611326720248876,-0.17626498994911213,85.35,-0.15,79.5,-1008.30078,47.85156,79.58984,0.30536594752158147,0.08806582339712987,0.0046631706954784495,56.1,19.35,-6.45
-912.59766,60.54688,-423.82812,0.2071745964690065,-0.10871673363965198,0.0486294108166172,-7.05,27.3,18.75,-402.83203,-4.88281,918.45703,0.06461715036366086,-0.05968764242432808,-0.21996471829347133,86.55,0.3,78.0,-996.09375,46.38672,93.75,0.3304135166828025,0.0559571756811154,0.021316927885083145,56.1,19.35,-6.45
-893.06641,57.61719,-442.87109,0.21956503789476464,-0.08127108208619076,0.02411486520895525,-7.05,27.3,18.75,-410.64453,-6.34766,922.36328,0.05409194230950906,0.011058231607710873,-0.20464317092191392,86.55,0.3,78.0,-1011.23047,48.33984,96.19141,0.2987043748325695,0.047430369620497105,0.04396624012113876,55.5,19.2,-6.3
-928.71094,53.71094,-454.10156,0.15175044434145019,-0.10671815711319327,0.03663864978956576,-7.05,27.75,17.1,-390.13672,-11.23047,927.73437,0.10072277659966757,0.017852972918649995,-0.2279586753334558,84.6,0.15,79.5,-1004.88281,52.73438,104.49219,0.3021685043319279,-0.025980098580561592,-0.03597245761407953,55.5,19.2,-6.3
-927.73437,47.85156,-460.44922,0.11657734752478405,-0.07181157207330668,-0.026246610357341126,-7.05,27.75,17.1,-418.94531,3.90625,933.10547,0.09299533133646266,0.02051756708766974,-0.23568612059666066,84.6,0.15,79.5,-1018.55469,76.66016,104.00391,0.3409387247369543,-0.0831363154577971,-0.03903673218180597,56.25,19.2,-7.95
-923.33984,42.96875,-440.42969,0.09472739608614184,-0.07007968185655272,-0.010525208054151804,-6.45,27.15,17.55,-425.78125,8.30078,951.66016,0.09752533341001395,0.009592678634811233,-0.18172734690907877,84.6,0.45,78.15,-1012.69531,67.38281,88.86719,0.3623889957768898,-0.09259565093775597,-0.02038439846574257,56.25,19.2,-7.95
-931.64062,11.71875,-438.96484,0.06994633870170035,-0.08366916447843097,0.013189976756096747,-6.45,27.15,17.55,-409.66797,22.46094,954.10156,0.07940584871458442,-0.0013323843509724712,-0.20983919063802625,84.6,0.45,78.15,-1006.34766,92.77344,86.42578,0.34773346604789346,-0.1216401986189692,0.03970292435729221,56.4,19.35,-6.45
-942.38281,-9.27734,-441.40625,0.10685150026804564,-0.11910877307187663,0.06808110533009401,-6.15,28.65,16.8,-408.69141,34.17969,956.54297,0.07167840345137952,-0.003996978519992214,-0.24301371092823365,84.6,0.45,78.15,-1002.92969,84.96094,82.51953,0.3096294378183532,-0.11377941020091194,-0.03024341434440814,56.4,19.35,-6.45
-941.89453,-14.64844,-430.66406,0.12177336724089637,-0.16600611913881466,0.03543943406052046,-6.15,28.65,16.8,-406.25,35.15625,964.84375,0.028245012350874635,-0.02145027103993551,-0.22729248315796954,84.6,0.45,78.15,-1014.64844,86.91406,97.16797,0.350264891594986,-0.06168604441786158,-0.01252378458061051,56.7,20.55,-6.75
-941.40625,-19.53125,-408.69141,0.11337972980220523,-0.1714686506317065,-0.014255674797364485,-6.15,28.65,16.8,-393.06641,42.48047,963.86719,0.09566010003840761,0.00279793732387211,-0.19758191783419526,85.65,0.15,77.4,-1003.41797,93.26172,83.00781,0.3093629260415737,-0.07261110740364529,0.043699902877284424,56.7,20.55,-6.75
-942.38281,-13.18359,-396.48437,0.05182702853919601,-0.10005658442418133,0.0015987215948268059,-6.15,28.65,16.8,-387.20703,76.66016,969.23828,0.029710565323774273,0.006261892290305255,-0.2157014025296248,85.65,0.15,77.4,-1008.78906,96.67969,80.07813,0.2723245958533012,-0.07207808385008622,-0.03317452029020742,56.7,20.55,-6.75
-924.80469,-15.13672,-385.25391,0.09392803528872844,-0.14335680690275904,-0.03250850264764638,-6.45,24.9,16.2,-392.08984,70.3125,958.00781,0.05169368538434365,-0.027845331952167932,-0.1841256038342442,85.5,0.3,78.6,-991.21094,111.32813,89.84375,0.29230931392033715,-0.06514999938429474,-0.07567538197137175,56.7,19.35,-7.5
-909.66797,-14.16016,-366.21094,0.09952373540354745,-0.19132002554389002,-0.04716385784371757,-6.45,24.9,16.2,-382.32422,83.49609,950.19531,0.03290818304635308,-0.018918845492842937,-0.22715931453604235,85.5,0.3,78.6,-989.25781,104.98047,74.21875,0.26846096048816137,-0.06821444848494637,-0.003463954966433146,56.7,19.35,-7.5
-902.34375,-7.8125,-377.92969,0.10884990226157916,-0.23541960881988114,-0.0182526533173567,-6.6,27.75,17.1,-395.99609,78.61328,935.54687,0.05342575013402282,0.033973881087620825,-0.20064619240192172,86.25,-0.3,78.3,-969.72656,129.39453,65.91797,0.28658044518359094,-0.05622351292496973,-0.02411486520895525,55.35,18.6,-6.15
-889.64844,2.92969,-377.92969,0.09046408032229529,-0.1811944978884449,-0.02224963183734891,-6.6,27.75,17.1,-384.76562,75.19531,927.24609,-0.03317452029020742,-0.017053612121236593,-0.14682076186919218,86.25,-0.3,78.3,-970.21484,117.1875,67.38281,0.2595344740288364,-0.017053612121236593,-0.021316927885083145,55.35,18.6,-6.15
-871.58203,2.92969,-351.07422,0.10711783751189999,-0.19105351376711047,-0.02851152412765417,-5.7,27.15,18.9,-367.67578,55.17578,920.89844,-0.04356655972243205,-0.045698304870817934,-0.1065849884912661,85.5,-1.5,77.25,-977.53906,123.53516,62.01172,0.2532725817385311,0.021050590641228807,0.008127125661911596,55.35,18.6,-6.15
-870.60547,11.23047,-359.86328,0.06235223659334782,-0.12990049290280797,-0.03663864978956576,-5.7,27.15,18.9,-379.88281,74.21875,889.16016,0.015055210127703087,-0.045032112695331694,-0.09605978043711431,85.5,-1.5,77.25,-977.05078,108.88672,70.3125,0.23568612059666066,0.04809656179598333,-0.04223434990438478,55.35,18.6,-6.15
-879.88281,13.18359,-357.42187,0.0458314734927451,-0.16813786428720054,-0.011990761027051442,-5.7,27.15,18.9,-373.04687,74.21875,902.83203,0.005462531492891852,0.013189976756096747,-0.14282395788212518,85.05,-1.5,79.05,-975.09766,125.97656,71.77734,0.2590014504752773,0.017053612121236593,-0.02011788668896304,56.25,19.5,-6.6
-883.78906,2.92969,-369.14062,0.06208572481656829,-0.06754825630946014,-0.09033073716744291,-5.7,27.15,18.9,-360.35156,58.59375,905.27344,0.021716608283789844,0.07567538197137175,-0.08713329397778931,85.05,-1.5,79.05,-989.25781,90.82031,74.21875,0.22969074008313498,0.03077643789796721,-0.016653931722529894,56.25,19.5,-6.6
-899.41406,-8.30078,-370.60547,0.07980552911329111,-0.14295712650405235,0.05409194230950906,-5.7,27.15,18.9,-369.62891,40.03906,929.19922,-0.02011788668896304,0.025047394628295826,-0.11724353970027028,85.95,0.15,78.9,-971.19141,106.93359,87.89063,0.27072587425847444,0.1009892883764471,-0.0063950609122324234,56.7,17.85,-6.15
-908.69141,2.92969,-401.85547,0.04916225983725108,-0.10591879631577987,0.025980098580561592,-6.0,26.25,17.4,-375.48828,31.73828,933.10547,0.05902145024884184,0.05502447172884963,-0.10711783751189999,85.95,0.15,78.9,-972.16797,103.02734,79.58984,0.26819444871138187,0.11830941227446322,0.0029311059457992773,56.7,17.85,-6.15
-914.0625,-13.18359,-403.32031,0.059421130647548545,-0.11298004940349854,-0.00839363743869113,-6.0,26.25,17.4,-329.10156,55.17578,907.22656,0.008127125661911596,0.06861412888365308,-0.013456313999951081,85.95,0.15,78.9,-982.42187,85.9375,92.77344,0.21543489075284528,0.13389747142280017,-0.02198312006056938,56.55,18.45,-5.55
-942.38281,-7.32422,-407.22656,0.0019984019935335075,-0.09965690402547463,-0.02411486520895525,-7.2,25.35,16.5,-296.875,122.07031,932.61719,-0.034773416417959425,0.04330022247857772,0.010392039432224637,85.95,0.15,78.9,-988.28125,91.30859,94.72656,0.17826339194264562,0.1370949146124538,-0.019851374912183504,56.55,18.45,-5.55
-948.24219,11.71875,-412.10937,0.0014655529728996386,-0.08686678220100978,0.01851916509413623,-7.2,25.35,16.5,-409.66797,15.13672,912.10937,-0.06368444641139509,0.04956194023595778,-0.0069280844657914915,85.5,0.0,77.25,-993.65234,72.75391,96.19141,0.1978484296109748,0.13429715182150687,0.01025887081029747,55.8,17.7,-6.6
-953.61328,7.32422,-421.875,0.020650910242522108,-0.061419532641082054,-0.035039753661813756,-6.6,26.55,17.1,-364.25781,-28.32031,905.76172,0.02424803383088242,-0.09859103145128169,-0.07087904265396612,85.5,0.0,77.25,-1006.83594,64.45313,93.26172,0.13323127924731393,0.17386673302394673,-0.037171498810199634,55.8,17.7,-6.6
-960.9375,-3.41797,-421.38672,0.059421130647548545,-0.1293674693492489,0.014655355196071187,-6.6,26.55,17.1,-337.89062,23.4375,962.89062,-0.008260294283838763,0.10591879631577987,-0.05822208945142844,85.05,-2.25,78.3,-1003.90625,58.10547,92.77344,0.14229093432856613,0.15468155028724945,0.014522186574144018,56.1,19.35,-8.55
-958.00781,-10.74219,-405.76172,0.028245012350874635,-0.15508123068595617,0.012257272803830977,-5.7,26.4,17.85,-464.35547,-1.46484,899.90234,-0.10645181986933895,-0.07167840345137952,0.012923464979317213,85.05,-2.25,78.3,-1006.83594,83.49609,92.77344,0.08939820774810235,0.10978260621384492,-0.017186780743163762,56.1,19.35,-8.55
-944.82422,-8.78906,-399.90234,0.06994633870170035,-0.16893722508461392,0.007061253087718659,-5.7,26.4,17.85,-347.16797,-64.94141,929.19922,0.02145027103993551,0.00652840406708479,-0.08406884487713767,85.8,-1.5,77.25,-984.86328,84.96094,83.98438,0.12683621833508152,0.12590351438281575,-0.04982845201273731,57.45,18.6,-6.75
-931.64062,-20.50781,-397.46094,-0.00559570011481902,-0.14055904411181214,-0.01025887081029747,-5.7,26.4,17.85,-431.15234,18.06641,934.57031,0.019318525891549636,0.09099692934292915,-0.03943641258051267,85.8,-1.5,77.25,-1003.41797,64.94141,92.28516,0.10551911591707318,0.11604432397122498,-0.025846929958634426,57.45,18.6,-6.75
-930.66406,-34.66797,-398.92578,0.010125527655445103,-0.16027725040206847,-0.04063545377663278,-5.7,26.4,17.85,-370.60547,20.01953,956.05469,-0.1382939558085739,0.03184231047216015,-0.0013323843509724712,85.8,-1.5,77.25,-1025.87891,87.89063,119.14063,0.12150685546411683,0.08047172128877735,-0.05315923835724329,57.45,18.6,-6.75
-928.71094,-5.85937,-391.60156,0.002398082392240209,-0.1228392398150893,0.0385038831611721,-6.3,26.25,18.15,-414.0625,-38.57422,972.65625,-0.07354363682298586,-0.004796339317405617,-0.03450690464117989,85.65,-0.15,78.45,-1034.66797,76.66016,119.14063,0.1159111553492978,0.06301842876883405,-0.0365053066347134,57.45,18.6,-6.75
-918.94531,-15.625,-385.74219,-0.0025314255470925756,-0.16507358971947408,0.04383307149921159,-6.3,26.25,18.15,-424.80469,13.18359,954.10156,-0.02145027103993551,0.03024341434440814,-0.02091724748637644,85.65,-0.15,78.45,-1026.36719,89.84375,111.81641,0.11671051614671123,-0.022516143614128445,-0.04676417744501087,56.7,17.85,-6.75
-905.27344,-5.85937,-366.21094,0.04996179516758968,-0.1666723113143009,0.05688970510045597,-6.0,25.8,18.15,-396.97266,15.625,946.77734,-0.0373046674321268,-0.005995380513525721,0.009059655081252166,85.5,-0.3,79.8,-1016.11328,85.44922,107.91016,0.1236386006125027,-0.03424039286440035,-0.03304135166828025,56.7,17.85,-6.75
-896.48437,0.0,-356.93359,0.0579555776746489,-0.17240118005104707,0.04050228515470561,-6.0,25.8,18.15,-398.4375,22.94922,972.65625,-0.09312867449131504,0.031442630073453444,-0.02651294760119546,85.5,-0.3,79.8,-1010.25391,119.14063,107.91016,0.17320054084846048,-0.09432771568743514,-0.03557277721537283,56.7,17.85,-6.75
-880.37109,7.32422,-346.67969,-0.01625425132382319,-0.10911641403835869,0.030643269276040042,-5.1,27.45,16.8,-371.58203,-48.82813,966.79687,-0.06088668362044818,-0.014655355196071187,-0.0035972981212855125,85.95,-1.2,78.15,-1011.71875,88.37891,108.88672,0.13722825776730616,-0.0656830229378538,-0.04036911653277844,56.7,17.85,-6.75
-885.74219,25.87891,-365.72266,0.012257272803830977,-0.1366952342137471,0.0009327039522657697,-5.1,27.45,16.8,-386.71875,17.08984,958.98437,0.0002665117767795341,-0.006794741310939124,-0.012390441425758144,85.95,-1.2,78.15,-1010.74219,90.82031,120.11719,0.13842729896342626,-0.06581619155978097,-0.052626389336609423,56.7,17.85,-6.75
-884.27734,25.39063,-362.79297,-0.005196019716112318,-0.0652833425391471,-0.015055210127703087,-5.1,27.45,16.8,-393.06641,-25.87891,985.83984,-0.06901380928235978,-0.007194421709645826,-0.06301842876883405,85.95,-1.2,78.15,-1023.4375,99.60938,118.16406,0.1276355791324949,-0.0847350370526239,-0.008926486459324997,57.0,18.0,-8.4
-909.17969,33.20313,-375.0,0.05235987755982989,-0.14095872451051883,0.09232931369390163,-5.1,27.45,16.8,-394.53125,-9.76562,962.40234,0.0025314255470925756,-0.035173096816666125,-0.03330786344505979,85.95,-1.2,78.15,-1020.01953,81.05469,120.11719,0.11337972980220523,-0.05542415212755633,-0.019851374912183504,57.0,18.0,-8.4
-908.69141,20.01953,-376.95312,0.024781057384441488,-0.08207044288360416,0.08326948407972427,-6.3,26.55,16.65,-359.86328,-36.13281,960.9375,-0.07007968185655272,-0.007327764864498192,0.03250850264764638,85.95,-1.2,77.7,-1039.0625,64.94141,124.51172,0.09179629014034256,-0.05515781488370199,-0.04609798526952463,56.55,18.45,-5.85
-928.71094,32.22656,-374.51172,0.006794741310939124,-0.094860564708069,0.04969528339081014,-6.3,26.55,16.65,-389.16016,-32.22656,947.26562,-0.04356655972243205,-0.002131745148385874,0.013323145378023914,85.95,-1.2,77.7,-1020.01953,81.05469,103.02734,0.057689065897869374,-0.029977077100553806,-0.05249304618175705,56.55,18.45,-5.85
