IMU1_AccX,IMU1_AccY,IMU1_AccZ,IMU1_GyrX,IMU1_GyrY,IMU1_GyrZ,IMU1_MagX,IMU1_MagY,IMU1_MagZ,IMU2_AccX,IMU2_AccY,IMU2_AccZ,IMU2_GyrX,IMU2_GyrY,IMU2_GyrZ,IMU2_MagX,IMU2_MagY,IMU2_MagZ,IMU3_AccX,IMU3_AccY,IMU3_AccZ,IMU3_GyrX,IMU3_GyrY,IMU3_GyrZ,IMU3_MagX,IMU3_MagY,IMU3_MagZ
-847.65625,97.65625,-373.04687,-0.0247810573844414,0.0286446927495813,-0.031309286918601,-7.05,29.85,23.25,-450.68359,-88.86719,915.52734,-0.1492190187943576,-0.0130566336012443,-0.1381607871866467,84.9,3.45,74.25,-980.46875,-2.44141,239.25781,-0.0066615726890119,0.0728774446474996,-0.1577458248549758,55.5,22.2,2.4
-858.88672,81.54297,-362.79297,-0.094860564708069,0.0835359958565038,-0.0511608363637097,-7.05,29.25,24.0,-439.45312,-84.47266,924.80469,-0.1101822866125516,-0.0706125308771865,-0.114312433754471,84.15,1.95,74.85,-988.28125,16.60156,241.69922,-0.0265129476011954,0.0539585991546566,-0.2131699769825322,55.5,22.2,2.4
-875.97656,60.05859,-375.97656,-0.0937948666668012,0.0848683802074762,-0.0831363154577971,-6.45,28.65,23.55,-448.73047,-97.16797,891.11328,-0.1237717692344298,-0.0398360929792193,-0.1328315988486072,84.15,1.95,74.85,-956.05469,15.625,231.93359,0.0516936853843436,0.0724777642487929,-0.2069080846922269,56.25,20.7,1.05
-892.08984,54.19922,-372.55859,-0.0074609334864253,0.06634921511334,-0.0178529729186499,-5.1,31.2,23.85,-424.31641,-91.79688,905.27344,-0.0866002704242302,-0.036238969390859,-0.1378942754098671,84.6,2.7,74.55,-944.82422,24.90234,222.65625,0.050761155965003,0.0791393369378048,-0.198514621786461,57.45,21.6,1.2
-895.01953,42.48047,-395.01953,-0.0382373713843925,0.1273690673557154,-0.0827366350590903,-5.1,31.2,23.85,-451.17187,-106.93359,892.57812,-0.0852680606061829,-0.0394364125805126,-0.0985910314512816,85.65,3.9,73.2,-938.47656,41.01563,197.26562,0.0771409349442713,0.123238920213796,-0.1099157748357721,57.45,21.6,1.2
-937.5,14.64844,-404.29687,-0.0155880591483369,0.1305666850782942,-0.1476202971995308,-7.2,30.45,23.55,-456.05469,-128.90625,891.60156,-0.0783399761403914,0.0029311059457992,-0.1151117945518844,85.65,3.9,73.2,-944.82422,57.12891,201.66016,0.0534257501340228,0.1436233186795386,-0.1060521394706322,57.3,20.7,0.3
-924.31641,12.20703,-403.32031,0.039569755735365,0.0992572236267679,-0.1157779867273706,-6.0,28.8,23.25,-440.42969,-129.88281,888.18359,-0.0627519169920545,0.0119907610270514,-0.1155114749505911,84.6,3.15,74.25,-939.94141,60.54688,177.73437,0.0101255276554451,0.1831928998819784,-0.1239051123892822,57.3,20.7,0.3
-937.5,5.37109,-417.96875,0.0319754790940873,0.0403691165327784,-0.0891316959713228,-7.95,28.65,23.85,-435.54687,-123.53516,860.35156,-0.0330413516682802,-0.0007993607974134,-0.1366952342137471,85.05,3.3,74.4,-961.42578,74.21875,177.24609,0.0230489926347623,0.2017120649761146,-0.1592113778278755,55.8,20.25,0.3
-954.58984,19.53125,-431.64062,0.0563568560798221,0.0899310567687362,-0.0806048899107045,-6.3,28.8,23.25,-488.76953,-76.17188,862.30469,0.0109248884528585,0.0695466583029936,-0.1101822866125516,83.25,2.55,74.4,-980.95703,60.54688,179.6875,-0.0475635382424242,0.2328881832727885,-0.1212403436873373,56.55,19.5,0.3
-963.37891,27.83203,-450.68359,0.1231057515918688,0.0205175670876697,-0.0604870032217414,-6.3,28.8,23.25,-445.3125,-75.19531,872.55859,0.0646171503636608,0.2358192892185878,-0.1368284028356742,83.25,2.55,74.4,-1005.37109,62.01172,176.26953,-0.0542251109314362,0.1794624331387657,-0.123238920213796,56.4,20.55,0.45
-952.63672,7.8125,-439.45312,0.0584886012282079,0.063018428768834,-0.086467101802303,-5.7,29.7,22.8,-533.69141,-59.57031,857.42187,0.0394364125805126,0.3066983318725539,-0.1259035143828157,83.85,2.7,74.55,-1039.55078,54.6875,178.22266,-0.0560903443030425,0.1688040564626867,-0.0726111074036452,56.1,20.1,0.45
-961.42578,13.18359,-448.73047,0.0927289940926083,0.0169204434993094,-0.0783399761403914,-6.9,29.4,23.1,-495.11719,-47.36328,916.01562,0.1425574461053456,0.2885788471771244,-0.1099157748357721,85.35,2.4,75.3,-1054.6875,66.89453,176.75781,-0.1039203943222463,0.1429571265040523,-0.086467101802303,56.55,20.25,2.1
-964.84375,25.87891,-435.54687,0.2033109611038666,0.0113245688515652,-0.0157212277702641,-8.1,29.55,24.3,-516.60156,-36.62109,931.64062,0.0426340303030914,0.2987043748325695,-0.0722112524720134,85.5,3.0,74.1,-1044.92188,71.28906,185.05859,-0.1091164140383586,0.1637412053685016,-0.077007591789419,54.9,19.8,0.45
-951.17187,28.32031,-438.47656,0.1111148160318922,0.0472970264656447,-0.0763415741468579,-7.05,29.25,23.7,-519.04297,-29.78516,954.10156,-0.0025314255470925,0.1696034172601001,-0.0297105653237742,84.15,2.4,74.25,-1060.54688,75.68359,193.35937,-0.1747994369762124,0.1181760691196108,-0.0790061683158777,54.9,19.8,0.45
-927.24609,30.76172,-443.35937,0.1040535629441735,0.0347734164179594,-0.0230489926347623,-7.05,29.25,23.7,-510.74219,-40.03906,926.75781,-0.0494287716140306,0.0899310567687362,-0.0074609334864253,84.75,2.55,74.7,-1024.90234,57.12891,176.26953,-0.1638743739904287,0.1216401986189692,-0.0783399761403914,57.0,19.5,-1.35
-911.13281,15.625,-433.59375,0.1340306400447273,0.0077274452632048,0.0093261668580317,-5.55,29.55,23.7,-517.57812,-52.73438,915.03906,-0.1341638086666545,0.1092495826602858,0.0314426300734534,85.05,2.55,74.1,-1015.625,51.75781,168.45703,-0.218632508475424,0.1521501247401568,-0.1113813278086717,56.1,19.8,0.75
-911.62109,39.0625,-424.80469,0.0991240550048407,0.0195850376683291,-0.0588882816269146,-6.3,30.6,23.7,-503.41797,-79.10156,903.32031,-0.0227824808579827,0.0195850376683291,0.0355727772153728,85.05,2.55,74.1,-1024.41406,56.64063,180.17578,-0.1875895588006773,0.0811377389313384,-0.1125803690047918,57.0,20.25,-0.3
-903.32031,27.83203,-415.03906,0.0840688448771376,0.0715452348294523,-0.0398360929792193,-6.6,29.85,23.7,-504.88281,-72.75391,871.58203,-0.045165455850184,0.125503833984109,0.0409019655534123,85.05,2.55,74.1,-987.30469,54.19922,179.6875,-0.1855911568071438,0.1176432200989769,-0.0476967068643514,55.5,19.2,0.0
-892.57812,22.94922,-418.45703,0.1449555284975858,0.0840688448771376,-0.0023980823922402,-6.9,27.9,22.8,-478.51562,-79.58984,888.18359,0.0025314255470925,0.1652067583414012,0.0851347174513306,84.9,1.95,73.2,-997.55859,61.03516,198.24219,-0.2042434905232072,0.0722112524720134,-0.0411684773301918,56.4,19.8,-0.15
-903.80859,15.625,-412.10937,0.1380276185647195,0.1227058966602369,-0.0123904414257581,-6.9,27.9,22.8,-486.81641,-66.40625,897.94922,-0.0077274452632048,0.0911300979648563,0.0867336135790826,84.75,3.0,73.35,-994.62891,53.71094,187.01172,-0.2378176912121213,0.055823832526263,-0.0478300500192038,56.55,19.95,-1.05
-903.80859,43.94531,-410.64453,0.0888651841945432,0.1512174207878911,-0.1292343007273217,-6.6,27.75,22.65,-488.28125,-55.17578,913.08594,-0.0866002704242302,0.0881991665519822,0.104320074720953,84.6,1.95,73.5,-977.53906,52.24609,173.33984,-0.2965728042171088,0.118842261295097,-0.1092495826602858,56.55,19.95,-1.05
-907.22656,31.73828,-397.94922,0.114312433754471,0.1249709849634751,-0.0079939570399844,-5.7,28.65,23.1,-475.09766,-45.89844,908.20312,-0.1247044731866956,0.061419532641082,0.1484196579969441,84.6,1.95,73.5,-979.49219,45.89844,192.87109,-0.3125605437641525,0.0387702204050264,-0.1318988948963414,54.6,20.55,0.75
-904.78516,25.87891,-416.50391,0.0893982077481023,0.1429571265040523,-0.0090596550812521,-6.3,28.8,23.7,-474.12109,-43.45703,887.69531,-0.1277687477544221,0.1633415249697949,0.140026020558253,84.6,2.7,73.5,-977.05078,48.33984,198.73047,-0.2684609604881613,0.0746095093971788,-0.0570230482553083,54.6,20.55,0.75
-892.57812,28.80859,-411.13281,0.0249142260063686,0.1646737347878422,-0.0766079113907123,-6.9,30.15,22.8,-469.23828,-43.94531,892.08984,-0.1187090926731699,0.1045865864977326,0.1473537854227512,85.8,3.75,73.35,-981.44531,43.45703,186.03516,-0.2621990681978561,0.041301645952119,-0.1024548413493467,56.25,19.2,-1.05
-900.39062,17.08984,-410.64453,-0.0159877395470436,0.1838590920574646,-0.1227058966602369,-6.9,30.15,22.8,-460.44922,-48.82813,922.85156,-0.0794058487145844,0.0716784034513795,0.2069080846922269,85.8,3.75,73.35,-978.51562,21.97266,190.91797,-0.2812510823126262,0.0812710820861907,-0.0895313763700295,56.7,19.8,-0.45
-890.13672,21.97266,-403.32031,-0.0023980823922402,0.1353630243956998,-0.0810045703094112,-7.05,29.25,22.35,-472.16797,-69.82422,915.03906,-0.1799954566923248,0.0599539796681824,0.2115712553877054,85.5,2.55,73.65,-976.07422,14.64844,174.31641,-0.2386172265424599,0.0349065850398865,-0.0884655037958365,54.9,19.05,0.15
-888.18359,0.48828,-404.78516,-0.0170536121212365,0.1145789455312505,-0.0655498543159266,-7.35,29.25,22.95,-462.89062,-90.82031,899.90234,-0.1393598283827668,0.043566559722432,0.198514621786461,85.05,3.0,74.4,-984.86328,1.46484,172.85156,-0.29337518649453,0.1004564393558132,-0.1057856276938527,56.1,21.15,0.75
-883.30078,-1.46484,-412.10937,0.0054625314928918,0.0923293136939016,-0.0219831200605693,-8.1,29.25,22.65,-467.28516,-91.79688,886.71875,-0.08420218803199,0.0399694361340717,0.1486859952407985,84.45,2.55,73.35,-985.83984,-15.625,167.96875,-0.2119709357864121,0.0534257501340228,-0.0551578148837019,56.1,21.15,0.75
-898.4375,0.48828,-425.78125,-0.0381042027624654,0.1625421641723815,-0.0724777642487929,-6.3,28.5,24.75,-469.23828,-106.44531,885.25391,-0.0847350370526239,0.0714118916745999,0.2010458728006284,84.45,2.55,73.35,-972.16797,-20.99609,176.26953,-0.2045100022999867,0.06634921511334,-0.0816707624848974,55.5,19.2,0.6
-904.29687,13.67187,-424.80469,-0.0262466103573411,0.1350965126189202,-0.0594211306475485,-6.3,28.5,24.75,-474.60937,-107.42188,881.34766,-0.0456983048708179,0.067015232755901,0.2123706161851188,84.15,3.9,74.25,-987.79297,-29.29688,196.28906,-0.1737335644020195,0.023981696587028,0.0087933178373978,56.25,19.95,0.3
-926.26953,26.85547,-433.10547,-0.0113245688515652,0.1263031947815224,0.0067947413109391,-6.6,29.25,22.65,-480.95703,-129.88281,874.02344,-0.0456983048708179,0.0543582795533633,0.1524164619840112,84.6,3.15,73.8,-987.30469,-40.03906,197.26562,-0.1409587245105188,0.0668820641339739,-0.0466310088230837,56.25,19.95,0.3
-924.80469,30.76172,-427.73437,-0.0097258472567384,0.0784731447623186,0.0487625794385443,-8.1,28.05,22.65,-471.67969,-120.60547,895.50781,0.0077274452632048,0.1116478395854512,0.1875895588006773,84.6,4.2,73.5,-994.62891,-42.96875,177.73437,-0.0959264372822619,0.1083170532409452,-0.0085268060606182,56.4,19.8,0.15
-928.71094,31.25,-438.96484,-0.0889985273493956,0.1562802718820762,0.0265129476011954,-6.15,29.4,22.5,-479.00391,-123.53516,875.48828,0.0467641774450108,0.1484196579969441,0.1903874961245494,85.05,3.75,73.65,-1005.37109,-62.98828,177.73437,-0.0555574952824086,0.1171101965454179,0.0158545709251164,56.4,19.8,0.15
-926.26953,31.73828,-433.59375,0.0171867807431637,0.0496952833908101,0.1173767083221974,-6.6,28.05,22.95,-466.79687,-125.0,890.13672,0.0712787230526728,0.1069846688899728,0.1638743739904287,85.05,3.75,72.6,-1006.34766,-43.94531,176.26953,-0.0274456515534612,0.1184425808963904,0.0210505906412288,55.5,20.7,0.6
-935.54687,32.22656,-433.10547,-0.0407687969314851,0.0274456515534612,0.1441561677001724,-6.6,28.05,22.95,-478.02734,-107.91016,894.53125,0.0652833425391471,0.0909969293429291,0.1642740543891354,84.75,4.5,74.4,-1001.46484,-58.59375,202.14844,-0.0299770771005538,0.0691469779042869,-0.0095926786348112,56.7,19.8,0.45
-916.99219,32.22656,-432.12891,-0.0779402957416847,0.0788728251610253,0.1336309596460206,-6.6,28.05,22.95,-476.07422,-117.67578,899.41406,0.0872664625997164,0.0616860444178615,0.1251041535854023,84.75,4.5,74.4,-1001.95312,-42.96875,191.40625,-0.0251807377831481,0.086467101802303,0.0582220894514284,56.55,17.7,-0.3
-924.31641,26.85547,-427.73437,-0.0702128504784798,0.0345069046411798,0.1849249646316576,-8.55,28.65,22.8,-477.53906,-99.60938,882.8125,0.0812710820861907,0.0843353566539172,0.105385947295146,84.6,2.7,73.8,-991.21094,-31.25,182.12891,0.0001331686219271,0.1453552088962925,0.0103920394322246,56.55,19.5,1.65
-920.89844,41.99219,-443.84766,-0.0603538345998143,0.0211837592631559,0.1716018192536337,-6.9,28.65,22.8,-480.46875,-94.23828,908.69141,0.1055191159170731,0.0442327518979182,0.1414915735311527,84.9,4.2,72.75,-985.83984,-14.16016,174.80469,0.0303767574992605,0.1537488463349836,0.0411684773301918,55.8,19.5,-0.6
-926.26953,40.03906,-421.875,-0.1023216727274195,0.0568897051004559,0.1610766111994818,-7.2,28.65,22.8,-500.97656,-70.80078,904.78516,0.1071178375118999,0.0291777163031404,0.1244379614099161,84.45,4.05,73.65,-1003.41797,18.55469,189.94141,0.0049295079393327,0.1485528266188713,0.0279785005740951,58.05,20.25,-0.6
-948.24219,60.05859,-429.6875,-0.0433002224785777,-0.0130566336012443,0.2141026809347979,-7.2,28.65,22.8,-490.23437,-86.91406,899.41406,0.0615528757959344,0.0519601971611231,0.1189754299170242,85.8,3.0,73.65,-1024.41406,25.39063,167.48047,-0.0317089673173077,0.1117810082073784,0.0075941021083525,58.05,20.25,-0.6
-945.3125,64.94141,-433.59375,-0.0679479367081668,-0.0003996803987067,0.1016554805519333,-7.5,28.65,22.8,-511.71875,-52.73438,916.50391,0.0430337107017981,0.0684807857288007,0.0739433172216925,84.45,1.8,74.4,-1018.55469,37.59766,190.91797,-0.1117810082073784,0.1041869060990259,-0.0618192130397887,55.8,19.95,-0.3
-953.61328,92.28516,-415.03906,-0.0960597804371143,0.0285115241276541,0.1285681085518354,-5.7,29.7,23.1,-502.44141,-55.17578,918.94531,0.0564900247017492,0.0999234158022541,0.1080505414641657,85.8,3.3,73.35,-1013.18359,47.36328,177.24609,-0.1085833904847996,0.0879326547752027,-0.0443659205198454,55.8,19.95,-0.3
-942.38281,96.19141,-417.48047,-0.078606487917171,-0.0319754790940873,0.1501515482136981,-7.5,27.45,22.8,-496.58203,-37.59766,913.57422,0.0065284040670847,0.0339738810876208,0.1316323831195619,85.8,3.3,73.35,-1006.83594,33.20313,211.91406,-0.1229724084370164,0.0559571756811154,-0.0519601971611231,55.8,19.5,0.0
-933.10547,93.75,-411.62109,-0.0880658233971298,-0.0422343499043847,0.0940612039106556,-7.5,28.2,23.55,-474.60937,-41.99219,927.24609,0.0214502710399355,0.0317089673173077,0.1418912539298594,84.6,3.9,73.2,-1000.97656,38.08594,209.96094,-0.1708024584562202,0.050761155965003,-0.0899310567687362,57.0,20.25,-0.6
-943.35937,81.54297,-397.46094,-0.1211071750654101,-0.0137228257767306,0.0460979852695246,-7.5,28.2,23.55,-476.5625,-51.26953,897.94922,-0.0539585991546566,0.0278453319521679,0.1320322380511938,85.05,3.0,72.9,-1006.34766,31.25,200.68359,-0.1562802718820762,0.0054625314928918,-0.0447657754514773,56.1,20.1,0.45
-916.01562,87.89063,-398.92578,-0.1329647674705344,-0.0423675185263119,0.0287778613715085,-7.65,29.85,21.3,-450.68359,-59.57031,903.80859,-0.0218499514386422,0.0724777642487929,0.1540153581117632,85.05,3.0,74.1,-1015.13672,-7.32422,208.00781,-0.1738667330239467,0.0071944217096458,-0.0409019655534123,56.25,19.95,0.3
-896.48437,110.83984,-398.92578,-0.105385947295146,0.0075941021083525,0.0369049870334201,-8.1,28.8,22.65,-468.26172,-37.59766,893.55469,-0.0270459711547545,0.023981696587028,0.0951270764848485,85.05,3.0,74.1,-980.95703,-22.46094,217.28516,-0.2049096826986934,-0.0119907610270514,-0.0355727772153728,55.5,21.45,-0.3
-907.22656,107.42188,-374.51172,-0.1618759719968953,0.0202512298438154,0.0197182062902563,-7.65,29.55,22.95,-457.51953,-59.57031,916.50391,0.0146553551960711,-0.007860613885132,0.19132002554389,84.6,3.45,72.45,-976.5625,-13.18359,220.21484,-0.2086401494419061,0.0123904414257581,0.0375711792089063,57.45,20.55,-0.15
-907.71484,103.02734,-377.44141,-0.1508177403891844,0.0656830229378538,0.0190520141147701,-5.4,28.95,23.55,-434.08203,-63.47656,905.76172,-0.0305099261211876,-0.0133231453780239,0.1661392877607418,85.8,4.8,73.35,-984.375,-8.78906,234.86328,-0.2224961438405639,-0.0572893854991626,-0.0066615726890119,57.45,20.55,-0.15
-908.69141,111.81641,-389.64844,-0.1306998537002213,-0.0245145456076619,0.0578224090527217,-5.4,28.95,23.55,-430.17578,-62.98828,898.92578,-0.0644839817417337,-0.0079939570399844,0.1396263401595463,85.8,4.8,73.35,-958.49609,10.74219,198.73047,-0.1934517706922759,0.0925956509377559,-0.0010658725741929,56.1,20.1,0.45
-922.85156,85.44922,-362.30469,-0.1402925323350325,0.0011990411961201,0.0131899767560967,-7.65,31.05,22.65,-440.91797,-52.73438,886.23047,-0.0831363154577971,-0.0285115241276541,0.1272358987337882,85.5,3.75,73.65,-954.10156,13.67187,183.59375,-0.2216967830431505,0.0928621627145355,0.0123904414257581,56.1,20.1,0.45
-915.52734,70.3125,-362.30469,-0.1422909343285661,-0.0266462907560478,0.0230489926347623,-6.9,30.15,24.15,-439.94141,-82.51953,899.41406,-0.0378376909856858,0.0041301471419193,0.1564134405040034,84.6,3.9,73.8,-938.47656,23.4375,195.80078,-0.2639311329475353,0.0447657754514773,0.007860613885132,56.1,20.1,0.45
-918.94531,71.77734,-364.25781,-0.0723445956268657,-0.0812710820861907,0.0106585512090041,-8.7,29.85,21.9,-431.15234,-59.08203,892.08984,-0.0173201238980161,0.043566559722432,0.1674716721117143,85.05,3.75,72.9,-925.78125,17.08984,189.45312,-0.2422143501308202,0.0554241521275563,0.0562235129249697,57.15,20.55,0.75
-912.59766,72.75391,-360.83984,-0.1309663654770009,-0.0476967068643514,-0.0436999028772844,-7.05,29.55,23.25,-422.85156,-43.45703,896.48437,0.041834669505678,0.0520933657830503,0.1568131209027101,85.05,3.75,72.9,-960.44922,10.74219,214.84375,-0.2884456785551972,-0.0017320647496791,0.0896645449919567,57.3,21.75,-1.05
-911.13281,62.98828,-369.14062,-0.1031210335248329,-0.007860613885132,-0.0608866836204481,-7.05,29.55,23.25,-443.35937,-45.41016,889.64844,0.0262466103573411,0.0207840788644492,0.1095160944370653,85.05,3.75,72.9,-949.21875,-9.76562,229.49219,-0.3013691435345145,-0.0042633157638465,-0.0041301471419193,56.7,20.55,-0.75
-901.36719,65.42969,-375.48828,-0.0305099261211876,-0.040235773377926,-0.0301102457224809,-7.35,29.25,22.65,-436.03516,-39.0625,892.08984,0.0250473946282958,-0.0243813769857347,0.1481531462201646,85.65,4.95,73.2,-986.32812,-26.36719,236.81641,-0.2811179136906991,0.0933951862680945,-0.0001331686219271,57.0,21.45,-0.3
-895.01953,66.40625,-368.16406,-0.0592879620256213,-0.0600873228230347,-0.1249709849634751,-8.4,29.85,23.7,-437.01172,-28.80859,910.15625,0.0624854052152749,-0.0318423104721601,0.1384272989634262,84.6,3.9,74.25,-984.86328,-12.20703,240.72266,-0.2594013054069092,0.0739433172216925,0.0431668793237253,57.15,20.85,-0.45
-887.69531,68.35938,-348.63281,-0.0571562168772355,-0.0407687969314851,-0.132165406673121,-7.2,29.7,22.8,-443.84766,-29.78516,921.38672,-0.007860613885132,-0.0634181091675407,0.1630750131930153,87.45,5.7,74.25,-974.60937,-37.59766,225.09766,-0.2206309104689576,0.1220398790176759,-0.0049295079393327,54.9,20.85,1.2
-877.44141,71.28906,-351.07422,-0.0153215473715574,-0.043566559722432,-0.0684807857288007,-8.1,30.6,24.0,-452.63672,-27.83203,900.39062,-0.0023980823922402,0.0203843984657425,0.1881225823542364,86.85,3.3,72.6,-987.79297,-34.17969,224.12109,-0.1548147189091766,0.1380276185647195,0.0393032439585855,54.9,20.85,1.2
-875.48828,80.07813,-364.25781,-0.0426340303030914,0.0486294108166172,-0.0710122112758932,-8.1,30.6,24.0,-460.44922,-34.17969,890.13672,-0.0267794593779749,0.0086599746825454,0.1609432680446295,85.35,4.95,73.8,-975.58594,-48.33984,220.21484,-0.093128674491315,0.0535589187559499,-0.0058622118915985,55.8,21.75,-0.6
-879.39453,73.73047,-354.49219,-0.0634181091675407,0.0227824808579827,-0.0723445956268657,-7.65,29.85,22.65,-463.86719,-44.92188,906.25,-0.0338407124656936,-0.0003996803987067,0.181327666510372,84.0,4.8,74.4,-970.21484,-53.71094,214.35547,-0.0735436368229858,0.0615528757959344,0.0129234649793172,57.3,20.25,-0.6
-890.625,95.21484,-365.72266,0.0298437339457014,0.0459648166475974,0.0069280844657914,-7.95,29.7,22.5,-462.89062,-41.50391,920.41016,-0.0355727772153728,-0.0309096065198943,0.1244379614099161,84.0,4.8,74.4,-986.81641,-34.66797,223.63281,-0.0478300500192038,0.0015987215948268,0.0662158719584876,57.3,21.0,1.05
-900.39062,83.98438,-383.78906,-0.0162542513238231,0.0130566336012443,-0.0129234649793172,-6.45,30.9,21.75,-455.56641,-50.29297,892.08984,-0.007860613885132,0.0510274932088574,0.1662726309155942,85.05,4.8,73.65,-1001.46484,-41.99219,220.70312,-0.0151883787496302,0.0242480338308824,0.0159877395470436,57.9,20.85,0.15
-898.4375,88.86719,-378.90625,-0.0511608363637097,0.0949939078629213,0.0258469299586344,-8.4,29.55,22.95,-475.09766,-62.5,900.87891,0.0353062654385932,0.0018652333716063,0.1432236382808319,85.05,5.55,74.4,-996.58203,-46.38672,222.65625,-0.0125237845806105,0.1113813278086717,0.0488959225933967,56.1,20.1,0.15
-893.55469,99.60938,-387.20703,0.0038636353651398,0.0675482563094601,0.0879326547752027,-8.4,29.55,22.95,-474.60937,-72.75391,905.76172,0.0694134896810664,0.0458314734927451,0.113246561180278,85.35,3.15,73.5,-995.60547,-45.41016,222.65625,0.0247810573844414,0.1621424837736748,0.0403691165327784,56.4,19.35,-1.2
-886.71875,90.33203,-389.16016,-0.0470306892217904,0.0310429496747467,0.0691469779042869,-7.65,30.6,23.25,-481.93359,-42.48047,926.75781,0.1133797298022052,0.0302434143444081,0.1036538825454668,85.35,3.15,73.5,-1009.27734,-35.64453,202.14844,0.116577347524784,0.1163108357480045,0.0655498543159266,56.4,19.35,-1.2
-898.92578,94.23828,-400.87891,-0.0992572236267679,0.0916631215184153,0.0391699008037331,-7.35,29.55,22.35,-500.97656,-24.41406,916.99219,0.0939280352887284,0.0879326547752027,0.0579555776746489,85.5,4.8,73.65,-1012.20703,-25.39063,210.44922,0.1629418445710882,0.1060521394706322,0.0628850856139816,57.15,20.85,1.5
-891.60156,89.35547,-398.4375,-0.049162259837251,0.0791393369378048,0.1019218177957876,-7.5,30.15,23.1,-498.53516,-21.97266,906.73828,0.1301670046795875,0.0555574952824086,0.0901975685455157,84.45,4.8,73.35,-1018.55469,-20.50781,205.07812,0.1680045211323481,0.0887320155726161,0.0567565364785288,57.15,20.85,1.5
-892.57812,99.12109,-424.80469,-0.0375711792089063,0.070346019100407,0.1161776671260773,-6.45,29.7,23.55,-501.95312,-21.48438,906.25,0.0646171503636608,0.0479632186411309,0.0744763407752516,84.45,4.8,73.35,-1011.71875,-32.22656,198.24219,0.1917197059425967,0.1036538825454668,0.0976585020319411,55.65,21.15,-0.75
-894.04297,110.35156,-416.50391,-0.0687472975055802,0.1048529237415869,0.0275788201753884,-6.45,29.7,23.55,-503.90625,-54.6875,889.64844,0.085934078248744,0.10205516095064,0.0358392889921523,84.75,6.0,74.1,-1010.25391,-20.50781,208.98437,0.1554809110846628,0.0932618431132422,0.0243813769857347,55.8,21.0,-0.3
-894.04297,113.76953,-429.6875,-0.0389035635598788,0.0659495347146333,0.06634921511334,-7.65,29.25,21.6,-501.46484,-50.78125,894.53125,0.0852680606061829,0.1215068554641168,0.0165205885676775,84.45,4.5,74.1,-1012.20703,-29.78516,193.84766,0.2019785767528942,0.0967257980796753,0.077540615342978,55.2,21.45,1.05
-917.96875,118.16406,-446.28906,-0.0511608363637097,0.1305666850782942,0.1063184767144865,-8.1,28.05,22.65,-503.41797,-43.94531,899.90234,0.1124472003828646,0.1268362183350815,0.0314426300734534,84.45,5.25,73.35,-1017.08984,-15.625,201.66016,0.1660061191388146,0.0783399761403914,0.0355727772153728,56.25,21.45,0.0
-911.62109,138.18359,-437.5,-0.1105819670112583,0.1386936362072806,0.0102588708102974,-9.3,30.15,21.45,-514.64844,-36.62109,898.92578,0.1100489434576992,0.0771409349442713,0.0283781809728018,84.45,5.25,73.35,-1017.57812,9.76562,197.75391,0.2026447689283804,0.0119907610270514,0.039569755735365,57.0,21.0,-0.3
-899.90234,149.90234,-424.80469,-0.1052526041402936,0.0744763407752516,0.0831363154577971,-9.3,30.15,21.45,-503.41797,-43.45703,875.48828,0.1004564393558132,0.1011224569983742,0.0516936853843436,86.7,4.95,74.25,-1016.11328,32.71484,224.60937,0.1736002212471671,0.0047963393174056,0.0838025076332833,56.4,21.6,0.45
-896.48437,132.32422,-436.03516,-0.0823369546603836,0.0655498543159266,0.10205516095064,-9.3,30.15,21.45,-482.91016,-32.22656,892.57812,0.043566559722432,0.0963261176809686,0.0155880591483369,86.4,5.4,72.75,-996.58203,24.90234,204.58984,0.176797838969746,-0.0504946441882235,0.0559571756811154,56.4,21.6,0.45
-901.85547,127.44141,-424.31641,-0.1497518678149914,0.1273690673557154,0.0480965617959833,-7.2,30.9,22.05,-463.37891,-25.87891,906.25,0.0920628019171221,0.0434333911005048,0.0631515973907612,85.8,6.0,74.1,-996.09375,31.73828,218.75,0.2151683789760657,-0.0543582795533633,0.1385604675853534,56.4,21.6,0.45
-884.76562,113.28125,-425.78125,-0.1189754299170242,0.046897346066938,0.0811377389313384,-7.2,30.9,23.1,-459.47266,-26.36719,911.62109,0.1160443239712249,0.0638177895662474,-0.0007993607974134,85.05,5.25,72.9,-991.69922,12.69531,216.79687,0.1817273469090787,-0.0830031468358699,0.0939280352887284,57.15,19.35,0.75
-905.76172,117.1875,-424.31641,-0.0881991665519822,0.0706125308771865,0.0151883787496302,-7.95,31.2,22.8,-471.67969,-20.01953,910.64453,0.0872664625997164,0.0351730968166661,-0.0103920394322246,85.35,6.15,72.0,-1000.0,27.83203,211.42578,0.1817273469090787,-0.032908183046353,0.0940612039106556,57.15,19.35,0.75
-908.20312,120.11719,-414.55078,-0.1557472483285172,0.0651499993842947,0.0158545709251164,-7.2,30.15,22.05,-475.09766,-29.78516,891.11328,0.1416247421530798,0.0090596550812521,-0.018385996472209,84.9,5.4,73.2,-987.30469,10.74219,213.86719,0.1835925802806851,-0.0067947413109391,0.0672817445326806,54.9,21.9,-0.15
-907.71484,124.02344,-422.36328,-0.0806048899107045,0.0130566336012443,0.0117244237831971,-7.2,30.15,22.05,-488.28125,-28.80859,888.67187,0.1334976164911682,-0.0295773967018471,-0.0358392889921523,84.9,5.4,73.2,-987.79297,19.53125,206.05469,0.2463444972727396,-0.0496952833908101,0.1177763887209041,57.0,20.25,-0.3
-899.90234,131.34766,-420.41016,-0.0921959705390492,-0.0367718184114929,-0.0141225061754373,-9.3,30.15,23.1,-476.07422,-41.99219,894.04297,0.1303001733015146,-0.0660827033365605,-0.0010658725741929,85.35,4.65,73.2,-980.95703,13.18359,208.98437,0.1733338840033128,0.0123904414257581,0.0479632186411309,55.5,21.75,-0.6
-904.29687,129.39453,-411.62109,-0.1121806886060851,0.0179861415405771,-0.0070612530877186,-8.7,29.55,21.9,-471.67969,-51.26953,900.39062,0.1228392398150893,-0.0642174699649541,-0.0475635382424242,85.8,4.8,72.9,-968.75,19.53125,183.10547,0.2416815011101863,0.0062618922903052,0.070346019100407,55.8,20.25,-0.3
-901.85547,131.34766,-420.41016,-0.1469541050240445,0.0077274452632048,-0.0005328490206338,-7.2,30.9,22.8,-478.51562,-24.41406,905.27344,0.1434899755246862,-0.0586217698501351,-0.0620857248165682,85.95,6.6,73.2,-977.53906,-5.37109,179.6875,0.225294081164436,0.0431668793237253,0.0869999508229369,56.4,21.6,-0.15
-903.80859,136.23047,-416.50391,-0.1131133925583509,-0.0426340303030914,0.0013323843509724,-8.25,31.65,21.75,-489.25781,0.48828,881.83594,0.0957932686603347,0.0027979373238721,-0.0619525561946411,86.55,4.8,72.9,-974.12109,8.78906,152.83203,0.1933186020703487,0.0406354537766327,0.0282450123508746,56.1,20.1,-0.45
-909.66797,114.74609,-426.26953,-0.0995237354035474,-0.0083936374386911,-0.032375159492794,-8.25,31.65,21.75,-491.69922,-4.39453,881.34766,0.1239051123892822,-0.0294440535469947,-0.0463644970463041,86.25,6.0,73.35,-986.32812,13.67187,156.73828,0.1665389681594485,0.0393032439585855,0.1045865864977326,56.1,20.1,-0.45
-909.17969,109.375,-425.78125,-0.1172435397002702,-0.0159877395470436,-0.067015232755901,-9.3,30.9,22.8,-496.09375,7.8125,872.55859,0.1196416220925105,0.043566559722432,-0.0570230482553083,84.9,4.95,72.45,-986.32812,27.83203,157.71484,0.1883889195980907,0.0409019655534123,0.0421010067495324,55.35,20.55,0.45
-895.99609,120.11719,-421.875,-0.0627519169920545,-0.014522186574144,-0.0151883787496302,-7.5,30.9,22.05,-490.72266,0.48828,858.88672,0.1243047927879889,-0.0226493122360556,-0.0409019655534123,84.9,4.95,72.45,-978.51562,12.69531,142.57812,0.2031776179490143,-0.0475635382424242,0.1051194355183664,55.35,20.55,0.45
-895.01953,125.0,-424.80469,-0.1197749652473628,-0.0544916227082157,-0.0578224090527217,-8.1,30.3,22.65,-497.07031,-15.13672,873.53516,0.0820704428836041,0.0494287716140306,-0.0552909835056291,84.9,4.95,72.45,-979.49219,16.60156,159.17969,0.1849249646316576,-0.0301102457224809,0.0973919902551615,55.35,20.55,0.75
-918.94531,122.55859,-424.80469,-0.0839356762552105,0.0065284040670847,-0.0202512298438154,-8.55,30.9,22.8,-479.49219,-17.57813,868.65234,0.1069846688899728,-0.006128723668378,-0.1149786259299572,85.05,6.0,73.35,-983.88672,11.23047,162.10937,0.2038438101245005,-0.046897346066938,0.1211071750654101,55.65,20.55,-0.45
-902.83203,139.16016,-420.41016,-0.0698131700797731,-0.0671485759107534,-0.0246477142295891,-8.55,30.9,22.8,-486.81641,-19.04297,856.44531,0.1011224569983742,0.0047963393174056,-0.0431668793237253,84.9,5.7,73.8,-990.72266,9.27734,171.875,0.1736002212471671,-0.0366386497895657,0.1041869060990259,56.4,21.9,-0.15
-898.92578,136.71875,-411.62109,-0.1025880099712739,0.0070612530877186,0.0001331686219271,-7.5,30.15,23.1,-488.76953,-21.48438,876.95312,0.0846018684306967,-0.0443659205198454,-0.0678147680862396,85.8,4.05,72.3,-994.62891,3.90625,169.43359,0.1889219431516497,-0.0163874199457503,0.0559571756811154,56.1,20.85,-1.5
-898.4375,126.95313,-419.92187,-0.0684807857288007,-0.0071944217096458,-0.037970859607613,-9.9,30.6,23.7,-494.62891,-32.71484,883.30078,0.1223062162615302,-0.0788728251610253,-0.1212403436873373,85.8,4.05,72.3,-1021.97266,11.71875,176.75781,0.1530826541594974,0.0097258472567384,0.104320074720953,55.5,21.45,-0.3
-901.36719,114.74609,-418.94531,-0.0222496318373489,-0.1005896079777403,0.0442327518979182,-7.35,30.3,24.0,-494.62891,-33.20313,895.01953,0.1011224569983742,-0.0456983048708179,-0.093128674491315,84.0,4.05,72.9,-1001.46484,21.97266,170.89844,0.1530826541594974,-0.0504946441882235,0.0924624823158288,55.65,21.9,-0.15
-892.57812,120.11719,-407.22656,-0.0231821612566894,0.0090596550812521,0.0527595579585365,-6.6,31.05,22.65,-511.71875,-41.01563,916.99219,0.1300336615247351,-0.1024548413493467,-0.1237717692344298,85.8,4.8,71.85,-1014.64844,20.99609,170.89844,0.2624655799746356,-0.0370383301882724,0.0804717212887773,55.65,21.9,-0.15
-892.08984,127.44141,-412.10937,-0.0440995832759911,0.0153215473715574,-0.0425006871482391,-6.6,31.05,22.65,-505.85937,-47.85156,912.59766,0.1485528266188713,-0.1241714496331365,-0.1084502218628724,85.8,4.8,71.85,-1024.90234,35.15625,171.875,0.2747228527784666,-0.0033307863445059,0.0618192130397887,56.4,22.65,-0.45
-891.60156,122.55859,-417.48047,0.0187856768709157,0.0006661921754862,0.0143890179522168,-8.1,29.55,22.95,-506.83594,-1.95312,907.71484,0.1139127533557643,-0.0908637607210019,-0.1584120170304621,85.35,4.95,73.2,-1018.06641,32.71484,137.69531,0.2635314525488286,0.0198513749121835,0.0655498543159266,56.4,22.35,0.15
-890.625,134.76562,-427.24609,-0.063684446411395,0.0722112524720134,-0.0301102457224809,-8.1,31.05,22.65,-508.78906,-6.34766,913.57422,0.1229724084370164,-0.1024548413493467,-0.1677381838884938,85.8,4.8,72.6,-1007.8125,43.45703,157.71484,0.2952404198661363,0.0031976177225788,0.0406354537766327,55.8,22.2,-0.6
-923.33984,129.39453,-440.91797,-0.0254472495599277,0.1077840296873862,-0.0626187483701273,-8.55,29.7,22.8,-514.16016,5.37109,909.17969,0.1291011321053945,-0.125503833984109,-0.1293674693492489,85.05,4.5,72.3,-1040.03906,99.12109,191.89453,0.2875129746029314,0.0123904414257581,0.0179861415405771,56.4,21.9,-0.45
-924.80469,131.34766,-438.96484,0.0075941021083525,0.0724777642487929,0.0307764378979672,-8.25,31.2,23.1,-493.65234,7.32422,885.74219,0.0768744231674918,-0.0959264372822619,-0.1195084534705833,85.05,4.5,72.3,-1029.78516,18.55469,128.90625,0.231955653853448,-0.020117886688963,0.0181194846954295,56.4,21.9,-0.45
-937.98828,112.79297,-441.89453,-0.0678147680862396,0.0718115720733066,-0.0238483534321757,-8.25,31.2,23.1,-507.32422,4.39453,882.8125,0.0297105653237742,-0.0355727772153728,-0.1401591891801802,84.75,4.5,72.6,-1013.67187,41.99219,187.01172,0.2003798551580673,-0.0646171503636608,0.0191853572696224,55.2,22.2,-1.35
-924.80469,111.32813,-437.98828,0.0174532925199432,0.0676814249313873,-0.0193185258915496,-7.35,31.05,22.95,-485.83984,3.41797,899.41406,0.0820704428836041,-0.0262466103573411,-0.1104486238564059,84.9,4.95,72.0,-974.12109,62.5,202.14844,0.1939846197129097,-0.0123904414257581,0.0363721380127862,54.9,21.6,-0.75
-932.12891,110.83984,-426.26953,0.0375711792089063,0.0189188454928429,-0.0815375938629702,-7.5,31.65,22.8,-469.23828,-8.30078,886.71875,0.040235773377926,0.0582220894514284,-0.1334976164911682,84.15,5.4,73.5,-999.02344,77.63672,177.24609,0.2069080846922269,-0.089797888146809,0.0495619402359577,54.9,21.6,-0.75
-945.3125,116.69922,-436.03516,0.0293108849250675,0.0508943245869302,-0.0760750623700784,-8.1,29.85,22.95,-445.3125,-38.08594,951.17187,0.0822036115055313,-0.0658161915597809,-0.0772741035661985,85.8,6.3,74.1,-979.98047,57.12891,162.10937,0.2013123845774079,-0.0019984019935335,0.0690138092823597,55.65,20.55,-0.45
-953.125,116.21094,-433.59375,-0.0211837592631559,0.074209828998472,-0.1256370026060362,-9.3,31.65,22.05,-477.05078,-29.78516,932.61719,0.0246477142295891,-0.1169770279234907,-0.1099157748357721,85.5,4.5,72.9,-987.79297,60.54688,142.57812,0.1761316467942597,-0.0498284520127373,0.0546247913301429,55.65,20.55,-0.45
-972.16797,128.41797,-427.24609,0.0538254305327295,0.0355727772153728,-0.0270459711547545,-9.3,31.65,22.05,-482.42187,-53.71094,895.50781,-0.0483628990398376,-0.1000565844241813,-0.1085833904847996,84.15,3.15,72.75,-1000.0,63.96484,172.85156,0.164540566165915,0.0237151848102485,0.0560903443030425,54.9,21.9,-0.75
-961.91406,125.0,-436.52344,0.0795390173365115,0.0077274452632048,-0.0891316959713228,-8.4,29.85,22.65,-481.93359,-35.15625,863.28125,-0.0010658725741929,-0.0807380585326316,-0.1105819670112583,84.15,3.15,72.75,-974.12109,65.91797,182.12891,0.1553475679298105,-0.0097258472567384,0.0374380105869791,55.65,21.6,-0.15
-949.21875,128.90625,-424.31641,-0.0081271256619115,-0.0013323843509724,-0.0579555776746489,-8.25,30.9,23.1,-469.72656,-20.01953,883.30078,0.0732771250462063,-0.0126569532025376,-0.1893216235503565,84.45,5.25,73.35,-982.42187,56.15234,168.45703,0.1417580853079322,0.0398360929792193,0.0050628510941851,56.55,21.0,-1.05
-940.42969,119.62891,-408.69141,0.0039969785199922,-0.0706125308771865,-0.0358392889921523,-7.35,29.85,22.95,-459.96094,-7.8125,892.57812,0.0691469779042869,0.0716784034513795,-0.1626753327943086,85.8,4.05,73.35,-977.53906,69.82422,179.6875,0.1047197551196597,-0.0002665117767795,-0.0015987215948268,57.0,21.45,0.0
-920.41016,124.02344,-404.29687,0.0135896571548034,-0.0804717212887773,-0.0467641774450108,-7.65,32.1,22.65,-455.56641,-19.53125,917.48047,0.0090596550812521,0.0163874199457503,-0.1216401986189692,85.05,5.25,72.6,-928.22266,9.76562,180.66406,0.1055191159170731,-0.0175864611418704,0.0197182062902563,56.7,21.9,0.15
-895.50781,106.44531,-394.53125,-0.0349065850398865,-0.0202512298438154,-0.0626187483701273,-7.65,32.1,22.65,-475.58594,15.13672,886.71875,-0.0153215473715574,0.0154548905264097,-0.1580123366317554,85.05,5.25,72.6,-1011.23047,74.21875,145.01953,0.1157779867273706,-0.0536922619108023,0.063018428768834,57.0,20.7,-2.7
-903.32031,112.79297,-386.71875,-0.0053291883380394,-0.0515605167624164,-0.0679479367081668,-6.9,30.15,22.8,-491.21094,11.71875,864.74609,-0.0141225061754373,-0.0345069046411798,-0.1577458248549758,84.9,4.2,72.75,-1010.25391,64.94141,176.26953,0.1003230962009608,-0.0698131700797731,0.049162259837251,57.0,20.7,-2.7
-869.14062,127.44141,-401.36719,-0.0131899767560967,-0.0932618431132422,0.0355727772153728,-8.4,29.25,22.65,-500.0,42.48047,864.74609,-0.0393032439585855,-0.0205175670876697,-0.1565467836588557,85.5,4.05,73.35,-1020.99609,76.17188,229.98047,0.0034639549664331,-0.1492190187943576,0.0039969785199922,55.8,20.7,-0.6
-862.79297,107.42188,-388.67187,-0.0440995832759911,0.0258469299586344,-0.0562235129249697,-7.95,30.15,23.1,-500.97656,50.29297,875.48828,-0.0113245688515652,-0.0575558972759422,-0.0782068075184643,85.5,4.05,73.35,-1027.34375,79.10156,257.8125,0.0175864611418704,-0.1296339811260284,-0.0700796818565527,55.8,20.7,-0.6
-830.07812,112.30469,-379.88281,0.0018652333716063,0.0262466103573411,-0.0787396565390981,-7.95,30.15,23.1,-475.09766,14.16016,938.96484,-0.0026645941690197,-0.0905972489442224,-0.0772741035661985,86.4,3.15,73.5,-1002.92969,85.44922,242.67578,0.0510274932088574,-0.0937948666668012,-0.0233155044115418,55.35,21.15,-0.15
-831.05469,119.62891,-361.32812,-0.0135896571548034,0.0718115720733066,-0.0207840788644492,-7.95,30.15,23.1,-481.44531,3.41797,975.09766,-0.0536922619108023,-0.18625734898263,-0.1136462415789847,85.05,4.8,73.35,-1009.76562,83.98438,221.67969,0.0576890658978693,-0.043566559722432,-0.0281118437289474,56.4,20.85,-0.15
-810.05859,104.00391,-365.23437,-0.0905972489442224,0.1309663654770009,-0.0474303696204971,-8.4,30.3,22.95,-454.58984,-36.13281,965.82031,-0.1135130729570576,-0.2773874469474863,-0.0979250138087206,85.05,4.05,72.6,-987.79297,73.24219,220.70312,0.0782068075184643,-0.0555574952824086,0.0249142260063686,56.55,21.45,0.0
-834.96094,104.49219,-381.83594,-0.0644839817417337,0.1105819670112583,-0.0237151848102485,-7.05,31.8,22.95,-442.87109,-72.75391,946.28906,-0.1425574461053456,-0.2435467344817927,-0.0627519169920545,85.05,4.05,72.6,-960.44922,66.40625,224.60937,0.1121806886060851,0.0309096065198943,-0.0331745202902074,57.45,21.9,-1.5
-854.00391,82.51953,-395.99609,-0.0466310088230837,0.1448223598756587,-0.0271791397766816,-7.95,30.9,22.8,-452.14844,-61.52344,901.36719,-0.1075176924435318,-0.1938514510909826,-0.0939280352887284,83.55,3.9,73.8,-964.35547,54.6875,238.76953,0.0941945470655079,0.0321086477160144,-0.0215834396618626,56.1,21.15,-0.75
-878.90625,79.58984,-412.10937,-0.0277121633302407,0.1514839325646706,-0.0385038831611721,-8.25,30.9,23.1,-441.89453,-36.62109,881.34766,-0.082603291904238,-0.1681378642872005,-0.1268362183350815,85.05,3.0,72.9,-961.42578,74.21875,218.26172,0.0382373713843925,0.0389035635598788,-0.0764747427687851,55.5,22.2,-0.3
-915.03906,65.42969,-411.13281,-0.0555574952824086,0.1641408857672083,-0.0672817445326806,-8.25,30.9,23.1,-430.66406,-53.22266,898.4375,-0.0422343499043847,-0.1322985752950481,-0.0827366350590903,83.85,3.9,73.8,-961.42578,80.56641,199.21875,0.0564900247017492,0.0807380585326316,-0.0305099261211876,55.5,22.2,-0.3
-942.38281,64.94141,-426.26953,0.0207840788644492,0.0855343978500373,-0.0038636353651398,-9.3,30.15,24.15,-441.89453,-15.625,895.50781,-0.0238483534321757,-0.0274456515534612,-0.0836691644784309,83.7,3.3,74.1,-972.65625,72.75391,235.35156,0.0434333911005048,0.0514271736075641,-0.0662158719584876,56.4,20.85,0.15
-923.33984,58.10547,-442.38281,0.0019984019935335,0.1249709849634751,-0.0699463387017003,-9.3,30.15,22.05,-431.64062,-24.90234,940.91797,-0.0050628510941851,-0.0250473946282958,-0.0255804181818548,85.65,4.2,73.2,-953.61328,76.17188,207.51953,0.0383705400063197,0.0957932686603347,-0.0397029243572922,56.4,20.85,0.15
-924.31641,59.08203,-440.91797,0.0230489926347623,0.0622190679714206,-0.0515605167624164,-9.3,30.45,22.5,-443.84766,-29.78516,925.78125,-0.0331745202902074,-0.0363721380127862,-0.0566231933236764,84.6,3.15,73.5,-977.53906,61.52344,204.10156,0.0081271256619115,0.0357059458372999,-0.0474303696204971,56.4,20.85,0.15
-910.64453,59.08203,-429.6875,0.087532974376496,-0.0209172474863764,-0.0043966589186989,-7.95,30.15,21.75,-443.84766,-26.85547,908.69141,-0.0846018684306967,-0.0187856768709157,-0.0206509102425221,84.6,3.15,73.5,-954.58984,53.22266,221.19141,0.0371714988101996,0.0154548905264097,-0.0850015488294034,57.0,20.7,-1.35
-905.76172,58.59375,-446.28906,-0.0090596550812521,-0.0075941021083525,-0.0744763407752516,-7.95,30.15,21.75,-449.70703,-54.6875,902.34375,-0.063684446411395,-0.0030642745677264,-0.0209172474863764,84.6,3.15,73.5,-956.05469,41.50391,215.82031,0.0385038831611721,-0.0026645941690197,-0.0943277156874351,56.4,20.55,-0.45
-918.94531,60.54688,-418.94531,0.013456313999951,0.0035972981212855,-0.0935283548900217,-9.45,30.3,22.35,-452.14844,-69.33594,911.13281,-0.0766079113907123,-0.0422343499043847,-0.0151883787496302,84.45,3.0,73.35,-971.19141,37.59766,219.72656,0.0083936374386911,0.018385996472209,-0.0869999508229369,56.1,20.55,-0.75
-903.80859,56.64063,-428.71094,0.0421010067495324,-0.0251807377831481,-0.0504946441882235,-8.7,29.25,22.95,-446.77734,-60.54688,903.32031,-0.0443659205198454,-0.0278453319521679,-0.0456983048708179,83.85,3.45,73.2,-993.65234,20.99609,213.86719,0.0139893375535101,0.0265129476011954,-0.0940612039106556,57.15,20.1,-0.15
-890.13672,66.89453,-419.43359,-0.0165205885676775,-0.0101255276554451,-0.1116478395854512,-7.65,29.55,22.35,-449.70703,-75.19531,912.10937,-0.0796723604913639,0.002264913770313,-0.0471638578437175,85.05,3.3,73.65,-980.46875,24.90234,202.63672,0.0097258472567384,0.036238969390859,-0.0917962901403425,55.8,19.95,0.3
-882.32422,69.82422,-422.85156,-0.0085268060606182,-0.0377045223637587,-0.0098591904115907,-7.2,29.7,22.8,-460.9375,-67.38281,908.69141,-0.0702128504784798,-0.0319754790940873,-0.1027213531261262,83.7,4.05,72.3,-987.30469,24.90234,221.19141,0.0492956029921034,0.0732771250462063,-0.1480199775982374,56.25,21.0,-0.3
-888.67187,66.89453,-416.01562,0.0397029243572922,-0.0675482563094601,-0.0427671989250186,-7.2,29.7,22.8,-468.26172,-58.59375,906.25,-0.061419532641082,-0.0363721380127862,-0.0780734643636119,84.9,3.9,73.8,-985.83984,27.34375,219.23828,0.0506278128101507,0.0386370517830992,-0.0720780838500862,56.25,21.0,-0.3
-885.25391,66.89453,-418.45703,-0.0271791397766816,0.0023980823922402,-0.0355727772153728,-8.4,29.85,22.95,-463.86719,-52.24609,928.22266,-0.0281118437289474,-0.0275788201753884,-0.0655498543159266,85.65,2.7,73.2,-984.375,34.66797,202.14844,0.0796723604913639,0.087532974376496,-0.08420218803199,55.8,21.0,-0.3
-881.83594,66.40625,-418.94531,0.023448673033469,0.0077274452632048,-0.0901975685455157,-6.6,29.55,21.9,-454.58984,-67.38281,932.12891,-0.0203843984657425,-0.0405022851547056,-0.0662158719584876,85.65,2.7,73.2,-958.49609,32.22656,161.62109,0.0866002704242302,0.0622190679714206,-0.0734104682010586,57.3,22.2,-0.3
-899.41406,70.3125,-410.15625,-0.0063950609122324,-0.0311761182966739,-0.0077274452632048,-8.4,29.85,22.95,-453.61328,-71.28906,912.59766,-0.0448989440734045,-0.0688804661275074,-0.1031210335248329,85.05,3.3,73.65,-958.49609,40.03906,175.78125,0.0536922619108023,0.0848683802074762,-0.0863337586474507,56.55,19.95,-1.05
-898.4375,51.75781,-421.38672,0.0712787230526728,-0.051827028539196,-0.0820704428836041,-6.45,30.15,22.05,-461.91406,-64.94141,880.85937,-0.0369049870334201,-0.0207840788644492,-0.0620857248165682,83.7,4.5,73.65,-961.42578,43.94531,156.73828,0.0483628990398376,0.1195084534705833,-0.0961929490590414,54.6,19.8,-1.2
-912.10937,48.82813,-433.59375,-0.0594211306475485,-0.0337075438437664,-0.1334976164911682,-6.45,30.15,22.05,-472.16797,-62.01172,880.85937,-0.0631515973907612,0.006128723668378,-0.0406354537766327,85.8,3.75,74.1,-972.16797,49.31641,159.66797,0.027312482931534,0.1209740064434829,-0.0331745202902074,55.5,19.5,1.05
-919.43359,43.94531,-447.75391,0.0245145456076619,-0.0314426300734534,-0.1296339811260284,-7.95,31.65,22.5,-460.44922,-80.56641,884.76562,-0.0723445956268657,0.0382373713843925,-0.0363721380127862,85.8,3.75,74.1,-975.09766,56.64063,154.29687,-0.0181194846954295,0.1067181571131932,-0.0286446927495813,56.4,20.1,-2.55
-936.52344,60.54688,-450.19531,-0.0122572728038309,-0.0594211306475485,-0.1356293616395541,-8.7,30.6,22.65,-342.28516,-113.28125,904.29687,0.0254472495599277,0.4046233456812746,-0.0523598775598298,84.6,2.7,75.3,-980.46875,60.05859,163.57422,0.0122572728038309,0.0627519169920545,-0.0394364125805126,56.4,20.1,-2.55
-943.84766,66.89453,-447.26562,-0.0866002704242302,0.0091929982361045,-0.1797289449155452,-7.05,31.05,22.65,-509.76562,-65.91797,845.21484,-0.0692803210591393,0.1448223598756587,-0.0039969785199922,84.75,3.75,73.35,-991.21094,60.05859,157.22656,-0.0371714988101996,0.0710122112758932,-0.0932618431132422,57.0,20.7,-1.35
-958.98437,74.70703,-461.42578,-0.0138559943986577,-0.0500949637895168,-0.1107151356331855,-9.0,30.45,23.1,-486.81641,-69.82422,896.97266,0.0077274452632048,0.1176432200989769,-0.0049295079393327,84.75,3.75,73.35,-1009.76562,57.61719,159.17969,-0.0611531953972277,0.059154618870769,-0.0658161915597809,57.0,20.7,-1.35
-937.5,62.98828,-446.77734,-0.0458314734927451,-0.0450321126953316,-0.1468207618691921,-9.0,30.45,23.1,-497.07031,-57.12891,896.97266,-0.0082602942838387,0.1997136629825811,0.0137228257767306,83.55,3.9,72.75,-1027.34375,44.92188,160.15625,-0.1153783063286639,0.0778071271197576,-0.0083936374386911,55.8,20.7,-1.35
-920.89844,28.32031,-450.68359,-0.0823369546603836,-0.0635512777894679,-0.2037106415025733,-7.35,30.3,22.35,-515.625,-63.96484,888.67187,-0.0460979852695246,0.0995237354035474,-0.0054625314928918,83.85,2.7,72.75,-1034.17969,56.15234,157.22656,-0.1224395594163826,0.0374380105869791,-0.0510274932088574,56.1,20.1,-0.15
-891.60156,22.46094,-453.125,-0.0606201718436686,-0.0330413516682802,-0.1514839325646706,-8.7,30.3,21.6,-520.50781,-50.78125,904.29687,-0.069680001457846,0.1023216727274195,0.0159877395470436,84.9,2.7,72.45,-1036.62109,48.33984,164.55078,-0.1509510835440367,0.0330413516682802,-0.1087167336396519,56.4,19.8,-1.2
-883.78906,17.57813,-460.9375,-0.0083936374386911,0.0291777163031404,-0.0199847180670358,-8.7,29.25,22.95,-513.18359,-62.98828,906.73828,-0.0556906639043358,0.1071178375118999,0.0718115720733066,84.9,2.7,72.45,-1040.03906,52.73438,155.76172,-0.187989239199384,0.0452986244721112,-0.0535589187559499,56.1,19.35,-1.5
-891.60156,-8.78906,-438.96484,-0.0118575924051242,0.0523598775598298,-0.0952604196397009,-6.9,30.15,22.8,-510.74219,-66.89453,883.78906,-0.0863337586474507,0.0510274932088574,0.0563568560798221,84.15,2.7,72.75,-1015.625,70.80078,166.50391,-0.1600107386252889,0.0075941021083525,-0.0470306892217904,56.1,19.8,-1.2
-891.60156,16.60156,-448.24219,0.0739433172216925,0.0065284040670847,-0.0419678381276052,-6.9,30.15,22.8,-496.58203,-52.73438,895.01953,-0.069680001457846,0.0592879620256213,0.1175098769441246,84.75,2.55,73.35,-1013.18359,72.26563,186.52344,-0.2396829245837277,-0.0130566336012443,-0.0582220894514284,55.5,21.45,-1.05
-889.16016,16.11328,-449.70703,0.0993905667816202,0.0527595579585365,-0.0210505906412288,-6.6,29.55,22.35,-474.60937,-65.91797,896.48437,-0.015055210127703,0.0778071271197576,0.0751423584178126,84.75,2.55,73.35,-997.07031,75.68359,186.52344,-0.2220964634418572,-0.0337075438437664,-0.0434333911005048,55.5,21.45,-1.05
-873.53516,31.25,-438.96484,0.0411684773301918,0.0378376909856858,-0.018385996472209,-7.65,28.5,24.0,-468.26172,-43.45703,894.53125,-0.0409019655534123,0.1141790905996186,0.0679479367081668,85.95,4.65,73.5,-1002.44141,69.33594,188.96484,-0.2827166352855259,-0.0357059458372999,-0.0778071271197576,55.5,21.45,-1.05
-862.79297,50.29297,-439.94141,0.1374945950111605,0.0463644970463041,-0.0195850376683291,-7.35,29.85,22.35,-477.53906,-62.5,901.36719,-0.0191853572696224,0.0794058487145844,0.0944608843093623,85.95,1.95,72.75,-980.95703,69.82422,190.91797,-0.2805850646700651,-0.027312482931534,-0.1217733672408963,55.8,18.75,-0.6
-877.44141,63.96484,-440.91797,0.1044532433428802,0.0486294108166172,0.0571562168772355,-7.35,29.85,22.35,-471.67969,-56.64063,908.69141,-0.0182526533173567,0.0903307371674429,0.0972588216332344,85.65,1.2,72.75,-973.63281,40.03906,183.10547,-0.3040337377035342,-0.0359724576140795,-0.0682144484849463,55.8,18.75,-0.6
-874.02344,60.54688,-440.91797,0.0241148652089552,0.1000565844241813,0.0179861415405771,-8.25,30.15,24.15,-465.33203,-38.57422,901.36719,-0.046897346066938,0.0887320155726161,0.1442895108550248,85.65,1.2,72.75,-995.11719,48.33984,175.78125,-0.2975053336364494,-0.0211837592631559,-0.0800720408900706,57.0,19.95,-0.6
