IMU1_AccX,IMU1_AccY,IMU1_AccZ,IMU1_GyrX,IMU1_GyrY,IMU1_GyrZ,IMU1_MagX,IMU1_MagY,IMU1_MagZ,IMU2_AccX,IMU2_AccY,IMU2_AccZ,IMU2_GyrX,IMU2_GyrY,IMU2_GyrZ,IMU2_MagX,IMU2_MagY,IMU2_MagZ,IMU3_AccX,IMU3_AccY,IMU3_AccZ,IMU3_GyrX,IMU3_GyrY,IMU3_GyrZ,IMU3_MagX,IMU3_MagY,IMU3_MagZ
-847.16797,74.70703,-557.61719,0.1087167336396519,0.0901975685455157,0.1332312792473139,-13.5,28.2,11.25,469.23828,125.48828,870.11719,-0.0341072242424731,0.0374380105869791,-0.2631317721501219,44.55,8.4,99.15,-700.19531,-12.20703,765.625,0.31122815941318,-0.0282450123508746,-0.1498852109698438,54.75,23.7,36.15
-847.65625,52.24609,-576.17187,0.043566559722432,0.0851347174513306,0.0579555776746489,-12.6,26.25,13.2,474.60937,135.74219,882.8125,-0.036238969390859,0.0462311538914518,-0.2996370787848353,45.0,9.75,99.0,-683.10547,-17.57813,771.97266,0.3256171773653969,-0.0331745202902074,-0.1368284028356742,55.35,24.15,37.35
-855.46875,45.89844,-561.03516,0.1005896079777403,0.0732771250462063,0.0511608363637097,-12.6,26.25,13.2,463.37891,127.92969,897.94922,-0.0197182062902563,0.041301645952119,-0.2478100502456393,45.0,9.75,99.0,-688.47656,-3.90625,758.30078,0.3733138842297483,-0.1105819670112583,-0.1732005408484604,54.9,22.65,36.0
-841.30859,46.38672,-540.52734,0.1497518678149914,0.006128723668378,0.0901975685455157,-14.4,27.75,13.2,448.24219,130.85937,899.41406,0.0101255276554451,0.0334410320669869,-0.2331546950495681,45.9,8.85,98.1,-694.33594,12.69531,737.79297,0.3522634681214447,-0.0839356762552105,-0.0996569040254746,55.2,23.7,36.9
-829.58984,60.54688,-544.43359,0.1454885520511449,0.0850015488294034,0.0178529729186499,-13.35,27.3,11.1,435.54687,143.55469,904.29687,0.0310429496747467,0.0017320647496791,-0.2446126070559856,45.45,7.5,98.25,-683.10547,-0.97656,767.08984,0.3645207409252757,-0.0868667822010097,-0.1229724084370164,55.2,23.7,36.9
-852.53906,71.77734,-556.15234,0.1252373222073295,0.0603538345998143,0.0357059458372999,-13.2,27.45,11.25,445.80078,134.27734,909.17969,-0.0110582316077108,0.0550244717288496,-0.2704593624816949,45.45,7.5,98.25,-698.73047,-7.32422,771.97266,0.3578591682362637,-0.0684807857288007,-0.116577347524784,55.35,23.4,37.65
-842.28516,63.47656,-549.31641,0.1931852589154963,0.0041301471419193,0.095393588261628,-13.2,27.45,11.25,452.14844,129.88281,898.92578,0.0387702204050264,0.0500949637895168,-0.2695268330623543,46.5,8.55,97.5,-690.42969,-28.32031,755.85937,0.3554609113110983,-0.1113813278086717,-0.1197749652473628,55.35,23.4,37.65
-846.67969,70.3125,-539.0625,0.1510842521659639,0.0467641774450108,0.0071944217096458,-13.2,27.45,11.25,443.84766,145.01953,892.57812,0.0611531953972277,0.0309096065198943,-0.2258269301850698,45.9,9.9,98.85,-693.35937,-19.53125,777.34375,0.3364088971963282,-0.1364287224369675,-0.1253706653621819,55.2,23.7,36.15
-854.49219,69.33594,-527.34375,0.1903874961245494,-0.0186523337160634,0.0269126279999021,-12.0,25.8,12.9,468.75,162.10937,889.64844,0.0483628990398376,0.0222496318373489,-0.2447457756779128,45.0,9.3,99.3,-697.26562,-31.73828,800.29297,0.3222863910208909,-0.1236386006125027,-0.1249709849634751,54.3,23.4,35.55
-849.12109,63.96484,-517.57812,0.1397595087814735,-0.0331745202902074,0.0369049870334201,-13.5,27.15,12.3,478.02734,135.25391,874.51172,0.0071944217096458,0.0215834396618626,-0.2709923860352539,45.0,9.3,99.3,-695.3125,-40.52734,800.78125,0.4186125087018595,-0.1803951370910315,-0.1402925323350325,54.3,23.4,35.55
-845.21484,77.14844,-510.74219,0.1137794102009119,0.032375159492794,-0.0114579120064175,-12.3,26.55,12.15,489.25781,167.48047,870.60547,-0.0009327039522657,0.0107917198309313,-0.2980383571900085,46.2,9.0,98.25,-669.43359,-47.85156,783.20312,0.444459438660494,-0.1634746935917221,-0.1845252842329509,55.35,23.85,36.6
-845.70312,81.54297,-488.28125,0.0723445956268657,-0.0515605167624164,0.025713586803782,-12.9,26.7,12.3,497.07031,170.41016,873.53516,0.0286446927495813,0.0161209081689708,-0.2809847450687719,45.9,8.1,98.1,-676.75781,-51.26953,775.87891,0.4608468586062443,-0.1291011321053945,-0.2410153089347001,54.6,23.4,36.0
-846.19141,69.82422,-492.1875,0.0460979852695246,-0.0471638578437175,0.0037304667432126,-12.9,26.7,12.3,511.23047,150.39062,872.55859,0.0043966589186989,-0.0233155044115418,-0.2179663162999378,45.75,10.05,98.25,-638.67187,-48.82813,777.83203,0.447790225005,-0.1225727280383097,-0.2190321888741307,55.5,23.7,37.2
-841.79687,-21.48438,-292.48047,-0.1280352595312016,-0.0848683802074762,-0.0787396565390981,-6.3,23.7,15.0,453.61328,-23.92578,847.16797,-0.016787100344457,0.0675482563094601,0.007860613885132,43.8,4.95,99.9,-657.22656,-105.95703,769.53125,0.1048529237415869,0.0941945470655079,-0.1291011321053945,53.85,24.9,38.7
-825.19531,-32.71484,-313.47656,-0.1045865864977326,0.063018428768834,-0.0579555776746489,-5.25,24.3,16.05,486.32812,-25.39063,872.55859,-0.0263797789792682,0.0191853572696224,-0.0277121633302407,45.6,5.7,99.15,-670.41016,-127.92969,776.36719,0.1216401986189692,0.0213169278850831,-0.1542816953556175,54.9,26.1,39.45
-855.46875,-36.62109,-325.68359,-0.1133797298022052,0.1197749652473628,-0.0532925815120956,-5.25,24.3,16.05,506.34766,-30.27344,887.20703,-0.0354394340605204,0.0342403928644003,-0.1124472003828646,44.1,5.7,98.85,-655.76172,-168.94531,694.33594,0.3114946711899595,0.1183094122744632,-0.2009127041787012,54.9,26.1,39.45
-883.30078,-5.85937,-361.32812,-0.0318423104721601,0.0478300500192038,0.0215834396618626,-5.7,25.65,15.45,520.99609,-58.59375,885.25391,0.0082602942838387,0.0179861415405771,-0.1444226794769519,44.1,5.7,98.85,-676.75781,-190.42969,766.60156,0.3285482833111962,-0.0927289940926083,-0.1450888716524382,54.45,25.5,39.3
-888.18359,17.57813,-423.82812,-0.0359724576140795,0.0414349891069713,0.0382373713843925,-5.1,25.35,14.4,498.53516,-71.28906,831.54297,0.0074609334864253,0.1137794102009119,-0.2207642536238099,44.7,6.0,99.75,-599.12109,-147.94922,753.41797,0.5390536661247086,-0.0985910314512816,-0.1945176432664688,54.45,25.5,39.3
-943.84766,24.90234,-479.49219,-0.1084502218628724,0.0908637607210019,0.0365053066347134,-5.4,25.65,15.75,452.63672,-101.5625,820.3125,0.0868667822010097,0.158944866051096,-0.2847152118119845,43.05,6.15,100.5,-552.24609,-89.84375,670.41016,0.4854945728358334,0.1225727280383097,-0.2043766591451344,54.0,24.75,37.5
-1007.8125,-22.46094,-473.63281,-0.1525498051388636,0.0327748398915007,0.0635512777894679,-5.1,26.1,15.15,427.73437,-33.69141,761.71875,0.0979250138087206,0.1628085014162358,-0.3278820911357099,43.05,6.15,100.5,-501.95312,-34.17969,702.14844,0.4886921905584123,0.1553475679298105,-0.0963261176809686,54.75,25.5,37.2
-967.77344,-61.52344,-463.86719,-0.0687472975055802,-0.1105819670112583,0.0929953313364626,-5.1,26.1,15.15,480.46875,35.15625,684.57031,0.0869999508229369,0.3365420658182554,-0.3386738109666413,43.05,6.15,100.5,-572.26562,17.57813,671.875,0.5192021166795999,0.3137595849602726,-0.1606769308007752,54.75,25.5,37.2
-913.08594,-60.54688,-415.03906,-0.0758085505932989,-0.1176432200989769,0.0266462907560478,-5.7,25.65,15.45,437.01172,80.07813,786.13281,0.1493521874162847,0.2669954075152617,-0.3897014787084239,43.8,5.4,99.9,-636.71875,72.75391,706.54297,0.5365222405776161,0.4283383559585979,-0.1779968801658661,54.6,24.9,37.05
-860.35156,-31.73828,-388.18359,-0.0442327518979182,-0.0840688448771376,0.0800720408900706,-5.1,25.35,15.45,423.33984,142.57812,864.25781,0.1493521874162847,0.2928423374738961,-0.4353997835792418,43.95,7.05,99.3,-659.66797,80.07813,707.03125,0.5263967129221709,0.339073491365348,-0.2717917468326674,53.7,25.05,37.5
-817.38281,-8.78906,-368.65234,-0.063684446411395,-0.0863337586474507,0.1361623851931132,-5.55,25.8,15.0,405.27344,204.58984,905.76172,0.1140459219776914,0.2306232695024755,-0.3073645240480402,45.15,5.7,98.85,-645.01953,125.97656,642.08984,0.523065926577665,0.3638545487497894,-0.3007029513590282,53.7,25.05,37.5
-840.33203,8.30078,-360.83984,-0.1299004929028079,0.0157212277702641,0.0575558972759422,-5.55,25.8,15.0,371.09375,249.51172,888.67187,0.1141790905996186,0.217033612347672,-0.2629984289952695,45.15,5.7,98.85,-658.69141,167.48047,676.26953,0.3822403706890733,0.2708590428804016,-0.3013691435345145,54.0,25.05,36.9
-852.53906,35.64453,-368.16406,-0.1029876903699806,0.0165205885676775,0.1089830708835063,-6.0,27.0,16.35,382.32422,250.97656,859.375,0.0053291883380394,0.1401591891801802,-0.1858576685839233,45.75,6.0,99.3,-659.17969,140.13672,699.70703,0.2387503951643871,0.1370949146124538,-0.3845052844593863,54.0,25.05,36.9
-842.77344,36.62109,-359.375,-0.0692803210591393,0.0027979373238721,0.0564900247017492,-5.55,26.25,15.0,392.08984,273.92578,860.35156,0.0113245688515652,0.1247044731866956,-0.134430320443434,46.2,6.0,98.25,-681.15234,107.91016,688.96484,0.1152449631738115,0.1044532433428802,-0.4032909613303021,53.25,25.35,36.3
-848.63281,30.27344,-357.42187,-0.1004564393558132,0.0856677410048896,0.0297105653237742,-4.35,26.4,16.2,417.48047,199.21875,867.67578,-0.0658161915597809,0.1360290420382608,-0.1215068554641168,45.75,5.55,97.5,-674.31641,85.9375,730.46875,0.0174532925199432,0.0662158719584876,-0.4921561455248454,54.75,25.5,36.45
-837.40234,41.99219,-383.78906,-0.1052526041402936,0.0854012292281101,0.0389035635598788,-5.55,26.25,15.6,446.28906,181.64062,913.08594,0.0486294108166172,0.1454885520511449,-0.0626187483701273,45.0,6.75,99.0,-704.10156,109.375,745.60547,-0.0047963393174056,-0.0828698036810175,-0.505878971301576,53.85,24.6,36.0
-873.53516,41.01563,-425.78125,-0.0916631215184153,0.0862005900255235,0.1177763887209041,-5.55,26.25,15.6,458.00781,179.19922,944.33594,-0.0506278128101507,0.1069846688899728,0.0017320647496791,46.2,6.0,99.3,-712.40234,46.38672,721.19141,0.0050628510941851,-0.2150352103541385,-0.518669267658966,54.9,25.65,35.55
-902.83203,30.76172,-436.52344,-0.0694134896810664,0.0422343499043847,0.1291011321053945,-5.55,26.25,15.6,453.61328,87.89063,822.75391,-0.0587549384720623,0.0835359958565038,-0.0005328490206338,45.75,6.75,99.3,-678.22266,76.66016,783.20312,-0.0883323351739094,-0.0858009096268168,-0.51413944011834,55.35,23.85,37.05
-916.01562,31.73828,-449.70703,-0.1329647674705344,0.1125803690047918,0.0959264372822619,-5.7,25.65,16.2,405.27344,107.91016,813.96484,-0.0019984019935335,0.0397029243572922,0.0442327518979182,45.75,6.75,99.3,-754.88281,39.55078,771.97266,-0.1653399269633284,-0.1861240058277777,-0.5196017970783067,55.8,21.75,35.85
-914.55078,43.45703,-430.66406,-0.1666723113143009,0.1328315988486072,0.0977916706538682,-4.95,25.5,14.55,425.78125,68.35938,916.99219,0.0466310088230837,0.0684807857288007,-0.0327748398915007,46.2,6.75,99.75,-742.1875,18.06641,805.17578,-0.1785299037194251,-0.3296141558853891,-0.446724352430807,55.8,21.75,35.85
-917.48047,40.52734,-403.80859,-0.0662158719584876,0.0583552580733556,0.1648070779426945,-6.6,26.25,16.05,452.63672,68.84766,945.3125,0.0480965617959833,-0.0058622118915985,-0.0436999028772844,45.75,7.05,97.5,-731.93359,-13.67187,865.72266,-0.152283293362084,-0.2562036876843304,-0.4284716991134503,55.2,22.5,37.2
-912.59766,43.94531,-397.46094,-0.0543582795533633,0.1057856276938527,0.1099157748357721,-6.6,26.25,16.05,477.53906,131.34766,950.19531,0.0755420388165193,0.0126569532025376,-0.0490290912153239,46.2,7.05,98.55,-728.51562,-55.66406,879.39453,-0.0814042507081179,-0.1786630723413523,-0.4395299307211612,55.2,22.5,37.2
-927.73437,29.29688,-407.71484,-0.0588882816269146,0.1195084534705833,0.0754088701945922,-5.25,26.25,15.0,463.86719,118.16406,996.58203,0.1184425808963904,0.0401026047559989,-0.0422343499043847,45.9,6.15,99.15,-727.05078,-48.33984,814.94141,0.034640073263107,-0.1878560705774568,-0.4260734421882849,54.3,21.9,36.6
-941.89453,-7.32422,-435.54687,-0.0005328490206338,0.1213736868421896,0.1229724084370164,-5.55,25.8,15.0,431.64062,166.01562,1033.69141,0.0456983048708179,0.0175864611418704,-0.0512940049856369,46.2,6.75,97.95,-729.00391,-88.37891,839.35547,0.0479632186411309,-0.2322219910973023,-0.3662526311420296,56.4,21.9,37.05
-984.86328,0.48828,-439.94141,0.0095926786348112,0.0852680606061829,0.1406922127337393,-5.25,27.0,15.3,453.61328,115.23438,998.04687,-0.0222496318373489,-0.0265129476011954,-0.0560903443030425,46.65,6.9,100.2,-698.73047,-24.90234,854.00391,0.1831928998819784,-0.1009892883764471,-0.3538621897162715,56.1,21.9,37.05
-977.53906,27.83203,-457.03125,0.0041301471419193,0.0782068075184643,0.0608866836204481,-6.3,25.8,14.55,375.0,64.94141,1006.83594,0.0137228257767306,-0.1303001733015146,0.0141225061754373,46.65,6.9,100.2,-672.36328,-51.26953,822.75391,0.2768545979268525,-0.1172435397002702,-0.3449357032569465,56.25,20.7,37.2
-995.60547,36.62109,-443.84766,0.0,0.0474303696204971,0.1104486238564059,-6.3,25.8,14.55,455.07812,88.37891,892.08984,0.0369049870334201,0.0349065850398865,-0.0391699008037331,45.6,6.9,99.15,-698.73047,11.71875,806.64062,0.2578024092791572,-0.060753514998521,-0.2900444001500241,55.5,22.2,37.5
-1006.83594,51.26953,-466.79687,0.0598208110462552,0.0634181091675407,0.0724777642487929,-5.25,28.05,14.55,490.72266,67.87109,935.54687,0.094860564708069,0.0546247913301429,-0.0814042507081179,45.75,7.05,98.55,-709.96094,16.11328,860.83984,0.313493073183493,-0.0762082309920056,-0.2628652603733424,54.9,21.6,37.05
-1018.55469,30.76172,-470.70312,-0.0081271256619115,0.0624854052152749,0.0107917198309313,-5.4,26.1,15.45,518.55469,57.61719,999.51172,0.1129800494034985,-0.0644839817417337,-0.1149786259299572,46.8,6.3,97.95,-699.70703,20.99609,766.11328,0.3890352865329376,-0.1073843492886795,-0.2606003466030293,54.9,21.6,37.05
-1029.78516,3.41797,-461.91406,0.0233155044115418,0.032908183046353,0.0500949637895168,-6.6,26.55,15.6,443.35937,54.6875,955.56641,0.0664823837352672,-0.0911300979648563,-0.1101822866125516,46.8,6.3,97.95,-673.33984,66.89453,779.29687,0.3707824586826557,-0.1149786259299572,-0.3082970534673808,55.8,21.0,37.5
-1043.94531,13.67187,-420.89844,0.0377045223637587,-0.0258469299586344,0.0632847660126884,-6.6,26.55,15.6,479.00391,65.42969,905.76172,0.0980581824306478,-0.0446324322966249,-0.0947273960861418,45.6,5.4,98.1,-639.16016,40.52734,798.33984,0.2752557017991005,-0.075275701572665,-0.2731241311836399,55.65,21.15,37.65
-1027.34375,-0.48828,-400.39062,-0.0436999028772844,-0.0361056262360067,0.0235820161883213,-5.1,26.1,14.1,495.11719,71.28906,852.05078,0.1297671497479555,0.0299770771005538,-0.1470872736459717,45.6,6.6,98.85,-651.36719,27.34375,780.27344,0.3420045973111472,0.0155880591483369,-0.2931086747177505,55.65,21.15,37.65
-997.55859,-4.88281,-362.30469,-0.0198513749121835,0.0029311059457992,0.0182526533173567,-5.55,27.0,15.0,497.55859,84.96094,868.65234,0.1496186991930643,0.0275788201753884,-0.2086401494419061,45.6,6.6,98.85,-648.92578,1.95312,770.50781,0.2620658995759289,-0.0338407124656936,-0.2904440805487308,54.9,20.85,37.65
-945.3125,1.95312,-328.125,0.0528927265804637,-0.0023980823922402,0.0382373713843925,-6.45,26.1,14.4,531.73828,128.90625,882.8125,0.1409587245105188,0.0575558972759422,-0.1859908372058505,44.85,7.35,99.9,-630.85937,-34.66797,814.45312,0.2248944007657293,-0.0452986244721112,-0.2491424345966117,55.2,21.45,37.5
-868.16406,-7.32422,-302.24609,0.0634181091675407,0.0086599746825454,0.0003996803987067,-5.4,25.35,14.7,493.16406,120.60547,860.35156,0.1236386006125027,0.0033307863445059,-0.1573461444562691,46.2,5.25,98.25,-638.67187,-27.83203,803.71094,0.3236186008389382,-0.080871401687484,-0.3258835146092512,53.4,20.25,36.45
-832.03125,2.44141,-280.76172,0.0002665117767795,0.0957932686603347,-0.0552909835056291,-5.4,25.35,14.7,512.69531,140.13672,856.93359,0.0341072242424731,-0.0322419908708668,-0.1841256038342442,47.1,6.9,97.65,-647.46094,-19.04297,783.69141,0.2932420178726028,-0.110981647409965,-0.2685941291100885,54.6,21.6,37.05
-816.89453,20.01953,-270.01953,0.0674150876875329,0.2083736376651266,-0.0373046674321268,-6.6,25.8,15.0,487.79297,105.95703,875.97656,0.0556906639043358,-0.0385038831611721,-0.1259035143828157,47.1,6.9,97.65,-665.52734,-48.33984,820.80078,0.2784533195216793,-0.0463644970463041,-0.3208208380479913,54.6,21.6,37.05
-808.59375,-40.52734,-299.31641,0.0534257501340228,0.3073645240480402,-0.0854012292281101,-6.45,25.35,14.7,474.60937,120.60547,881.34766,0.0297105653237742,-0.0819372742616769,-0.0972588216332344,47.25,6.3,98.25,-658.69141,-45.41016,764.64844,0.3789095843445673,0.0255804181818548,-0.2985712062106423,54.45,20.25,39.0
-792.48047,-74.21875,-352.53906,0.0598208110462552,0.3754456293781342,-0.1128468807815713,-7.2,26.7,15.45,458.98437,108.88672,908.20312,-0.0171867807431637,-0.0656830229378538,-0.0676814249313873,45.9,6.9,98.85,-659.17969,-20.99609,725.09766,0.4080873006477077,0.1322985752950481,-0.3217533674673318,54.45,20.25,39.0
-853.51562,-83.49609,-413.08594,0.1047197551196597,0.3685175449123427,-0.0824701232823108,-7.2,26.7,15.45,457.03125,133.30078,905.76172,-0.0433002224785777,-0.132165406673121,-0.0214502710399355,46.2,6.3,98.55,-682.12891,-43.45703,798.33984,0.4917564651261387,0.1566799522807829,-0.3286814519331233,55.2,19.95,37.5
-897.46094,-72.75391,-447.75391,0.0868667822010097,0.3789095843445673,-0.1239051123892822,-5.55,26.25,16.35,454.10156,161.13281,915.03906,-0.110981647409965,-0.1743997565775057,-0.0250473946282958,45.9,6.9,98.4,-636.71875,-50.29297,814.94141,0.5919463927051724,0.2689938095087952,-0.2669954075152617,54.9,20.55,37.35
-932.61719,11.23047,-452.63672,0.0888651841945432,0.357459487837557,-0.0766079113907123,-6.9,26.1,14.7,457.03125,140.13672,935.54687,-0.1159111553492978,-0.0975253334100139,-0.0054625314928918,45.6,7.65,98.85,-630.85937,-22.46094,846.19141,0.7058591460609367,0.3913002003032507,-0.2606003466030293,56.1,20.85,37.05
-940.91797,53.22266,-458.49609,0.1012558001532266,0.2711255546571811,-0.0427671989250186,-6.45,24.9,14.7,473.63281,122.07031,917.48047,-0.1618759719968953,-0.0858009096268168,-0.0289112045263608,46.35,5.7,99.15,-686.52344,4.88281,836.91406,0.8858546027532616,0.425540593167651,-0.2055758748741797,54.0,21.0,37.5
-944.82422,54.19922,-448.24219,0.0651499993842947,0.1975819178341952,-0.014522186574144,-6.0,25.05,16.35,502.44141,110.83984,899.41406,-0.1167105161467112,-0.187989239199384,-0.0263797789792682,46.35,5.7,99.15,-685.54687,-51.75781,807.12891,1.1467212866001453,0.3405390443382476,-0.1885222627529431,55.5,20.25,36.45
-938.47656,22.94922,-432.12891,-0.0612863640191548,0.1686707133078344,-0.1009892883764471,-6.0,25.05,16.35,527.34375,74.70703,879.39453,-0.0571562168772355,-0.0945942274642146,-0.0018652333716063,46.35,5.7,99.15,-627.44141,-74.21875,792.48047,1.183226593234859,0.0405022851547056,-0.1405590441118121,55.2,21.0,37.2
-917.96875,-6.34766,-421.38672,-0.0436999028772844,0.1012558001532266,-0.0627519169920545,-5.7,26.7,14.1,506.83594,39.0625,845.21484,-0.0688804661275074,-0.0475635382424242,-0.0087933178373978,46.35,6.6,99.15,-605.46875,-105.95703,785.64453,1.0237488781631288,0.0985910314512816,-0.1537488463349836,55.2,21.0,37.2
-900.39062,-37.10938,-415.03906,-0.0967257980796753,0.0560903443030425,-0.0732771250462063,-7.65,27.0,14.55,516.60156,31.73828,852.05078,-0.0824701232823108,-0.0302434143444081,-0.0033307863445059,46.2,8.25,99.75,-639.64844,-145.01953,729.98047,0.8380245527340577,0.2647304937449487,-0.1778637115439389,57.0,20.7,36.15
-888.67187,-35.15625,-428.71094,-0.1271025555789358,0.0426340303030914,-0.0575558972759422,-5.1,26.7,14.4,504.88281,-6.83594,857.91016,-0.1540153581117632,-0.0639509581881746,-0.1081837100860929,45.15,5.7,97.35,-686.52344,-95.70313,716.30859,0.7027946969602851,0.1610766111994818,-0.0684807857288007,57.0,20.7,36.15
-889.16016,-36.62109,-448.24219,-0.0190520141147701,0.0033307863445059,-0.0155880591483369,-5.1,26.7,14.4,481.93359,-34.66797,889.64844,-0.1385604675853534,-0.096459460835821,-0.1257703457608885,45.15,5.7,97.35,-678.71094,-75.68359,759.76562,0.567165335320731,0.032908183046353,-0.0425006871482391,57.15,19.35,34.5
-904.78516,-19.04297,-458.49609,-0.0185191650941362,0.0119907610270514,-0.0626187483701273,-7.2,27.15,14.4,478.02734,-56.64063,892.57812,-0.2223629752186367,-0.0905972489442224,-0.1322985752950481,44.55,6.6,99.45,-681.15234,-24.90234,737.79297,0.5583721920162583,-0.0827366350590903,0.0286446927495813,55.5,21.0,34.8
-899.41406,-35.15625,-482.42187,-0.0247810573844414,0.0588882816269146,-0.1041869060990259,-6.15,25.65,14.7,466.30859,-52.73438,905.27344,-0.0919296332951949,-0.0933951862680945,-0.1847917960097304,45.6,5.4,98.85,-643.06641,2.44141,712.40234,0.4872266375855126,-0.1265697065583019,0.0217166082837898,56.25,21.75,35.1
-893.55469,-37.10938,-494.62891,0.0210505906412288,0.0310429496747467,0.0093261668580317,-6.3,26.55,14.55,445.3125,-97.16797,885.25391,-0.1101822866125516,-0.0876661429984231,-0.1934517706922759,45.6,5.4,98.85,-681.64062,-45.41016,702.14844,0.315624818331879,-0.1021883295725672,0.0305099261211876,55.2,20.7,36.15
-915.03906,-54.6875,-503.90625,0.0455651362488907,0.0534257501340228,-0.027312482931534,-8.25,27.45,15.75,380.85937,-98.63281,945.80078,-0.1670719917130076,-0.1229724084370164,-0.2616662191772222,45.9,5.4,99.45,-662.10937,-37.10938,718.26172,0.268860640886868,-0.1474869540446784,-0.0194516945134768,55.2,20.7,36.15
-927.24609,-83.98438,-493.16406,0.0466310088230837,0.0944608843093623,-0.1293674693492489,-8.25,27.45,15.75,377.44141,-92.77344,934.57031,-0.018385996472209,-0.0746095093971788,-0.2984380375887152,46.2,6.75,100.05,-682.12891,-47.85156,780.27344,0.2127702965838255,-0.0662158719584876,-0.0723445956268657,55.8,21.75,36.15
-932.12891,-82.03125,-491.69922,0.0936615235119489,0.0386370517830992,-0.0175864611418704,-8.25,27.45,15.75,400.87891,10.74219,906.25,-0.0720780838500862,0.0366386497895657,-0.351863787722738,45.9,5.4,99.15,-694.82422,-2.44141,765.13672,0.1949173236651755,-0.0479632186411309,-0.0106585512090041,55.8,21.75,36.15
-919.92187,-99.12109,-486.81641,0.1205743260447762,-0.0026645941690197,0.0635512777894679,-6.0,27.75,15.0,455.56641,3.41797,973.63281,-0.0215834396618626,0.041834669505678,-0.3782433921690811,45.9,5.4,99.15,-698.73047,3.41797,772.46094,0.1766646703478188,-0.0822036115055313,-0.086467101802303,55.8,21.75,36.15
-923.82812,-100.09766,-478.51562,0.1164441789028568,0.0602204914449619,-0.0113245688515652,-6.9,26.1,14.7,458.00781,47.85156,944.33594,-0.1060521394706322,0.0054625314928918,-0.3322787500544089,45.0,5.25,98.25,-689.94141,23.92578,781.73828,0.1171101965454179,-0.0610198522423753,-0.0075941021083525,55.35,21.6,34.5
-908.20312,-95.70313,-475.58594,0.1883889195980907,-0.0237151848102485,0.0650168307623675,-6.45,25.35,13.65,534.66797,95.70313,847.65625,0.032908183046353,0.041301645952119,-0.3337443030273085,43.8,6.15,98.85,-706.54297,40.52734,765.625,0.1223062162615302,-0.118842261295097,-0.1372282577673061,56.1,21.9,36.6
-916.50391,-110.35156,-486.81641,0.1690703937065411,-0.0149218669728507,0.0319754790940873,-6.45,25.35,13.65,567.38281,157.22656,894.53125,-0.1982481100096814,-0.1008561197545199,-0.2115712553877054,43.8,6.15,98.85,-685.05859,55.66406,764.16016,0.1204409828899239,-0.1905206647464766,-0.1048529237415869,55.35,21.9,35.55
-924.80469,-94.72656,-485.83984,0.1509510835440367,0.0215834396618626,0.031309286918601,-6.45,25.35,14.4,529.29687,131.34766,849.60937,0.004529827540626,-0.0293108849250675,-0.2344869048676153,46.2,5.25,99.3,-688.96484,39.0625,789.55078,0.1175098769441246,-0.17346705262524,-0.0993905667816202,56.25,21.0,35.85
-942.38281,-81.05469,-476.5625,0.2102388710367329,-0.0221164632154217,0.0957932686603347,-7.05,25.05,14.25,649.90234,161.13281,901.36719,-0.1362955538150403,-0.023981696587028,-0.1341638086666545,44.55,6.6,98.85,-681.15234,55.17578,776.85547,0.1303001733015146,-0.1318988948963414,-0.0776737839649052,55.65,21.15,36.3
-930.17578,-97.16797,-441.89453,0.2090398298406128,-0.0262466103573411,0.0564900247017492,-8.1,24.75,15.0,511.71875,100.58594,926.26953,0.0515605167624164,-0.0807380585326316,-0.1694700741052478,45.75,5.25,99.0,-680.17578,58.10547,777.34375,0.0856677410048896,-0.089797888146809,-0.0940612039106556,56.55,22.5,36.45
-927.24609,-58.59375,-416.50391,0.1692037368613934,0.0375711792089063,0.0130566336012443,-7.65,24.75,13.95,392.57812,-20.01953,894.04297,-0.1702694349026612,-0.0141225061754373,-0.0941945470655079,45.75,5.25,99.0,-674.80469,78.125,782.71484,0.0382373713843925,-0.0411684773301918,-0.0896645449919567,56.55,22.5,36.45
-880.85937,-28.80859,-397.94922,0.1923858981180829,-0.0860674214035963,0.0655498543159266,-7.65,24.75,13.95,452.63672,70.80078,895.50781,-0.0450321126953316,0.0049295079393327,-0.1271025555789358,45.45,5.25,99.0,-665.52734,84.96094,779.29687,0.1120475199841579,0.0287778613715085,-0.1204409828899239,55.65,21.6,35.25
-846.67969,-28.80859,-363.28125,0.1783965605645728,-0.0003996803987067,0.0277121633302407,-6.9,26.1,14.7,451.66016,62.5,909.17969,-0.0439662401211387,-0.0916631215184153,-0.1366952342137471,46.35,6.15,99.45,-669.43359,112.79297,759.27734,0.1229724084370164,-0.0258469299586344,-0.0945942274642146,55.65,21.6,35.25
-845.70312,0.48828,-356.93359,0.1087167336396519,0.0555574952824086,0.0342403928644003,-8.1,25.5,14.25,501.95312,112.79297,891.60156,0.0363721380127862,-0.1216401986189692,-0.2155680593747724,45.0,5.55,98.25,-628.90625,116.21094,778.32031,0.1067181571131932,-0.0278453319521679,-0.0506278128101507,54.75,21.0,36.45
-837.40234,-11.71875,-358.88672,0.0154548905264097,0.1160443239712249,-0.0503614755662963,-7.05,24.0,15.6,522.94922,122.55859,875.97656,-0.005595700114819,-0.0446324322966249,-0.1462879128485583,44.1,4.95,99.45,-601.07422,121.58203,778.32031,0.0812710820861907,-0.0169204434993094,-0.0033307863445059,55.2,22.5,35.1
-871.58203,-31.25,-378.41797,0.0250473946282958,0.1185757495183175,-0.0334410320669869,-7.05,24.0,15.6,543.94531,138.18359,886.23047,0.0310429496747467,-0.132165406673121,-0.1303001733015146,44.55,4.65,99.15,-594.72656,123.53516,769.04297,0.0365053066347134,-0.0195850376683291,-0.0075941021083525,56.4,22.35,36.0
-902.83203,-16.11328,-413.57422,0.0568897051004559,0.0939280352887284,0.0119907610270514,-6.0,25.8,14.25,562.01172,166.50391,892.57812,0.0285115241276541,-0.1414915735311527,-0.1180429004976836,44.25,4.5,99.0,-560.05859,113.76953,761.23047,0.0586217698501351,0.0671485759107534,0.0305099261211876,55.2,21.45,36.15
-905.27344,-18.06641,-416.99219,-0.0021317451483858,0.1015221373970809,-0.0157212277702641,-6.45,24.9,15.15,540.52734,160.64453,851.5625,0.0189188454928429,-0.0768744231674918,-0.1067181571131932,44.25,4.5,99.0,-586.91406,92.28516,736.32812,0.0195850376683291,0.1354961930176269,-0.0299770771005538,55.35,20.55,36.3
-912.59766,-10.25391,-455.07812,0.0189188454928429,-0.0070612530877186,0.0301102457224809,-7.5,24.6,13.65,523.4375,142.57812,825.19531,0.0054625314928918,-0.0067947413109391,-0.0888651841945432,44.7,4.8,99.75,-581.54297,73.24219,764.64844,0.0021317451483858,0.1063184767144865,-0.0355727772153728,55.65,21.15,36.6
-918.94531,-14.16016,-472.16797,0.0299770771005538,-0.0527595579585365,0.0001331686219271,-8.4,25.5,15.0,523.4375,139.64844,808.59375,0.1108484787880378,0.0373046674321268,-0.1412250617543731,44.7,4.8,100.05,-611.81641,56.15234,776.36719,0.0576890658978693,0.1825268822394173,0.0038636353651398,55.65,21.15,36.6
-937.5,-14.16016,-481.44531,-0.0106585512090041,-0.0474303696204971,0.0007993607974134,-8.4,25.5,15.0,505.85937,143.55469,848.14453,0.0470306892217904,0.093128674491315,-0.1179097318757565,44.7,5.55,99.3,-647.94922,48.33984,756.34766,0.0743429976203992,0.1981147668548291,0.0159877395470436,55.8,20.7,36.9
-914.55078,-3.41797,-474.12109,0.0654165111610742,-0.1670719917130076,0.0099923590335179,-6.15,27.15,13.65,485.83984,138.67187,875.48828,0.0419678381276052,0.1153783063286639,-0.1055191159170731,44.7,5.55,99.3,-662.10937,36.13281,742.67578,0.1113813278086717,0.1368284028356742,0.0409019655534123,56.25,21.75,35.85
-905.27344,-1.46484,-468.75,0.0422343499043847,-0.1450888716524382,-0.0159877395470436,-6.15,25.35,13.35,472.16797,124.02344,897.46094,0.0122572728038309,0.1437564873014657,-0.1161776671260773,44.7,5.25,99.3,-686.52344,28.80859,755.37109,0.0903307371674429,0.1682710329091277,-0.0225161436141284,56.1,22.65,36.3
-870.11719,-4.88281,-467.28516,-0.0154548905264097,-0.148952507017578,-0.0662158719584876,-7.2,24.9,14.1,447.26562,114.74609,903.80859,-0.0010658725741929,0.0812710820861907,-0.0834028272345766,46.35,4.95,99.15,-725.58594,5.37109,762.69531,0.1089830708835063,0.0486294108166172,-0.0205175670876697,56.55,21.0,34.8
-873.04687,6.83594,-472.16797,0.0237151848102485,-0.1540153581117632,0.0041301471419193,-7.2,24.9,14.1,439.94141,105.95703,899.41406,-0.0126569532025376,0.132165406673121,-0.1139127533557643,46.35,4.95,99.15,-717.77344,30.27344,751.95312,0.1564134405040034,0.0206509102425221,-0.0237151848102485,55.65,22.35,35.55
-886.23047,-13.18359,-471.67969,0.0247810573844414,-0.1216401986189692,0.0390367321818059,-7.05,24.75,14.25,428.22266,88.86719,902.83203,-0.0203843984657425,0.11990813386929,-0.0795390173365115,45.9,4.65,100.2,-727.53906,25.87891,755.37109,0.1276355791324949,0.0250473946282958,-0.0109248884528585,55.65,21.6,35.25
-901.36719,-39.0625,-467.77344,0.0002665117767795,-0.0604870032217414,-0.0687472975055802,-6.6,24.3,13.2,416.01562,78.125,929.6875,-0.0069280844657914,0.0949939078629213,-0.0952604196397009,45.15,4.95,99.45,-737.79297,37.10938,760.74219,0.0960597804371143,-0.0043966589186989,0.0411684773301918,55.65,21.6,35.25
-893.55469,-47.36328,-490.72266,0.070346019100407,-0.1227058966602369,0.0122572728038309,-6.6,25.05,15.0,403.32031,62.5,912.10937,-0.0270459711547545,0.0762082309920056,-0.1033873707686873,46.2,5.25,99.0,-718.26172,37.10938,764.16016,0.152283293362084,-0.0707458740320389,-0.037970859607613,56.1,21.6,35.25
-903.32031,-45.89844,-470.21484,0.0584886012282079,-0.1077840296873862,0.0812710820861907,-7.95,23.85,14.7,406.73828,49.31641,935.54687,0.0095926786348112,0.0258469299586344,-0.1144456023763981,46.2,5.25,99.0,-707.03125,8.78906,772.94922,0.210771894590292,-0.054091942309509,-0.041301645952119,56.1,22.65,35.25
-888.18359,-48.82813,-430.17578,0.041301645952119,-0.0562235129249697,-0.032375159492794,-7.95,23.85,14.7,429.6875,63.96484,925.29297,-0.0130566336012443,0.0271791397766816,-0.1533491659362769,46.2,5.25,99.0,-724.60937,-7.32422,770.50781,0.1681378642872005,-0.1312327027208552,-0.0157212277702641,56.1,22.65,35.25
-869.14062,-17.57813,-430.66406,0.0514271736075641,-0.1099157748357721,-0.0017320647496791,-7.2,24.15,14.1,434.57031,58.10547,926.75781,-0.0178529729186499,0.0130566336012443,-0.1566799522807829,44.1,4.95,99.15,-712.40234,-18.06641,767.08984,0.2053093630974001,-0.1692037368613934,-0.0046631706954784,55.35,22.35,36.0
-860.35156,2.92969,-406.73828,0.0576890658978693,-0.0628850856139816,0.0246477142295891,-6.3,25.5,14.25,440.91797,29.29688,922.85156,-0.0351730968166661,0.0211837592631559,-0.2226293124624911,45.45,6.0,101.1,-686.03516,-59.57031,769.53125,0.2075742768677131,-0.1989143021851677,0.011191400229638,55.8,21.0,34.8
-850.58594,1.95312,-380.37109,0.0285115241276541,-0.039569755735365,-0.0086599746825454,-7.65,24.75,13.95,463.86719,2.44141,900.87891,-0.0382373713843925,-0.0370383301882724,-0.2033109611038666,44.7,4.05,99.75,-658.69141,-29.78516,788.57422,0.2791195116971655,-0.1441561677001724,-0.0077274452632048,54.6,23.1,36.3
-850.58594,-16.11328,-365.23437,-0.0229158240128351,-0.0049295079393327,-0.0582220894514284,-7.65,24.75,13.95,458.98437,12.20703,887.20703,-0.0059953805135257,-0.0225161436141284,-0.2629984289952695,45.9,5.4,99.15,-643.55469,-0.48828,732.91016,0.308963245642867,-0.1075176924435318,-0.0117244237831971,55.5,22.5,36.45
-801.26953,3.90625,-388.18359,0.006128723668378,-0.0218499514386422,-0.0747426780191059,-4.65,25.35,15.15,464.35547,22.46094,848.63281,-0.1209740064434829,-0.0421010067495324,-0.2825834666635987,45.15,5.4,98.4,-636.23047,54.19922,719.72656,0.3958300278438768,-0.0606201718436686,-0.027312482931534,54.9,22.65,36.3
-774.90234,12.20703,-417.48047,-0.0590214502488418,0.0598208110462552,-0.1405590441118121,-6.45,24.9,14.1,433.59375,19.04297,825.19531,-0.1722680114291199,-0.0267794593779749,-0.2596676426507636,44.85,5.4,98.4,-633.78906,73.73047,735.35156,0.4527197329443327,-0.016787100344457,0.0715452348294523,54.75,22.2,36.45
-823.24219,0.48828,-424.80469,-0.0350397536618137,0.1136462415789847,-0.1267028751802291,-6.0,24.75,14.25,435.54687,60.05859,836.91406,-0.1738667330239467,-0.0154548905264097,-0.2945742276906501,44.85,5.4,98.4,-650.87891,110.83984,763.67187,0.4804318962745735,0.0640843013430269,0.114312433754471,54.75,22.2,36.45
-862.30469,14.16016,-430.17578,0.0598208110462552,0.0846018684306967,-0.1300336615247351,-5.7,24.6,13.65,514.64844,102.53906,933.10547,-0.1801286253142519,0.016787100344457,-0.3851714766348726,45.75,5.25,99.3,-661.62109,129.39453,787.59766,0.5354563680034231,0.0640843013430269,0.1212403436873373,55.8,22.2,34.8
-880.85937,0.97656,-458.49609,0.0274456515534612,0.1164441789028568,-0.1803951370910315,-5.7,24.6,13.65,562.98828,173.82812,1003.90625,-0.2212971026444438,0.050761155965003,-0.3217533674673318,45.6,5.7,97.65,-671.38672,151.85547,858.39844,0.6311164680418307,0.0487625794385443,0.1460214010717788,54.9,22.65,36.0
-924.31641,-38.08594,-476.07422,0.0944608843093623,0.1161776671260773,-0.2246278889889497,-5.7,24.6,13.65,509.27734,208.00781,985.83984,-0.2069080846922269,0.0455651362488907,-0.23981626773858,45.45,5.25,99.0,-674.31641,236.81641,887.20703,0.7283752896750652,0.0347734164179594,0.1417580853079322,55.35,22.65,34.2
-947.26562,-67.87109,-465.33203,0.205842212118034,-0.0154548905264097,-0.2291577165295759,-5.55,23.7,14.55,475.09766,219.23828,961.91406,-0.2085068062870538,0.0159877395470436,-0.1893216235503565,44.1,5.4,99.9,-701.17187,236.32812,860.35156,0.9098361248073644,-0.0539585991546566,0.1670719917130076,54.75,23.7,36.15
-941.89453,-99.12109,-445.3125,0.2851148922106912,-0.0472970264656447,-0.3130933927847864,-7.05,24.75,15.6,515.625,268.06641,959.47266,-0.1729342036046061,-0.0163874199457503,-0.1682710329091277,45.6,4.95,99.15,-631.83594,315.42969,832.51953,0.9226262466318292,-0.1421577657066389,0.1409587245105188,55.2,22.5,34.8
-945.80078,-106.93359,-431.15234,0.3825068824658528,-0.1424242774834185,-0.2721914272313741,-7.5,24.15,14.4,533.69141,250.48828,952.14844,-0.140026020558253,0.0126569532025376,-0.1706692898342931,45.9,4.2,99.15,-504.39453,230.95703,725.09766,0.770076616025891,0.0999234158022541,0.1244379614099161,55.5,23.7,35.4
-969.72656,-93.26172,-452.63672,0.4892250395790461,-0.2681944487113818,-0.2034441297257938,-7.5,24.15,14.4,540.03906,224.60937,843.26172,-0.046897346066938,0.0782068075184643,-0.0640843013430269,45.9,4.2,99.15,-586.42578,232.91016,724.60937,0.3926324101212979,0.3817075216684394,0.0751423584178126,55.5,23.7,35.4
-996.58203,-90.33203,-482.42187,0.4198115498979796,-0.2827166352855259,-0.1569464640575625,-6.0,24.0,14.55,540.03906,238.28125,746.58203,-0.0643506385868813,0.1049862668964393,0.0314426300734534,45.15,4.95,98.85,-635.25391,324.70703,548.82812,0.5076110360512552,0.2720582586094469,0.1544150385104699,55.5,23.25,35.1
-955.56641,-64.94141,-484.375,0.4908239357067981,-0.3256171773653969,-0.1753322859968463,-7.2,22.65,14.4,489.25781,183.59375,749.51172,-0.1169770279234907,0.0182526533173567,0.1148452827751048,46.5,3.75,99.75,-600.58594,315.91797,620.11719,0.0259800985805615,0.0884655037958365,0.1231057515918688,55.5,23.25,35.1
-961.91406,-62.98828,-505.37109,0.4957534436461309,-0.4179464910592985,-0.1464210814704855,-6.3,22.5,14.55,481.93359,187.01172,669.43359,-0.0251807377831481,-0.1654732701181807,0.1366952342137471,47.4,3.9,99.15,-555.66406,304.19922,632.8125,-0.3220198792441113,-0.0818039311068246,0.1676048407336414,55.2,24.0,34.05
-1034.17969,-93.75,-442.87109,0.4108850634386546,-0.387569733560038,-0.2334212068263476,-6.45,23.4,13.35,461.42578,259.27734,724.60937,-0.1434899755246862,0.0724777642487929,0.1737335644020195,47.4,3.9,99.15,-558.59375,312.5,732.91016,-0.7306400289124529,-0.1064518198693389,0.1133797298022052,55.35,22.65,34.95
-1029.78516,-119.14063,-384.76562,0.3651867585678368,-0.4419280131134014,-0.2507411561914385,-6.45,23.4,13.35,454.58984,264.16016,813.47656,-0.2085068062870538,0.1620091406188224,0.2419480128869659,45.6,4.2,98.4,-584.96094,293.45703,722.65625,-0.8778606457132772,-0.0908637607210019,0.077540615342978,54.9,23.4,35.25
-917.48047,-127.92969,-313.96484,0.3408055561150271,-0.4868269571868059,-0.2149020417322114,-5.7,22.35,16.2,436.03516,230.46875,972.16797,-0.0576890658978693,0.0776737839649052,0.2684609604881613,46.35,3.9,99.9,-588.86719,220.70312,663.08594,-0.9045069364693248,-0.0427671989250186,0.1116478395854512,55.65,23.4,34.2
-778.80859,-86.91406,-298.82812,0.1837259234355374,-0.3766446705742543,-0.2327550146508613,-6.0,21.75,15.0,375.48828,117.1875,912.59766,-0.029044373148288,0.0822036115055313,0.3189556046763849,46.35,3.9,99.9,-651.85547,146.97266,696.77734,-0.9350168625905124,0.0730107878023519,0.0892648645932499,56.4,22.35,34.95
-780.76172,-61.03516,-355.95703,0.0771409349442713,-0.2883123354003449,-0.1833262430368307,-4.5,22.5,14.25,362.79297,59.08203,855.46875,0.0246477142295891,0.1405590441118121,0.3130933927847864,45.0,4.05,99.75,-660.15625,61.03516,748.04687,-0.9331516292189062,0.0082602942838387,0.2242282085902431,55.2,23.25,35.4
-860.35156,-98.14453,-390.13672,-0.0302434143444081,-0.1605435876459228,-0.1289677889505422,-4.5,22.5,14.25,351.5625,-13.67187,865.72266,0.0983246942074273,0.1388269793621329,0.2582020896778639,46.35,4.95,99.15,-699.21875,31.73828,786.13281,-0.7784700789316569,0.0014655529728996,0.182393539084565,55.2,23.25,35.4
-921.875,-103.51563,-432.61719,-0.1517504443414501,-0.0956601000384076,-0.1478866344433851,-5.4,20.85,13.65,375.97656,21.48438,900.87891,0.0791393369378048,0.0604870032217414,0.2428805423063064,45.45,4.5,99.75,-715.82031,39.55078,790.52734,-0.7627488511613927,-0.0997902471803269,0.2198315496715442,55.2,23.25,35.4
-937.98828,-109.375,-444.82422,-0.2612665387785156,-0.085934078248744,-0.1305666850782942,-5.4,21.9,14.4,423.33984,50.78125,860.83984,0.0867336135790826,0.0063950609122324,0.1845252842329509,45.45,4.5,99.75,-715.82031,59.08203,813.47656,-0.6489692664275555,-0.1370949146124538,0.231955653853448,54.3,23.1,35.25
-926.26953,-116.69922,-444.82422,-0.2904440805487308,-0.1088499022615791,-0.0692803210591393,-4.35,22.35,15.45,449.70703,30.76172,883.30078,0.1268362183350815,0.0474303696204971,0.1093829258151382,45.0,4.5,99.75,-729.00391,62.98828,780.76172,-0.5629020195568845,-0.1728008604497538,0.2619325564210766,54.3,23.1,35.25
-904.29687,-124.51172,-423.33984,-0.4593813056333446,-0.0899310567687362,-0.2079739572664199,-6.0,21.45,13.5,474.12109,88.37891,900.39062,0.2404824599140662,0.1279019163763492,0.0763415741468579,43.95,4.5,100.05,-728.51562,114.74609,769.53125,-0.5537090213207798,-0.2260934419618494,0.2456784796301786,56.1,23.4,34.95
-883.78906,-136.71875,-409.66797,-0.4673752626733291,-0.0891316959713228,-0.266595727116555,-6.0,21.45,13.5,484.86328,136.71875,982.91016,0.1096492630589925,0.1670719917130076,0.1630750131930153,45.75,4.5,99.75,-739.25781,145.50781,799.31641,-0.6187258520831475,-0.1593445464498027,0.2522067091643382,55.2,22.2,35.4
-876.95312,-125.48828,-416.50391,-0.4720382588358823,-0.1309663654770009,-0.264330813346242,-3.6,23.1,15.75,511.71875,145.99609,1002.92969,0.0555574952824086,0.1432236382808319,0.2327550146508613,47.1,4.2,99.45,-719.72656,192.87109,792.96875,-0.5852848200161606,-0.0731439564242791,0.2422143501308202,54.6,24.15,36.6
-897.94922,-93.26172,-375.48828,-0.5493123624020809,-0.0851347174513306,-0.2987043748325695,-4.65,22.35,15.15,515.625,134.76562,1048.82813,0.0259800985805615,0.1637412053685016,0.2178331476780106,46.8,4.5,99.75,-757.8125,228.02734,802.73437,-0.6260536169476456,0.096459460835821,0.2539387739140173,55.2,23.7,36.45
-842.28516,-82.03125,-354.49219,-0.6172602991102478,-0.0560903443030425,-0.3814410098916599,-4.05,21.6,15.15,479.49219,129.88281,1114.74609,0.0706125308771865,0.0616860444178615,0.3015023121564416,46.35,3.15,99.15,-736.32812,177.24609,810.05859,-0.576624845333615,0.1552143993078833,0.2003798551580673,55.2,23.7,36.45
-832.03125,-74.70703,-378.41797,-0.5967427320225781,-0.0771409349442713,-0.2987043748325695,-4.05,21.6,15.15,475.09766,136.71875,1104.00391,0.0955267568835552,-0.0578224090527217,0.3678515272697816,46.35,3.15,99.15,-682.61719,121.09375,807.61719,-0.5475804721853269,0.2065084042935202,0.2184991653205717,54.3,23.85,34.95
-859.86328,-82.51953,-393.55469,-0.6632251157578453,-0.073676805444913,-0.4783001511261876,-6.15,24.15,14.4,452.63672,148.4375,1042.96875,0.0935283548900217,-0.0366386497895657,0.4036906417290088,46.35,3.15,99.15,-658.20312,118.16406,779.29687,-0.4082204692696349,0.2785864881436065,0.245411967853399,54.3,23.85,34.95
-916.99219,-87.89063,-428.22266,-0.7090565892505903,-0.0612863640191548,-0.4669755822746224,-3.6,23.4,15.45,489.25781,130.85937,965.82031,0.0863337586474507,0.0178529729186499,0.4798988727210144,45.9,4.2,99.15,-613.28125,99.60938,764.16016,-0.4471240328295137,0.4012925593367686,0.2255604184082903,54.45,25.05,36.15
-953.125,-119.14063,-418.45703,-0.6508346743320872,-0.2062418925167407,-0.4896247199777528,-4.35,23.4,16.2,532.71484,123.04688,941.89453,0.0791393369378048,0.1849249646316576,0.4733706431868549,45.9,4.2,99.15,-600.09766,121.58203,757.8125,-0.4424608621340353,0.4126171281883338,0.264330813346242,54.75,23.25,36.9
-987.30469,-144.04297,-445.80078,-0.6328483582585848,-0.2771209351707068,-0.5255971775918323,-4.65,23.1,16.2,532.71484,92.77344,878.41797,0.0743429976203992,0.3758453097768409,0.4848285551932724,46.8,4.5,99.0,-585.9375,71.77734,757.8125,-0.5613032979620576,0.4492557779778995,0.2711255546571811,56.1,23.85,37.35
-1022.46094,-170.89844,-479.49219,-0.626852977745059,-0.3566599525072185,-0.5046799301054559,-4.65,23.1,16.2,480.95703,48.82813,828.61328,0.1205743260447762,0.3406722129601747,0.53199241303699,47.55,5.25,99.75,-598.63281,62.5,775.87891,-0.50134914376095,0.4372648424179229,0.2612665387785156,55.8,24.0,35.4
-1046.38672,-178.71094,-480.95703,-0.5222663912473264,-0.4443262700385668,-0.4071547712283672,-4.05,24.6,15.15,426.75781,53.22266,801.75781,0.2527397327178972,0.2376845225901941,0.4917564651261387,47.1,5.7,99.45,-616.21094,73.24219,739.25781,-0.4740368353623411,0.2819172744881125,0.2402159481372867,56.7,22.65,35.55
-1063.96484,-178.22266,-439.94141,-0.4996170790112708,-0.5025481849570701,-0.3956966846890244,-4.65,23.1,17.25,454.10156,60.05859,769.04297,0.2599341544275431,0.1569464640575625,0.3754456293781342,48.0,4.5,97.5,-599.60937,50.78125,692.87109,-0.5792894395026348,0.3052327788996543,0.2215636144212233,55.35,24.6,36.3
-1009.76562,-187.98828,-397.46094,-0.4789663433016738,-0.5000169339429027,-0.3468009366285529,-3.0,24.6,16.5,448.24219,-3.90625,736.32812,0.2049096826986934,0.1169770279234907,0.428871379512157,48.0,4.5,97.5,-629.88281,-9.76562,678.22266,-0.6455053114611223,0.1970490688135614,0.2386172265424599,55.35,24.6,36.3
-970.21484,-168.94531,-361.81641,-0.4027581123096682,-0.4934885298758178,-0.2343537362456882,-3.3,24.15,15.75,425.29297,4.88281,696.77734,0.3434701502840469,0.1330979360924615,0.4230091676205585,46.65,4.95,98.85,-645.01953,-25.87891,694.82422,-0.8027182872954645,0.0422343499043847,0.214768698577359,54.75,22.95,34.35
-954.58984,-168.45703,-327.63672,-0.3798422882968331,-0.4282051873366708,-0.0788728251610253,-2.1,23.7,17.4,440.91797,-10.74219,700.68359,0.3338774716492356,0.2594013054069092,0.3813078412697328,46.65,4.2,99.9,-651.85547,-36.13281,736.32812,-0.7644809159110718,-0.2262266105837766,0.3040337377035342,54.75,22.95,34.35
-938.47656,-183.10547,-300.29297,-0.32908113233183,-0.3081638848454536,-0.0119907610270514,-2.55,22.65,15.15,402.83203,-20.50781,776.36719,0.3579923368581909,0.2570030484817438,0.3422711090879268,46.8,5.25,99.0,-628.41797,-70.3125,781.25,-0.6577625842649533,-0.2976385022583765,0.2900444001500241,54.75,24.0,36.9
-915.03906,-173.82812,-283.69141,-0.2959066120416226,-0.2639311329475353,0.1011224569983742,-4.35,25.65,15.75,404.78516,-4.39453,834.96094,0.4002266867625757,0.2628652603733424,0.2705927056365472,46.8,5.25,99.0,-656.25,-32.22656,760.25391,-0.6024716007593243,-0.1191087730718766,0.3586585290336772,54.6,24.9,36.6
-881.83594,-164.55078,-298.82812,-0.2824502980416715,-0.1665389681594485,0.2396829245837277,-2.25,24.9,17.25,401.36719,0.48828,833.98437,0.4563170310656183,0.2440795835024266,0.2929755060958233,47.7,6.15,98.4,-753.90625,-8.30078,752.44141,-0.6336477190559981,-0.1193751103157309,0.327349242115076,55.35,23.4,36.3
-925.78125,-111.81641,-313.47656,-0.2765880861500729,0.0266462907560478,0.327349242115076,-2.25,24.9,17.25,434.08203,64.94141,952.14844,0.4214104460257317,0.2480765620224188,0.2093063416173923,46.8,6.3,98.25,-759.27734,-8.78906,794.43359,-0.5649004215504179,-0.1841256038342442,0.3104287986157666,55.5,23.25,36.9
-1007.32422,-108.88672,-345.70312,-0.1982481100096814,0.0919296332951949,0.389834647330351,-2.25,24.9,17.25,482.91016,82.03125,982.91016,0.4292710599108637,0.315624818331879,0.2038438101245005,46.8,6.3,98.25,-739.74609,5.85937,830.07812,-0.5690305686923374,-0.3354761932440624,0.3045665867241681,55.5,23.25,36.9
-1060.54688,-117.1875,-336.91406,-0.1882557509761635,0.0788728251610253,0.4872266375855126,-4.5,23.25,16.05,490.72266,93.26172,1127.92969,0.3246844734131311,0.2916431217448508,0.2552709837320646,47.7,4.95,100.2,-662.10937,42.96875,822.75391,-0.5301271796653837,-0.1207074946667034,0.3246844734131311,54.6,25.65,36.0
-1038.57422,-80.56641,-316.89453,-0.1417580853079322,0.052493046181757,0.5379877935505157,-3.45,24.3,16.35,451.17187,189.94141,949.70703,0.4740368353623411,0.1061853080925594,0.2126371279618983,47.4,6.9,97.65,-632.32422,62.98828,794.43359,-0.5550414056717523,0.1797289449155452,0.2648636623668758,55.5,24.0,36.45
-996.09375,-7.8125,-332.03125,-0.1610766111994818,0.027312482931534,0.5531761723001459,-3.15,26.55,17.1,414.55078,109.375,891.60156,0.4016922397354753,-0.0740764858436197,0.2531394131166039,47.25,7.5,99.0,-670.41016,20.99609,767.57812,-0.5730275472123294,0.2820506176429648,0.2090398298406128,55.5,24.0,36.45
-949.70703,12.69531,-296.875,-0.20917299846254,0.1127137121596442,0.5374547699969566,-4.2,25.5,16.65,459.96094,63.96484,882.32422,0.3954303474451701,-0.0728774446474996,0.1782633919426456,47.25,7.5,99.0,-646.48437,-18.06641,690.42969,-0.46564319792365,0.1989143021851677,0.2195650378947646,54.75,24.0,37.5
-895.99609,29.78516,-281.25,-0.2066415729154474,0.1775971997671594,0.4784333197481148,-3.6,26.4,17.25,478.51562,205.56641,859.375,0.605669218481903,-0.0463644970463041,0.0996569040254746,46.35,7.65,99.15,-650.87891,-63.96484,706.05469,-0.4516538603701397,0.2817841058661853,0.2022450885296737,54.3,24.6,37.35
-873.04687,38.08594,-284.17969,-0.20411032190128,0.2070414278470793,0.5233322638215193,-4.05,26.4,15.45,455.56641,66.89453,933.10547,0.3635880369730099,0.0963261176809686,0.1561469287272238,48.3,7.05,97.5,-666.01562,-43.94531,808.10547,-0.5900811593335661,0.2752557017991005,0.1453552088962925,55.35,23.85,37.05
-862.30469,54.6875,-315.42969,-0.2351530970431016,0.2611331956236632,0.4484564171804862,-4.65,25.65,16.8,501.46484,167.48047,886.23047,0.3280152597576371,0.0967257980796753,0.2027779375503076,48.3,7.05,97.5,-643.06641,-29.29688,792.48047,-0.6008728791644975,0.341338405135661,0.1380276185647195,56.4,24.15,37.35
-886.71875,55.17578,-339.35547,-0.193584939314203,0.3035007141499751,0.403157792708375,-3.75,27.3,17.4,477.05078,112.79297,906.73828,0.1386936362072806,0.2001133433812878,0.2069080846922269,47.55,7.05,97.95,-653.80859,44.92188,783.20312,-0.6028712811580309,0.2134364887593117,0.0996569040254746,57.0,24.75,36.9
