IMU1_AccX,IMU1_AccY,IMU1_AccZ,IMU1_GyrX,IMU1_GyrY,IMU1_GyrZ,IMU1_MagX,IMU1_MagY,IMU1_MagZ,IMU2_AccX,IMU2_AccY,IMU2_AccZ,IMU2_GyrX,IMU2_GyrY,IMU2_GyrZ,IMU2_MagX,IMU2_MagY,IMU2_MagZ,IMU3_AccX,IMU3_AccY,IMU3_AccZ,IMU3_GyrX,IMU3_GyrY,IMU3_GyrZ,IMU3_MagX,IMU3_MagY,IMU3_MagZ
-852.53906,166.50391,541.01562,-0.1364287224369675,-0.1033873707686873,-0.0098591904115907,10.2,32.55,60.3,-159.17969,74.21875,1013.18359,0.0911300979648563,0.071944915228159,-0.1049862668964393,73.05,12.6,87.45,-942.38281,68.84766,413.08594,0.2047763395438411,0.022382800459276,-0.0139893375535101,61.35,21.6,12.0
-868.65234,185.54687,537.10937,-0.1528161423827179,-0.0756753819713717,0.0094593354799588,12.3,31.05,60.75,-145.50781,62.5,1036.62109,0.0664823837352672,-0.0225161436141284,-0.1986477904083882,73.05,12.6,87.45,-924.31641,46.38672,444.82422,0.2668622388933346,-0.0073277648644981,0.0127901218244648,61.65,21.45,13.65
-848.63281,165.52734,558.59375,-0.1644073975439878,-0.0888651841945432,-0.0086599746825454,11.85,32.4,59.4,-140.625,69.33594,1026.36719,0.122173047639603,-0.0660827033365605,-0.2173001241244516,71.55,13.35,85.65,-927.73437,40.03906,441.40625,0.3015023121564416,-0.0298437339457014,0.0504946441882235,59.25,21.6,13.05
-840.33203,150.39062,565.42969,-0.0820704428836041,-0.0952604196397009,-0.0387702204050264,11.85,32.4,59.4,-129.88281,63.47656,1006.34766,0.1490856756395052,0.0051960197161123,-0.2416815011101863,72.0,11.85,87.0,-922.36328,53.71094,452.63672,0.3260168577641036,-0.0189188454928429,0.0125237845806105,60.15,20.7,13.95
-834.96094,139.64844,561.52344,-0.0738101485997654,-0.0098591904115907,-0.0711455544307456,11.25,31.8,60.75,-130.37109,76.17188,1017.57812,0.1481531462201646,-0.0107917198309313,-0.2226293124624911,72.0,11.85,87.0,-915.52734,58.59375,445.80078,0.3869035413845518,-0.0848683802074762,0.0289112045263608,60.15,20.7,13.95
-825.68359,150.39062,573.73047,-0.0941945470655079,-0.0365053066347134,-0.1125803690047918,12.3,31.35,59.25,-125.0,99.12109,1010.74219,0.2191653574960579,-0.016787100344457,-0.2500749640159523,72.3,12.6,87.45,-919.43359,51.26953,414.55078,0.3482664896014525,-0.041834669505678,0.0305099261211876,60.15,21.0,10.5
-820.3125,128.90625,574.70703,-0.0908637607210019,-0.0747426780191059,-0.0858009096268168,10.35,32.7,60.9,-122.07031,99.12109,1008.30078,0.11990813386929,-0.0086599746825454,-0.2567365367049642,72.45,12.75,87.9,-909.66797,41.99219,422.85156,0.3269493871834442,-0.0142556747973644,0.0307764378979672,60.15,21.0,10.5
-823.24219,129.88281,563.47656,-0.0243813769857347,-0.0271791397766816,-0.0706125308771865,11.4,31.2,61.95,-132.8125,104.98047,999.51172,0.1144456023763981,0.0087933178373978,-0.2655298545423621,72.9,13.2,87.15,-923.33984,48.82813,424.31641,0.3284149401563438,-0.0166539317225298,-0.0149218669728507,60.75,21.6,12.45
-835.9375,133.30078,571.28906,-0.0563568560798221,0.0522267089379027,-0.1060521394706322,11.4,31.2,61.95,-128.41797,99.12109,991.21094,0.1125803690047918,0.0054625314928918,-0.2567365367049642,72.9,13.2,87.15,-904.78516,65.91797,434.08203,0.2917764648997032,-0.0720780838500862,0.0383705400063197,60.6,20.7,14.4
-845.21484,113.28125,572.26562,-0.0050628510941851,-0.0433002224785777,-0.0448989440734045,11.4,31.2,61.95,-129.39453,104.00391,982.91016,0.0900643999235885,-0.0035972981212855,-0.2351530970431016,72.6,12.15,87.0,-922.36328,48.82813,445.80078,0.2919096335216304,-0.0242480338308824,0.0039969785199922,60.3,19.8,12.0
-840.33203,111.81641,556.64062,-0.0357059458372999,-0.0488959225933967,-0.1144456023763981,11.4,30.15,61.2,-131.83594,104.49219,1000.0,0.0707458740320389,-0.0343737360192527,-0.2671285761371889,70.65,12.75,87.6,-902.83203,62.01172,400.87891,0.2556708386636965,-0.041834669505678,0.0210505906412288,60.15,21.45,12.6
-846.67969,105.95703,563.47656,-0.0482297304179105,0.0548913031069224,-0.1115144964305989,11.85,32.4,60.45,-141.60156,107.42188,993.65234,0.0887320155726161,-0.0814042507081179,-0.2555374955088442,72.0,11.85,86.7,-908.69141,68.84766,420.41016,0.2374180108134146,-0.0599539796681824,-0.0415681577288985,60.15,21.0,11.55
-876.46484,107.91016,562.98828,0.034640073263107,-0.0374380105869791,-0.0748760211739583,11.4,30.15,61.2,-129.88281,125.48828,974.12109,0.0211837592631559,-0.0514271736075641,-0.2534057503604583,71.7,12.0,87.15,-900.39062,105.95703,432.61719,0.2202312300702509,-0.0155880591483369,0.0115910806283447,60.0,20.85,13.05
-886.71875,118.16406,552.24609,0.007860613885132,-0.0098591904115907,-0.0937948666668012,12.6,31.35,61.05,-143.06641,147.46094,991.21094,0.0238483534321757,-0.0331745202902074,-0.227558994934749,72.3,11.85,87.45,-928.22266,109.86328,425.78125,0.2063752356715931,-0.0562235129249697,-0.014522186574144,60.0,20.85,13.05
-894.53125,129.88281,556.64062,-0.0207840788644492,0.0271791397766816,-0.1839922606793918,12.6,31.35,61.05,-132.32422,155.76172,987.30469,-0.0029311059457992,-0.0311761182966739,-0.2208974222457371,71.7,12.75,87.6,-914.55078,89.84375,446.28906,0.1923858981180829,-0.0349065850398865,-0.0018652333716063,60.3,19.05,12.45
-895.50781,100.09766,578.61328,-0.0010658725741929,-0.0403691165327784,-0.0844685252758443,12.15,30.45,61.95,-137.69531,170.41016,1017.57812,-0.0194516945134768,-0.0206509102425221,-0.2009127041787012,71.7,12.75,87.6,-937.01172,108.88672,458.49609,0.2660628780959211,-0.0099923590335179,-0.0318423104721601,60.3,19.05,12.45
-856.93359,85.9375,579.58984,0.0122572728038309,-0.0810045703094112,-0.064750318985588,10.95,31.8,60.3,-134.27734,152.83203,1045.89844,0.0161209081689708,-0.0299770771005538,-0.2204977418470304,71.7,12.75,87.6,-938.47656,104.98047,440.42969,0.1961163648612956,-0.0126569532025376,-0.0443659205198454,60.3,19.05,12.45
-808.10547,84.47266,576.17187,-0.0371714988101996,-0.0195850376683291,-0.0555574952824086,12.9,30.15,60.9,-125.0,126.46484,1045.89844,-0.0230489926347623,-0.0103920394322246,-0.2061087238948135,73.5,12.0,88.65,-940.91797,89.84375,461.91406,0.1815941782871516,-0.016787100344457,-0.0433002224785777,60.15,20.25,12.9
-818.35937,81.05469,570.80078,0.0274456515534612,0.0622190679714206,-0.0041301471419193,12.0,30.3,62.4,-131.34766,111.81641,1044.43359,0.0030642745677264,-0.0888651841945432,-0.2047763395438411,72.45,13.2,87.6,-938.96484,96.67969,458.98437,0.1915865373206695,-0.0726111074036452,-0.0423675185263119,60.3,21.15,11.7
-809.57031,77.14844,554.6875,0.0462311538914518,0.0887320155726161,-0.0674150876875329,12.0,30.3,62.4,-127.44141,112.30469,1046.875,0.0347734164179594,-0.0551578148837019,-0.2426140305295269,71.55,12.6,87.75,-936.03516,90.82031,432.12891,0.1751991173749191,-0.0768744231674918,-0.0278453319521679,59.25,20.55,12.75
-844.23828,67.87109,545.89844,0.0291777163031404,0.1316323831195619,-0.1001899275790336,11.85,30.9,59.1,-138.18359,115.23438,1021.48437,0.0433002224785777,-0.1081837100860929,-0.2288912047527963,71.55,12.6,87.75,-945.80078,99.60938,454.58984,0.1953170040638822,-0.1272358987337882,-0.0939280352887284,61.2,19.95,12.9
-839.35547,61.03516,551.26953,0.0510274932088574,0.0838025076332833,-0.1048529237415869,11.55,30.6,60.3,-125.48828,150.87891,1017.57812,0.0170536121212365,-0.0983246942074273,-0.200779535556774,73.95,10.5,86.85,-941.89453,110.83984,467.77344,0.1493521874162847,-0.0901975685455157,-0.0652833425391471,59.85,21.45,12.6
-853.02734,47.85156,539.55078,0.0850015488294034,0.1346968322202135,-0.0082602942838387,12.3,31.35,60.0,-118.16406,130.37109,1033.20313,0.0097258472567384,-0.1012558001532266,-0.1682710329091277,71.4,12.0,87.6,-942.38281,114.74609,450.19531,0.184658452854878,-0.0146553551960711,-0.080871401687484,61.05,20.55,12.75
-857.42187,71.77734,543.94531,0.0245145456076619,0.1656064387401079,-0.1025880099712739,12.3,31.35,60.3,-105.46875,131.83594,1038.57422,0.0093261668580317,-0.0972588216332344,-0.2230291673941229,71.4,12.0,87.6,-926.75781,107.42188,434.08203,0.1541485267336904,-0.059687642424328,-0.1036538825454668,61.05,20.55,12.75
-855.46875,73.24219,516.60156,0.0110582316077108,0.1333644478692411,-0.0299770771005538,12.3,31.35,60.3,-125.48828,115.23438,1026.36719,-0.0147886983509235,-0.103787051167394,-0.2057090434961068,72.3,12.9,88.05,-922.85156,114.74609,462.40234,0.2296907400831349,-0.0599539796681824,-0.089797888146809,60.15,20.7,12.9
-882.8125,80.56641,535.15625,0.0664823837352672,0.1208406632886305,-0.0050628510941851,12.3,30.6,60.0,-94.23828,127.44141,1026.85547,-0.0090596550812521,-0.1361623851931132,-0.1601439072472161,73.05,11.4,85.95,-896.48437,116.21094,476.5625,0.1906538333684037,-0.0728774446474996,-0.0928621627145355,60.15,20.7,12.9
-872.07031,84.47266,541.50391,-0.0119907610270514,0.0480965617959833,0.0358392889921523,12.6,31.05,60.0,-97.16797,106.93359,1018.06641,0.0109248884528585,-0.1123138572280122,-0.2246278889889497,72.3,12.15,87.0,-897.94922,131.34766,471.19141,0.2145023613335047,-0.0599539796681824,-0.0544916227082157,61.05,20.55,11.7
-838.37891,68.84766,543.45703,-0.0456983048708179,0.0409019655534123,0.0179861415405771,11.4,30.45,60.9,-89.84375,111.32813,1053.22266,0.0514271736075641,-0.1329647674705344,-0.1657396073620351,72.3,12.15,87.0,-887.69531,114.25781,447.26562,0.1541485267336904,-0.1148452827751048,-0.0754088701945922,59.4,20.7,12.3
-836.42578,58.59375,557.12891,0.016787100344457,0.0447657754514773,0.0455651362488907,11.55,30.6,60.0,-83.00781,119.14063,976.07422,0.04849624219469,-0.1338974714228001,-0.150018379591771,72.45,11.55,87.6,-884.76562,118.65234,467.28516,0.0943277156874351,-0.0664823837352672,-0.0604870032217414,60.6,17.7,12.3
-833.98437,73.24219,554.6875,-0.1007227765996675,0.0197182062902563,0.0231821612566894,11.55,30.6,60.0,-72.26563,137.69531,962.40234,0.0193185258915496,-0.1191087730718766,-0.1658729505168874,72.3,9.6,86.25,-862.30469,131.83594,455.07812,0.1128468807815713,-0.0370383301882724,-0.1115144964305989,59.4,18.75,12.9
-801.26953,81.05469,544.43359,-0.0455651362488907,-0.0221164632154217,0.0490290912153239,11.85,30.45,60.45,-62.5,144.04297,983.39844,0.0090596550812521,-0.1155114749505911,-0.1882557509761635,71.25,12.9,87.0,-869.14062,114.25781,467.28516,0.0579555776746489,-0.0660827033365605,-0.1185757495183175,61.95,20.7,13.35
-760.25391,85.9375,545.89844,-0.0627519169920545,-0.0262466103573411,0.1041869060990259,12.3,30.6,60.0,-56.15234,161.13281,997.55859,-0.0074609334864253,-0.1185757495183175,-0.1923858981180829,72.3,11.4,88.5,-880.85937,125.0,460.9375,0.0520933657830503,0.0007993607974134,-0.0602204914449619,61.65,21.0,13.35
-766.60156,80.56641,572.75391,-0.0983246942074273,0.1560137601052967,0.040235773377926,12.0,31.35,60.0,-80.56641,206.54297,1001.95312,-0.0738101485997654,-0.116577347524784,-0.1652067583414012,72.45,11.25,87.6,-873.53516,120.11719,466.30859,0.0659495347146333,-0.0367718184114929,-0.0472970264656447,61.65,21.0,13.35
-803.22266,85.44922,581.05469,-0.0960597804371143,0.0907304175661496,0.0442327518979182,12.0,31.05,60.75,-52.24609,151.85547,969.72656,-0.0456983048708179,-0.1440229990782452,-0.1193751103157309,72.3,12.15,85.65,-861.32812,103.02734,431.64062,0.0293108849250675,-0.0053291883380394,-0.1272358987337882,59.1,19.5,12.9
-810.05859,68.35938,574.21875,-0.0479632186411309,0.0714118916745999,0.0656830229378538,12.0,31.05,60.75,-84.96094,145.50781,964.84375,-0.069680001457846,-0.1390934911389125,-0.1577458248549758,72.3,12.15,85.65,-869.14062,111.81641,466.79687,0.0655498543159266,-0.0510274932088574,-0.1350965126189202,59.1,19.5,12.9
-840.33203,44.92188,581.05469,-0.0137228257767306,0.113246561180278,0.0824701232823108,12.6,31.05,60.75,-69.82422,114.25781,975.09766,-0.1084502218628724,-0.0460979852695246,-0.1680045211323481,71.4,12.0,86.85,-861.81641,101.5625,486.32812,0.068614128883653,-0.0233155044115418,-0.1195084534705833,60.3,20.1,13.5
-844.23828,52.73438,572.75391,-0.0403691165327784,0.0683476171068735,0.0459648166475974,10.65,31.2,59.4,-70.3125,109.375,999.02344,-0.091529778363563,-0.0500949637895168,-0.0594211306475485,71.25,10.35,88.5,-892.57812,82.51953,443.84766,-0.0161209081689708,0.0093261668580317,-0.1231057515918688,60.9,20.25,13.65
-827.14844,70.3125,558.59375,0.0221164632154217,0.0612863640191548,0.068614128883653,11.4,31.65,60.45,-89.84375,90.33203,1006.34766,-0.095393588261628,-0.0612863640191548,-0.06634921511334,71.25,9.9,87.45,-897.94922,85.44922,476.5625,0.0646171503636608,-0.0211837592631559,-0.116577347524784,60.75,20.1,12.75
-824.70703,58.59375,565.91797,-0.0085268060606182,0.1012558001532266,0.0283781809728018,10.2,31.8,59.25,-93.26172,92.28516,980.95703,-0.1341638086666545,-0.0738101485997654,-0.0710122112758932,71.25,9.9,87.45,-888.67187,76.17188,454.58984,-0.004529827540626,-0.0303767574992605,-0.1264363634034496,61.65,19.95,12.9
-825.19531,79.58984,572.26562,-0.0357059458372999,0.1342971518215068,0.04849624219469,10.2,31.8,59.25,-92.28516,96.67969,1002.92969,-0.105385947295146,-0.0815375938629702,-0.114312433754471,72.3,9.6,87.75,-887.69531,80.56641,447.26562,0.0166539317225298,-0.089797888146809,-0.1236386006125027,61.65,19.95,12.9
-819.33594,82.03125,569.82422,-0.0142556747973644,0.0943277156874351,0.1532159973143498,12.3,31.05,60.0,-74.21875,113.28125,991.21094,-0.1012558001532266,-0.1573461444562691,-0.0551578148837019,72.15,9.3,87.15,-875.97656,74.70703,487.30469,0.0382373713843925,-0.0779402957416847,-0.1233720888357231,61.05,19.05,13.05
-831.05469,95.70313,567.87109,0.0057288687367461,0.0871332939777893,0.1117810082073784,11.4,30.9,59.4,-77.63672,114.74609,967.28516,-0.1128468807815713,-0.1157779867273706,-0.1001899275790336,72.15,9.3,87.15,-877.44141,87.89063,437.01172,-0.0519601971611231,-0.0756753819713717,-0.1815941782871516,60.75,17.85,13.8
-862.30469,101.5625,551.26953,-0.0900643999235885,0.1216401986189692,0.050228132411444,11.55,32.85,60.0,-65.91797,102.05078,984.86328,-0.1137794102009119,-0.0879326547752027,-0.0904640803222952,70.65,9.0,87.9,-883.78906,66.40625,434.57031,-0.0764747427687851,-0.0450321126953316,-0.1646737347878422,60.75,17.85,13.8
-834.47266,101.5625,545.41016,-0.0074609334864253,0.1087167336396519,0.1536156777130565,11.55,32.85,60.0,-92.77344,95.21484,971.19141,-0.1449555284975858,-0.0495619402359577,-0.0583552580733556,71.25,10.35,88.05,-874.02344,69.33594,456.54297,-0.0936615235119489,-0.0616860444178615,-0.1863905176045572,60.15,18.45,13.95
-855.95703,90.33203,534.66797,0.0010658725741929,0.1127137121596442,0.1430902951259795,10.95,31.8,59.7,-80.56641,99.60938,983.39844,-0.1827932194832717,-0.0446324322966249,-0.0403691165327784,72.3,10.65,88.05,-881.34766,82.03125,424.80469,-0.1031210335248329,-0.0342403928644003,-0.2150352103541385,61.8,19.35,12.75
-849.12109,91.30859,523.92578,-0.0616860444178615,0.1189754299170242,0.1017886491738605,11.1,31.95,59.85,-90.82031,91.30859,1004.88281,-0.1787964154962047,-0.1251041535854023,-0.037970859607613,72.3,10.65,88.05,-888.18359,94.72656,442.38281,-0.0927289940926083,-0.0796723604913639,-0.1422909343285661,59.7,19.35,13.05
-841.30859,76.66016,515.625,-0.0443659205198454,0.1247044731866956,0.1108484787880378,11.55,32.55,60.75,-90.82031,87.89063,991.69922,-0.1394931715376192,-0.0762082309920056,-0.0383705400063197,71.25,8.85,87.75,-879.88281,96.67969,424.80469,-0.058088746296576,-0.0530260697353161,-0.0988575432280612,60.9,20.7,14.7
-844.72656,100.58594,509.76562,-0.0338407124656936,0.1448223598756587,0.0968591412345277,10.35,31.65,59.4,-79.58984,96.19141,992.67578,-0.1472204422678988,-0.0142556747973644,-0.0382373713843925,71.4,11.25,88.35,-893.55469,96.19141,402.34375,-0.1159111553492978,-0.0559571756811154,-0.1454885520511449,58.8,17.7,13.65
-871.58203,95.21484,507.32422,-0.0626187483701273,0.1696034172601001,0.1356293616395541,10.35,31.65,59.4,-92.77344,94.23828,983.88672,-0.164540566165915,-0.0351730968166661,0.0002665117767795,70.35,11.25,87.9,-886.23047,95.21484,456.05469,-0.0779402957416847,-0.0538254305327295,-0.1005896079777403,60.75,19.35,13.05
-875.48828,100.09766,500.97656,-0.0548913031069224,0.0824701232823108,0.1340306400447273,10.35,31.65,59.4,-104.00391,83.49609,1005.37109,-0.1594777150717298,-0.0806048899107045,0.0237151848102485,70.35,11.25,87.9,-894.04297,83.00781,437.98828,-0.0690138092823597,0.0017320647496791,-0.1356293616395541,60.75,19.35,13.05
-869.14062,104.00391,501.95312,-0.0138559943986577,0.0359724576140795,0.0407687969314851,11.55,32.1,60.0,-113.76953,61.52344,1032.71484,-0.1513507639427435,-0.0225161436141284,0.040235773377926,70.8,9.9,88.05,-916.99219,69.33594,420.41016,-0.0619525561946411,0.1004564393558132,-0.110981647409965,60.9,18.75,13.65
-868.65234,93.26172,504.88281,-0.0615528757959344,0.1065849884912661,0.0153215473715574,10.2,32.1,59.25,-94.23828,56.64063,1040.52734,-0.1092495826602858,-0.0065284040670847,0.0170536121212365,71.7,10.5,87.15,-903.32031,85.9375,435.05859,-0.1021883295725672,0.0655498543159266,-0.1096492630589925,60.9,18.75,13.65
-902.83203,92.77344,494.62891,-0.0818039311068246,0.1219065358628235,-0.0033307863445059,11.85,31.2,59.1,-113.76953,53.22266,1025.87891,-0.1151117945518844,-0.0139893375535101,0.015055210127703,70.8,9.6,88.5,-940.42969,63.96484,407.22656,-0.1105819670112583,0.03064326927604,-0.1272358987337882,61.05,18.6,13.8
-921.38672,88.37891,499.02344,-0.0339738810876208,0.0795390173365115,0.0440995832759911,10.95,32.1,59.7,-116.21094,83.98438,1014.16016,-0.1167105161467112,0.0119907610270514,-0.0229158240128351,70.8,9.6,88.5,-937.5,75.68359,421.875,-0.1127137121596442,0.0322419908708668,-0.0726111074036452,60.6,20.25,13.35
-941.89453,82.51953,496.58203,-0.0365053066347134,0.0486294108166172,-0.0374380105869791,10.95,32.1,59.7,-120.11719,90.82031,1014.64844,-0.1536156777130565,0.0262466103573411,0.0616860444178615,71.1,9.3,88.35,-941.89453,80.07813,405.76172,-0.1121806886060851,0.0199847180670358,-0.0626187483701273,59.4,18.45,14.7
-942.87109,98.63281,498.04687,0.0013323843509724,-0.0130566336012443,-0.0229158240128351,10.95,31.05,58.95,-138.18359,87.89063,1027.34375,-0.1100489434576992,0.0483628990398376,0.0102588708102974,72.3,10.65,87.45,-939.45312,69.33594,403.80859,-0.1493521874162847,0.0099923590335179,-0.0311761182966739,62.7,18.0,13.65
-944.33594,77.63672,501.46484,-0.0091929982361045,-0.0520933657830503,-0.1060521394706322,10.95,31.8,59.25,-137.20703,108.88672,999.02344,-0.1007227765996675,0.0619525561946411,0.0610198522423753,72.45,8.25,88.95,-948.24219,78.125,427.73437,-0.1484196579969441,-0.0345069046411798,-0.0996569040254746,61.95,18.45,13.35
-933.10547,87.40234,512.20703,-0.0325085026476463,-0.0334410320669869,-0.0654165111610742,12.3,31.35,59.25,-139.64844,72.75391,1017.08984,-0.1192419416938038,0.1169770279234907,0.1033873707686873,72.45,8.25,88.95,-947.26562,54.6875,440.42969,-0.182926562638124,0.0110582316077108,-0.1285681085518354,60.6,19.2,15.0
-916.50391,69.82422,507.8125,-0.0787396565390981,-0.018385996472209,-0.0957932686603347,11.25,31.8,59.25,-141.60156,73.24219,1031.25,-0.1225727280383097,0.051827028539196,0.1394931715376192,72.3,9.6,87.75,-958.00781,20.99609,434.08203,-0.1979815982329019,0.0459648166475974,-0.1067181571131932,60.6,19.2,15.0
-923.82812,65.42969,511.23047,0.0350397536618137,-0.0495619402359577,-0.0462311538914518,11.25,31.8,59.25,-142.08984,55.66406,1038.57422,-0.1574793130781963,0.0860674214035963,0.128834620328615,71.25,8.4,88.05,-952.14844,41.50391,455.56641,-0.182393539084565,-0.005595700114819,-0.1338974714228001,60.75,18.3,12.75
-907.22656,44.92188,514.64844,-0.0131899767560967,-0.0623522365933478,-0.1169770279234907,9.6,31.65,59.1,-150.87891,30.27344,1044.43359,-0.0883323351739094,0.0776737839649052,0.1774640311452322,71.25,8.4,88.05,-958.00781,17.57813,456.54297,-0.1939846197129097,-0.079272505559732,-0.1068515002680456,60.75,18.3,12.75
-900.39062,39.0625,510.74219,-0.0034639549664331,-0.0149218669728507,-0.1128468807815713,11.55,32.55,59.25,-139.16016,32.22656,1054.6875,-0.1297671497479555,0.0253139064050753,0.1279019163763492,72.15,9.3,88.35,-954.58984,25.87891,490.23437,-0.2075742768677131,-0.1159111553492978,-0.0790061683158777,62.1,19.35,13.5
-894.53125,23.92578,531.25,0.0267794593779749,-0.0153215473715574,-0.0174532925199432,11.4,32.7,58.35,-152.34375,39.55078,1057.61719,-0.0758085505932989,-0.0355727772153728,0.1628085014162358,71.25,9.15,87.45,-954.10156,12.69531,472.16797,-0.1955835158406617,-0.1181760691196108,-0.0828698036810175,60.9,17.7,13.95
-887.20703,31.25,533.69141,0.0179861415405771,0.0325085026476463,-0.0905972489442224,12.0,31.8,59.25,-145.50781,59.57031,1043.45703,-0.1156446435725182,-0.068081105330094,0.1598775700033617,70.65,8.25,87.9,-960.44922,31.73828,471.19141,-0.1628085014162358,-0.1941179628677621,-0.0708790426539661,61.65,17.7,14.7
-892.08984,30.76172,520.01953,0.0656830229378538,0.0720780838500862,-0.0446324322966249,12.0,31.8,59.25,-121.09375,44.92188,1019.04297,-0.1306998537002213,-0.1033873707686873,0.179062752740059,70.65,8.25,87.9,-937.01172,29.29688,477.05078,-0.2192987006509103,-0.1787964154962047,-0.0832694840797242,61.65,17.7,14.7
-888.67187,35.64453,523.4375,0.1077840296873862,0.0310429496747467,0.0031976177225788,11.25,31.35,59.25,-119.14063,45.41016,1043.45703,-0.1357627047944065,-0.1211071750654101,0.170136266280734,70.5,10.65,88.5,-937.98828,39.0625,500.48828,-0.228624867508942,-0.1994471512058016,-0.0643506385868813,61.65,17.7,13.95
-859.375,37.10938,533.69141,0.0486294108166172,0.0810045703094112,-0.0291777163031404,11.55,31.35,58.95,-95.70313,52.24609,1023.4375,-0.1204409828899239,-0.1755987977736259,0.2300904204818416,72.15,10.8,87.9,-903.80859,51.75781,497.55859,-0.2443460952792061,-0.1822603704626378,-0.0751423584178126,60.3,17.85,13.8
-844.72656,28.32031,534.66797,0.0185191650941362,0.040235773377926,0.0135896571548034,10.65,30.9,58.35,-74.70703,63.96484,1018.06641,-0.0743429976203992,-0.1694700741052478,0.229290885151503,71.1,10.5,87.9,-880.37109,74.21875,497.55859,-0.1894547921722836,-0.2432802227050131,-0.1035207139235396,60.6,18.0,14.4
-814.94141,21.48438,533.69141,0.125503833984109,0.0790061683158777,0.1385604675853534,12.15,31.2,58.35,-68.35938,65.91797,994.62891,-0.0579555776746489,-0.202511425773528,0.2037106415025733,69.9,9.75,88.35,-869.62891,78.125,472.16797,-0.1847917960097304,-0.2446126070559856,-0.0744763407752516,60.6,18.0,14.4
-837.40234,25.39063,522.46094,0.0904640803222952,0.1822603704626378,0.0969923098564548,12.15,31.2,58.35,-63.96484,75.68359,1005.85937,-0.0301102457224809,-0.1629418445710882,0.212503784807046,71.7,10.5,89.7,-864.74609,80.07813,466.30859,-0.2045100022999867,-0.2515405169888519,-0.089797888146809,60.75,19.05,14.85
-889.16016,52.73438,507.8125,0.0790061683158777,0.1766646703478188,0.0458314734927451,10.65,31.95,58.8,-57.12891,81.54297,975.09766,-0.0383705400063197,-0.15561407970659,0.2332878636714952,71.4,10.05,88.35,-854.00391,75.68359,493.16406,-0.2647304937449487,-0.2390169069411666,-0.0387702204050264,60.75,19.05,14.85
-888.18359,89.35547,496.09375,0.1023216727274195,0.1297671497479555,0.0623522365933478,11.4,32.7,59.4,-56.15234,112.30469,977.53906,-0.0495619402359577,-0.2053093630974001,0.2781868077448998,71.4,10.05,88.35,-869.14062,62.98828,492.67578,-0.3049662671228748,-0.1923858981180829,-0.0436999028772844,60.3,18.3,14.55
-889.16016,80.07813,502.92969,0.051827028539196,0.0483628990398376,-0.0218499514386422,12.3,31.35,59.25,-77.14844,120.60547,987.79297,-0.0800720408900706,-0.1817273469090787,0.2968391414609632,70.65,9.3,89.4,-844.23828,67.87109,497.07031,-0.2980383571900085,-0.2199647182934713,-0.058088746296576,60.75,18.6,14.85
-880.37109,78.61328,513.18359,0.0311761182966739,0.0608866836204481,0.0079939570399844,10.35,31.95,60.15,-50.29297,119.62891,992.1875,-0.1021883295725672,-0.1225727280383097,0.2859142530081047,70.5,9.9,87.75,-875.97656,85.44922,499.51172,-0.3160244987305857,-0.1817273469090787,-0.0862005900255235,61.95,17.4,15.45
-883.30078,73.24219,520.01953,0.0664823837352672,0.0282450123508746,0.0787396565390981,10.35,31.95,60.15,-54.6875,94.72656,1003.90625,-0.1557472483285172,-0.1380276185647195,0.3599907388517244,70.2,9.6,89.1,-877.92969,64.45313,471.67969,-0.3444026797033874,-0.1637412053685016,-0.0971256530113072,61.2,18.0,14.7
-875.97656,80.07813,503.41797,0.0500949637895168,0.0229158240128351,0.1052526041402936,10.95,32.55,58.65,-54.19922,64.45313,1019.53125,-0.1096492630589925,-0.1000565844241813,0.3789095843445673,69.9,9.75,88.35,-866.21094,67.38281,465.82031,-0.3229525831963771,-0.2129034652057527,-0.0053291883380394,60.75,17.1,15.6
-875.97656,58.10547,520.50781,0.0250473946282958,-0.0123904414257581,-0.0303767574992605,11.4,31.2,58.35,-58.10547,46.38672,999.02344,-0.069680001457846,-0.1291011321053945,0.4256737617895781,69.9,8.55,89.7,-878.41797,64.94141,479.00391,-0.349199019020793,-0.1993139825838744,-0.0375711792089063,62.25,16.65,14.7
-865.72266,76.17188,514.64844,0.0564900247017492,-0.020117886688963,0.0023980823922402,11.25,31.8,59.7,-54.6875,44.43359,987.30469,-0.0924624823158288,-0.0854012292281101,0.3955635160670973,71.1,10.5,90.0,-868.65234,25.87891,454.58984,-0.3437366620608264,-0.2279586753334558,-0.0178529729186499,62.25,16.65,14.7
-879.39453,78.125,517.08984,0.0539585991546566,-0.0165205885676775,0.0722112524720134,12.0,31.05,57.6,-70.3125,60.05859,996.09375,-0.071944915228159,-0.0642174699649541,0.3970290690399969,71.1,10.5,90.0,-881.83594,47.85156,503.41797,-0.3441363424595331,-0.1658729505168874,-0.0093261668580317,60.6,17.4,15.0
-845.21484,75.68359,533.69141,-0.0215834396618626,-0.057422728654015,-0.0354394340605204,12.0,31.05,57.6,-50.29297,71.77734,999.51172,-0.0358392889921523,-0.0237151848102485,0.3657197821213958,70.65,10.05,88.35,-869.14062,20.99609,480.46875,-0.3575926564594842,-0.1228392398150893,-0.0382373713843925,60.6,17.4,15.0
-851.5625,68.84766,543.94531,0.0102588708102974,-0.0720780838500862,0.0107917198309313,12.15,32.7,59.1,-68.84766,40.52734,1012.20703,-0.0506278128101507,-0.0067947413109391,0.3690505684659018,69.75,9.9,89.55,-876.95312,5.85937,502.92969,-0.3312128774802159,-0.1608100994227023,-0.0349065850398865,61.35,17.1,16.65
-876.46484,89.35547,519.53125,0.063018428768834,-0.0162542513238231,0.0194516945134768,11.25,31.8,59.25,-54.19922,61.52344,1020.01953,-0.0539585991546566,-0.0091929982361045,0.3914333689251778,70.35,10.05,89.7,-875.48828,0.97656,499.51172,-0.305632459298361,-0.1309663654770009,0.0029311059457992,60.75,17.55,16.65
-883.78906,102.53906,528.32031,-0.0318423104721601,-0.0198513749121835,-0.0085268060606182,11.1,31.65,59.1,-40.52734,52.73438,1034.17969,-0.0618192130397887,-0.0267794593779749,0.3806416490942464,70.35,10.05,89.7,-864.74609,-4.88281,506.83594,-0.2963062924403293,-0.162275652395602,0.0207840788644492,61.05,17.1,15.9
-859.86328,115.23438,550.78125,0.0146553551960711,-0.1208406632886305,0.0409019655534123,11.1,32.4,59.4,-40.52734,17.57813,1034.66797,-0.0508943245869302,-0.0250473946282958,0.2727242762520079,69.3,10.05,89.7,-884.76562,-29.29688,524.41406,-0.2406156285359934,-0.1105819670112583,0.0021317451483858,61.2,18.75,16.5
-845.21484,104.98047,546.38672,-0.0984578628293545,-0.1244379614099161,0.1013889687751538,11.1,32.4,59.4,-40.52734,4.88281,1020.50781,-0.0578224090527217,-0.0155880591483369,0.3454685522775804,68.55,11.55,88.65,-884.76562,-6.83594,513.67187,-0.2645973251230215,-0.1649402465646217,0.0470306892217904,61.8,18.6,15.6
-854.98047,90.82031,537.59766,-0.0907304175661496,-0.0880658233971298,0.0347734164179594,11.85,32.7,58.35,-74.21875,7.32422,1029.78516,-0.0498284520127373,-0.0247810573844414,0.3196217968518711,69.3,10.8,90.0,-877.44141,-37.10938,526.36719,-0.2612665387785156,-0.1378942754098671,-0.0013323843509724,59.25,17.55,17.7
-875.97656,114.74609,524.90234,-0.0814042507081179,-0.1153783063286639,0.0548913031069224,10.35,33.0,59.1,-70.80078,12.20703,1032.71484,-0.0411684773301918,0.0086599746825454,0.3024350161087074,69.3,10.8,90.0,-900.39062,-31.25,530.76172,-0.22196329481993,-0.0818039311068246,0.034640073263107,59.25,17.55,17.7
-861.32812,116.69922,525.39062,-0.0940612039106556,-0.1212403436873373,0.0582220894514284,11.85,31.65,59.1,-65.42969,37.59766,1042.96875,-0.0358392889921523,-0.0005328490206338,0.2917764648997032,68.85,10.5,88.65,-909.66797,-8.30078,477.05078,-0.2133031456044594,-0.0627519169920545,0.0724777642487929,61.65,17.7,16.05
-862.79297,102.05078,526.85547,-0.1789295841181318,-0.0281118437289474,0.0599539796681824,11.55,31.8,58.95,-55.66406,34.17969,1040.52734,-0.0572893854991626,0.0406354537766327,0.2644639819681691,69.3,11.55,90.45,-906.25,-10.25391,526.36719,-0.2590014504752773,-0.1164441789028568,0.063018428768834,61.65,17.7,16.05
-874.51172,101.07422,532.71484,-0.1237717692344298,-0.1171101965454179,0.0085268060606182,11.55,31.8,58.95,-87.40234,64.94141,1017.57812,-0.0783399761403914,0.0133231453780239,0.2472772012250054,69.0,9.6,88.5,-904.78516,9.76562,513.18359,-0.210771894590292,-0.1017886491738605,0.0510274932088574,61.65,17.7,16.05
-882.8125,102.05078,539.0625,-0.1452220402743654,-0.1798621135374724,0.0409019655534123,11.55,31.8,58.95,-68.84766,71.28906,1026.36719,-0.0714118916745999,0.0439662401211387,0.2633981093939762,69.0,9.6,88.5,-888.18359,-13.18359,495.11719,-0.2717917468326674,-0.085934078248744,0.0079939570399844,60.75,17.85,17.7
-869.62891,127.92969,541.50391,-0.2327550146508613,-0.128834620328615,0.022382800459276,11.25,32.1,58.95,-33.69141,11.23047,1024.90234,-0.1494855305711371,0.0170536121212365,0.3166906909060719,68.85,10.5,89.4,-862.30469,-37.59766,512.69531,-0.1998468316045083,-0.0366386497895657,0.0003996803987067,61.65,17.7,18.15
-863.76953,119.14063,532.22656,-0.221430271266371,-0.0989908863829135,-0.0707458740320389,11.25,33.3,59.7,-42.48047,-63.96484,1005.37109,-0.1670719917130076,-0.0050628510941851,0.2959066120416226,69.3,10.05,88.95,-865.72266,-64.94141,486.32812,-0.2083736376651266,-0.0711455544307456,0.0488959225933967,61.35,17.85,16.65
-881.83594,96.19141,539.0625,-0.172401180051047,-0.1718683310304132,-0.0017320647496791,9.3,31.95,59.4,-27.34375,-119.62891,1001.95312,-0.118842261295097,-0.0205175670876697,0.2669954075152617,69.9,11.55,90.45,-846.19141,-89.84375,529.78516,-0.1842587724561713,-0.0057288687367461,0.0536922619108023,59.1,16.95,17.55
-867.67578,67.38281,558.10547,-0.205842212118034,-0.2248944007657293,-0.0903307371674429,12.15,32.4,60.45,-56.15234,-154.78516,1020.01953,-0.0754088701945922,-0.0041301471419193,0.2095726788612467,68.1,11.25,89.4,-843.26172,-81.54297,478.02734,-0.1542816953556175,0.0071944217096458,0.1241714496331365,61.35,18.6,17.4
-846.67969,47.36328,572.75391,-0.134430320443434,-0.2459448168740329,-0.0575558972759422,12.15,32.4,60.45,-83.98438,-166.99219,1020.99609,0.087532974376496,-0.0495619402359577,0.1755987977736259,69.3,9.75,89.4,-820.80078,-81.05469,482.91016,-0.1751991173749191,-0.0275788201753884,0.1097826062138449,61.05,17.85,16.2
-811.03516,49.31641,566.89453,-0.0480965617959833,-0.3213536870686251,-0.1024548413493467,12.0,32.85,59.7,-48.82813,-85.9375,959.96094,0.1167105161467112,0.0551578148837019,0.0959264372822619,69.45,12.15,88.8,-817.87109,-64.45313,530.76172,-0.0920628019171221,-0.0062618922903052,0.1819938586858583,61.05,17.85,16.2
-756.83594,68.84766,592.28516,-0.051827028539196,-0.2227626556173434,-0.1192419416938038,11.55,31.35,58.95,-41.01563,0.0,979.49219,0.1565467836588557,0.0618192130397887,0.0623522365933478,69.45,12.15,88.8,-832.03125,-46.38672,484.86328,-0.0748760211739583,0.0575558972759422,0.1318988948963414,60.3,18.3,18.0
-741.69922,75.19531,594.72656,-0.0142556747973644,-0.0951270764848485,-0.0707458740320389,12.6,32.1,59.7,-25.87891,75.68359,961.91406,0.2047763395438411,0.1044532433428802,0.0611531953972277,69.45,10.65,90.6,-811.03516,-39.55078,472.65625,-0.1107151356331855,0.0798055291132911,0.1358958734163337,60.3,18.3,18.0
-757.8125,103.51563,590.82031,0.0406354537766327,-0.0650168307623675,-0.0191853572696224,12.6,32.1,59.7,9.76562,101.07422,967.77344,0.0622190679714206,0.0756753819713717,0.1237717692344298,68.55,12.0,90.45,-821.77734,-20.99609,476.5625,-0.0995237354035474,0.1899878157258427,0.0768744231674918,59.85,18.0,17.55
-783.69141,90.82031,609.375,-0.0222496318373489,0.0203843984657425,-0.0751423584178126,12.0,32.1,61.35,8.78906,84.47266,929.19922,-0.007860613885132,0.0343737360192527,0.0831363154577971,69.3,13.2,90.75,-811.52344,-7.32422,458.00781,-0.0654165111610742,0.141091893132446,0.0675482563094601,60.3,19.35,15.9
-731.93359,64.45313,624.02344,-0.0688804661275074,-0.0539585991546566,-0.0447657754514773,12.15,33.0,60.15,-18.55469,39.0625,927.73437,-0.032908183046353,0.0787396565390981,0.1436233186795386,69.3,13.2,90.75,-816.40625,1.46484,495.60547,-0.1291011321053945,0.1104486238564059,0.0815375938629702,61.2,17.7,17.55
-679.19922,18.06641,645.50781,0.0062618922903052,-0.039569755735365,-0.0317089673173077,10.95,31.35,59.7,-30.27344,25.87891,949.21875,-0.0077274452632048,0.0531592383572432,0.1352296812408474,69.0,11.1,89.85,-852.53906,-20.50781,501.95312,-0.1366952342137471,0.230889781279255,0.0778071271197576,60.9,19.5,16.5
-631.34766,-20.50781,651.85547,0.0365053066347134,0.1617428033749681,0.0079939570399844,11.1,31.2,60.45,-53.71094,8.30078,974.12109,0.0106585512090041,0.0969923098564548,0.1593445464498027,68.1,10.5,88.65,-831.05469,-7.32422,495.11719,-0.0883323351739094,0.2127702965838255,0.0867336135790826,60.0,17.85,14.55
-648.4375,-23.92578,639.64844,0.1854578136522914,0.3899678159522782,-0.0354394340605204,11.1,31.2,60.45,-78.125,8.78906,1010.25391,0.0014655529728996,0.0532925815120956,0.1297671497479555,68.1,10.5,88.65,-851.07422,-19.04297,477.53906,-0.0579555776746489,0.2514073483669248,0.0885988469506889,61.05,18.6,15.9
-755.37109,81.54297,618.16406,0.2587351132314229,0.4222098068231451,0.0674150876875329,10.95,31.35,60.3,-95.70313,30.27344,1014.16016,0.0446324322966249,0.152283293362084,0.0881991665519822,69.75,11.85,89.85,-883.78906,-8.30078,456.54297,-0.0002665117767795,0.2307564381244027,0.0947273960861418,61.05,18.6,15.9
-830.56641,66.89453,579.58984,0.228624867508942,0.513073567544147,-0.0029311059457992,11.1,33.45,59.4,-103.51563,10.74219,1020.01953,0.0131899767560967,0.1283017713079811,0.1570796326794896,69.75,11.1,90.3,-875.97656,-18.06641,468.75,-0.050761155965003,0.1983812786316086,0.1444226794769519,60.6,18.75,16.8
-962.89062,131.34766,544.92187,0.2358192892185878,0.4552511584914253,0.0944608843093623,11.25,32.1,59.25,-87.40234,2.44141,1003.41797,0.0093261668580317,0.1368284028356742,0.0928621627145355,70.2,9.9,89.55,-895.99609,-39.0625,499.51172,-0.0255804181818548,0.2571362171036709,0.1237717692344298,60.6,18.75,16.8
-1053.22266,157.22656,528.80859,0.1636080367465744,0.2182328280767173,0.1714686506317065,11.85,30.45,59.4,-75.68359,17.08984,1010.25391,0.0213169278850831,0.1441561677001724,0.0535589187559499,70.2,9.9,89.55,-881.83594,-22.46094,480.95703,-0.0199847180670358,0.2122374475631916,0.1386936362072806,60.6,19.5,16.05
-1001.46484,140.625,511.71875,0.2202312300702509,0.0321086477160144,-0.0195850376683291,11.85,30.45,59.4,-38.57422,26.85547,1013.67187,0.1243047927879889,0.0917962901403425,0.0644839817417337,69.3,11.25,89.4,-882.8125,-20.50781,500.97656,-0.0933951862680945,0.2331546950495681,0.0993905667816202,59.85,18.75,17.85
-1023.92578,131.83594,501.95312,0.1801286253142519,0.0844685252758443,-0.0787396565390981,11.55,33.3,59.25,-49.31641,46.875,1002.44141,0.0976585020319411,0.113246561180278,0.0010658725741929,68.7,11.4,90.6,-895.01953,-1.46484,490.72266,-0.0691469779042869,0.2394165873398733,0.1580123366317554,60.15,18.0,15.45
-927.24609,108.88672,505.85937,0.1809279861116653,0.039569755735365,-0.060753514998521,11.4,30.9,58.35,-66.40625,83.98438,1020.99609,0.1577458248549758,0.1225727280383097,0.032908183046353,69.6,12.0,90.45,-903.80859,26.36719,470.21484,-0.0972588216332344,0.1999801747593606,0.073676805444913,61.05,19.05,15.15
-913.08594,91.79688,490.23437,0.1827932194832717,0.007860613885132,-0.0262466103573411,12.0,32.55,58.65,-86.42578,103.02734,1005.85937,0.1380276185647195,0.0983246942074273,0.0347734164179594,72.15,10.5,89.4,-906.25,19.53125,481.93359,-0.0823369546603836,0.2090398298406128,0.0888651841945432,61.05,19.05,15.15
-915.52734,107.42188,468.26172,0.1324319184499005,0.11990813386929,-0.0616860444178615,12.0,31.35,58.95,-110.35156,105.95703,1000.97656,0.0862005900255235,0.1120475199841579,0.0552909835056291,69.3,12.45,88.95,-893.06641,19.04297,459.96094,-0.1117810082073784,0.1669388230910804,0.077007591789419,61.65,19.5,15.75
-961.42578,119.62891,486.81641,0.1573461444562691,0.0920628019171221,0.0021317451483858,12.0,31.35,58.95,-125.0,93.75,988.28125,0.0269126279999021,0.1450888716524382,0.1008561197545199,69.9,10.8,88.95,-893.55469,-6.83594,460.9375,-0.1095160944370653,0.2251607380095836,0.0916631215184153,61.05,19.35,16.2
-933.59375,128.90625,462.89062,0.1089830708835063,-0.0034639549664331,-0.0394364125805126,10.95,32.1,57.9,-132.32422,88.86719,980.46875,0.068614128883653,0.161209779821409,0.0973919902551615,69.9,10.8,88.95,-912.10937,-6.83594,465.82031,-0.0398360929792193,0.1970490688135614,0.0472970264656447,61.05,19.35,16.2
-939.94141,141.60156,464.84375,0.0263797789792682,0.050761155965003,-0.0303767574992605,10.65,30.45,59.1,-123.53516,68.35938,998.53516,0.032375159492794,0.1378942754098671,0.0254472495599277,69.0,11.4,90.9,-917.48047,15.625,465.82031,-0.0531592383572432,0.1588116974291688,0.0122572728038309,60.3,20.85,15.9
-940.42969,160.64453,462.89062,0.0322419908708668,-0.0386370517830992,0.0070612530877186,11.25,31.05,57.9,-144.04297,73.73047,1004.88281,-0.0174532925199432,0.1401591891801802,0.0186523337160634,70.8,11.1,89.55,-927.73437,-6.34766,473.14453,-0.0255804181818548,0.1220398790176759,0.0827366350590903,61.65,19.5,14.7
-883.30078,138.67187,464.84375,0.0011990411961201,-0.032908183046353,0.0480965617959833,10.2,30.6,58.95,-124.02344,62.98828,1031.73828,0.0480965617959833,0.1506845717672572,-0.0130566336012443,69.6,12.0,89.4,-923.82812,4.39453,484.375,0.0339738810876208,0.128834620328615,0.0548913031069224,61.05,20.1,15.15
-862.79297,138.67187,459.47266,-0.0655498543159266,0.0131899767560967,-0.0037304667432126,10.2,30.6,58.95,-124.02344,60.54688,1037.10938,0.0246477142295891,0.1245711300318432,0.0185191650941362,69.6,12.0,89.4,-930.66406,20.01953,473.14453,0.0071944217096458,0.0559571756811154,0.0151883787496302,61.05,18.6,15.15
-845.70312,129.88281,463.86719,-0.0226493122360556,-0.0331745202902074,-0.0021317451483858,10.5,31.35,58.95,-130.85937,41.99219,1033.20313,0.060753514998521,0.0683476171068735,-0.0303767574992605,69.75,11.85,89.85,-928.71094,10.74219,473.14453,0.0237151848102485,0.0908637607210019,0.0476967068643514,58.95,19.8,15.6
-854.00391,120.11719,458.98437,-0.0460979852695246,0.0151883787496302,0.0209172474863764,11.55,31.8,58.2,-128.90625,27.83203,1025.87891,0.0474303696204971,0.0330413516682802,-0.0103920394322246,69.9,12.0,89.85,-940.91797,7.8125,462.89062,0.0397029243572922,0.0791393369378048,0.063018428768834,60.9,19.2,14.7
-857.42187,115.72266,470.21484,-0.0863337586474507,0.0387702204050264,0.0279785005740951,11.85,32.4,58.35,-141.60156,-3.41797,1015.625,0.0762082309920056,0.0338407124656936,-0.0195850376683291,69.9,12.0,88.35,-932.12891,-21.48438,479.00391,0.0672817445326806,0.0351730968166661,0.0847350370526239,60.9,19.2,14.7
-891.60156,106.93359,468.26172,-0.0277121633302407,-0.0295773967018471,0.0062618922903052,11.85,31.95,59.1,-132.32422,8.30078,1020.50781,0.1129800494034985,0.0303767574992605,-0.0467641774450108,69.9,12.0,88.35,-937.98828,8.78906,507.32422,0.1203078142679967,0.0406354537766327,0.0834028272345766,60.3,19.8,15.6
-872.07031,114.25781,460.9375,-0.0289112045263608,-0.0903307371674429,0.0447657754514773,11.85,31.95,59.1,-127.92969,29.78516,1072.75391,0.1420244225517865,0.0138559943986577,-0.0361056262360067,70.8,11.4,89.55,-942.87109,1.46484,452.14844,0.1301670046795875,-0.0423675185263119,0.075275701572665,60.3,19.8,15.6
-862.79297,120.60547,453.61328,-0.0869999508229369,-0.046897346066938,0.0026645941690197,11.55,34.05,58.65,-137.20703,71.28906,1047.36328,0.1406922127337393,-0.0672817445326806,-0.110981647409965,69.9,12.0,87.9,-923.82812,-9.27734,465.33203,0.0763415741468579,-0.0486294108166172,0.0430337107017981,59.25,20.1,14.85
-886.23047,124.51172,448.24219,-0.0249142260063686,-0.0831363154577971,0.1032542021467601,11.25,30.3,58.95,-152.83203,104.98047,1028.32031,0.1418912539298594,-0.0543582795533633,-0.0876661429984231,71.1,12.0,88.95,-940.42969,20.50781,482.91016,0.1116478395854512,-0.0516936853843436,0.0282450123508746,59.7,19.05,14.85
-910.64453,154.29687,452.14844,-0.0165205885676775,-0.114312433754471,0.0887320155726161,10.95,32.55,58.95,-141.60156,105.95703,1001.46484,0.1144456023763981,-0.0542251109314362,-0.087532974376496,71.1,12.0,88.95,-940.42969,37.59766,499.51172,0.1027213531261262,-0.0768744231674918,0.0358392889921523,59.7,20.55,13.8
-890.13672,136.23047,461.42578,-0.0893982077481023,-0.2047763395438411,0.0369049870334201,10.95,32.55,58.2,-122.07031,94.23828,1041.99219,0.0310429496747467,-0.073676805444913,-0.0828698036810175,70.5,11.85,88.05,-938.96484,26.36719,501.95312,0.150018379591771,-0.0559571756811154,0.0698131700797731,61.05,19.8,15.9
-831.05469,126.46484,462.40234,-0.0791393369378048,-0.1741332448007262,0.0440995832759911,10.95,31.8,58.95,-101.5625,70.3125,1066.40625,0.0403691165327784,-0.0606201718436686,-0.080871401687484,69.75,11.85,89.55,-946.28906,38.08594,474.12109,0.1203078142679967,-0.1393598283827668,-0.0307764378979672,60.75,20.85,14.55
-856.44531,124.02344,473.14453,0.0595542992694757,-0.1346968322202135,0.0688804661275074,10.95,31.8,58.95,-106.93359,69.33594,1045.41016,0.0871332939777893,-0.0887320155726161,-0.077007591789419,70.65,12.0,89.4,-916.01562,5.37109,493.65234,0.086467101802303,-0.1175098769441246,-0.0250473946282958,61.35,20.85,14.55
-893.55469,129.88281,489.74609,-0.0528927265804637,-0.1125803690047918,0.039569755735365,12.0,31.05,58.65,-123.04688,71.77734,1022.94922,0.0945942274642146,-0.049162259837251,-0.0684807857288007,70.2,13.35,89.85,-936.03516,10.25391,499.02344,0.1910535137671104,-0.1661392877607418,0.0315757986953806,61.35,20.85,14.55
-892.57812,105.46875,499.51172,-0.0363721380127862,-0.1785299037194251,-0.023981696587028,11.25,31.05,57.9,-121.58203,62.5,1028.32031,0.093128674491315,-0.125503833984109,-0.0903307371674429,69.45,12.9,87.75,-924.31641,17.08984,505.85937,0.1247044731866956,-0.2254272497863632,0.0357059458372999,61.8,19.8,15.9
-864.74609,116.69922,519.04297,-0.020117886688963,-0.2671285761371889,0.0302434143444081,11.55,31.35,58.2,-101.5625,71.28906,1024.90234,0.0526263893366094,-0.1065849884912661,-0.0912634411197086,70.8,12.9,88.5,-902.34375,19.53125,534.66797,0.1806614743348858,-0.1982481100096814,0.0334410320669869,61.8,19.8,15.9
-816.40625,123.04688,523.4375,-0.0367718184114929,-0.1855911568071438,-0.0119907610270514,11.25,31.35,59.7,-65.42969,71.28906,1032.71484,0.0067947413109391,-0.1049862668964393,-0.0881991665519822,70.8,12.9,88.5,-903.80859,26.85547,535.15625,0.1465544246253378,-0.1806614743348858,0.0230489926347623,60.75,21.15,16.65
-804.19922,142.08984,536.13281,-0.0035972981212855,-0.170136266280734,-0.0512940049856369,11.25,31.35,59.7,-50.78125,64.45313,1041.50391,0.0675482563094601,-0.1401591891801802,-0.06634921511334,70.5,11.4,88.5,-885.25391,16.11328,509.27734,0.1236386006125027,-0.1934517706922759,0.0235820161883213,60.75,19.05,16.65
-830.56641,140.13672,549.80469,0.0390367321818059,-0.1887885999967974,-0.045165455850184,10.5,32.55,59.7,-38.08594,62.01172,1048.82813,0.0317089673173077,-0.1597442268485094,-0.0850015488294034,70.65,10.5,89.7,-864.25781,55.17578,486.81641,0.1676048407336414,-0.2247610576108769,-0.0037304667432126,60.75,19.05,16.65
-867.1875,137.69531,553.22266,-0.0341072242424731,-0.150018379591771,-0.0999234158022541,12.45,30.9,59.1,-58.10547,67.38281,1014.16016,0.0595542992694757,-0.1494855305711371,-0.0912634411197086,68.85,11.55,88.95,-866.21094,47.36328,491.21094,0.1003230962009608,-0.3077642044467469,-0.018385996472209,59.4,20.25,17.55
-875.48828,130.85937,553.22266,-0.0784731447623186,-0.1898544725709904,-0.0726111074036452,13.95,32.4,59.85,-51.75781,102.05078,1007.8125,0.0322419908708668,-0.2460781600288853,-0.1009892883764471,68.85,11.55,88.95,-867.67578,36.62109,533.20312,0.0932618431132422,-0.2680612800894547,0.0023980823922402,60.0,20.85,16.2
-858.39844,108.88672,558.10547,-0.0322419908708668,-0.2419480128869659,-0.0115910806283447,11.55,32.85,60.0,-45.89844,108.39844,982.42187,-0.0071944217096458,-0.2227626556173434,-0.0756753819713717,69.3,11.25,88.95,-880.37109,44.92188,500.0,0.1036538825454668,-0.2709923860352539,0.0515605167624164,60.9,19.95,15.75
-850.09766,112.30469,564.94141,-0.064750318985588,-0.1867901980032639,-0.0695466583029936,11.55,32.85,60.0,-48.33984,94.72656,998.04687,-0.0373046674321268,-0.1662726309155942,-0.0390367321818059,71.1,11.55,89.4,-873.53516,40.03906,487.30469,0.0732771250462063,-0.278852999920386,0.0043966589186989,61.65,20.7,17.1
-854.00391,106.44531,562.5,-0.0626187483701273,-0.2227626556173434,-0.0433002224785777,12.15,32.4,60.15,-54.19922,95.70313,988.76953,-0.0191853572696224,-0.1680045211323481,-0.029044373148288,71.1,11.55,89.4,-863.76953,47.85156,528.32031,0.1440229990782452,-0.2129034652057527,0.0106585512090041,61.65,20.7,17.1
-847.16797,104.98047,574.70703,-0.0466310088230837,-0.3236186008389382,0.0349065850398865,11.1,31.95,58.8,-58.59375,118.16406,988.76953,-0.0419678381276052,-0.1565467836588557,-0.0251807377831481,68.85,12.45,88.35,-891.60156,72.26563,549.31641,0.1032542021467601,-0.223695185036684,0.0153215473715574,60.9,19.95,15.75
-799.31641,95.70313,583.98437,-0.0538254305327295,-0.2801852097384332,-0.0233155044115418,10.5,32.55,61.35,-37.10938,91.30859,1023.4375,-0.0246477142295891,-0.192918921671642,-0.0322419908708668,70.2,11.4,89.55,-874.51172,66.89453,530.27344,0.0283781809728018,-0.2435467344817927,-0.0090596550812521,60.9,19.95,15.75
-795.89844,100.58594,576.17187,-0.051827028539196,-0.13776110678794,-0.0343737360192527,10.5,32.55,61.35,-29.78516,78.61328,1041.50391,-0.0297105653237742,-0.1478866344433851,-0.0850015488294034,69.3,11.55,90.45,-875.48828,73.24219,493.16406,0.0286446927495813,-0.2174334672793039,-0.046897346066938,59.4,20.7,17.85
-841.79687,83.98438,578.61328,-0.0333078634450597,-0.1305666850782942,0.0458314734927451,11.1,31.2,60.15,-39.0625,100.09766,1027.34375,-0.0303767574992605,-0.1897213039490632,-0.0448989440734045,69.3,11.55,90.45,-902.34375,43.94531,527.83203,0.0496952833908101,-0.217033612347672,-0.0242480338308824,60.9,21.0,17.1
-841.79687,88.86719,575.19531,-0.0790061683158777,-0.1959831962393684,0.0342403928644003,10.5,30.3,60.75,-41.99219,92.28516,1027.34375,-0.0275788201753884,-0.1801286253142519,-0.0514271736075641,69.6,10.8,89.4,-882.8125,52.24609,523.4375,0.0433002224785777,-0.1979815982329019,0.0015987215948268,60.6,18.45,16.8
-798.82812,80.56641,575.68359,-0.0654165111610742,-0.1496186991930643,0.0129234649793172,11.1,31.65,62.55,-41.99219,91.79688,1019.53125,-0.0218499514386422,-0.1329647674705344,-0.0738101485997654,68.85,11.55,89.4,-882.8125,50.29297,460.9375,0.0682144484849463,-0.2412818207114797,-0.0564900247017492,60.15,19.5,17.55
-791.01562,93.75,561.52344,-0.0005328490206338,-0.1461547442266311,0.0587549384720623,13.05,30.6,58.95,-49.31641,82.51953,985.83984,-0.0349065850398865,-0.1513507639427435,-0.0968591412345277,69.75,10.35,88.8,-834.96094,24.41406,497.07031,0.0085268060606182,-0.1957166844625889,-0.0367718184114929,59.85,21.0,18.6
-838.37891,102.53906,552.24609,-0.0185191650941362,-0.1402925323350325,0.023448673033469,13.05,30.6,58.95,-37.10938,62.01172,951.66016,-0.0339738810876208,-0.141091893132446,-0.070346019100407,70.2,11.85,89.55,-836.91406,38.08594,517.08984,0.0299770771005538,-0.1136462415789847,-0.063018428768834,61.35,20.85,18.0
