IMU1_AccX,IMU1_AccY,IMU1_AccZ,IMU1_GyrX,IMU1_GyrY,IMU1_GyrZ,IMU1_MagX,IMU1_MagY,IMU1_MagZ,IMU2_AccX,IMU2_AccY,IMU2_AccZ,IMU2_GyrX,IMU2_GyrY,IMU2_GyrZ,IMU2_MagX,IMU2_MagY,IMU2_MagZ,IMU3_AccX,IMU3_AccY,IMU3_AccZ,IMU3_GyrX,IMU3_GyrY,IMU3_GyrZ,IMU3_MagX,IMU3_MagY,IMU3_MagZ
-857.42187,144.53125,361.32812,-0.0683476171068735,0.0598208110462552,0.007860613885132,10.2,34.35,52.95,-75.68359,55.66406,1040.52734,-0.032375159492794,-0.2288912047527963,-0.1975819178341952,71.4,11.25,87.9,-899.41406,65.42969,477.53906,0.1642740543891354,-0.0981913510525749,-0.0474303696204971,60.75,20.55,12.45
-838.86719,142.57812,354.00391,-0.0177198042967228,0.0496952833908101,0.0351730968166661,9.3,34.5,52.8,-73.24219,82.03125,1026.85547,0.032375159492794,-0.2176998045231583,-0.2400826049824344,72.0,10.65,87.45,-899.41406,67.38281,449.21875,0.20917299846254,-0.1353630243956998,-0.0245145456076619,60.75,20.55,12.45
-853.51562,172.85156,331.05469,-0.0366386497895657,0.1481531462201646,0.022382800459276,8.55,33.75,52.2,-71.28906,107.42188,1026.85547,-0.0383705400063197,-0.2500749640159523,-0.2079739572664199,70.8,10.65,87.75,-890.13672,87.40234,453.61328,0.2356861205966606,-0.0567565364785288,0.0275788201753884,60.3,19.35,12.45
-889.16016,181.15234,327.14844,-0.0675482563094601,0.1267028751802291,0.1440229990782452,8.55,33.75,52.2,-65.42969,125.48828,1006.34766,-0.0099923590335179,-0.2450122874546923,-0.2460781600288853,72.45,9.0,87.9,-871.58203,90.33203,416.50391,0.1606769308007752,-0.0499617951675896,-0.037970859607613,60.3,19.35,12.45
-915.52734,180.66406,320.3125,-0.0025314255470925,0.0238483534321757,0.1572128013014168,9.9,34.35,51.6,-69.82422,166.50391,966.30859,-0.0215834396618626,-0.2552709837320646,-0.24487894429984,71.7,10.8,88.95,-867.67578,110.83984,446.28906,0.1853246450303643,-0.1557472483285172,-0.0779402957416847,60.9,19.5,12.3
-933.10547,192.87109,341.30859,-0.0570230482553083,0.0690138092823597,0.0433002224785777,10.2,32.85,52.95,-49.31641,176.26953,953.61328,-0.0229158240128351,-0.2680612800894547,-0.1921193863413034,71.7,10.8,88.95,-857.42187,115.72266,443.84766,0.1865236862264844,-0.067015232755901,-0.1091164140383586,59.7,19.35,13.05
-955.07812,187.01172,345.21484,-0.1091164140383586,0.0222496318373489,0.0122572728038309,9.3,33.75,52.8,-57.12891,176.75781,938.96484,-0.0714118916745999,-0.1818606900639311,-0.211437912232853,71.25,9.6,89.1,-837.40234,105.95703,392.57812,0.1117810082073784,-0.0997902471803269,-0.1381607871866467,59.85,19.5,11.85
-955.56641,191.40625,353.51562,-0.0860674214035963,-0.1148452827751048,0.0073277648644981,10.5,34.8,51.6,-20.50781,147.46094,944.82422,-0.0979250138087206,-0.1469541050240445,-0.1504180599904777,71.1,9.3,88.65,-850.09766,104.98047,442.87109,0.1770643507465255,0.0522267089379027,-0.0816707624848974,60.3,20.55,13.05
-958.49609,165.52734,359.375,-0.1184425808963904,-0.1861240058277777,-0.0281118437289474,10.5,34.8,51.6,-24.90234,103.02734,958.00781,-0.1461547442266311,-0.1205743260447762,-0.1004564393558132,71.55,10.35,89.85,-834.47266,116.21094,403.80859,0.1975819178341952,-0.0043966589186989,-0.1044532433428802,60.6,21.0,13.65
-938.96484,162.59766,373.53516,-0.15561407970659,-0.2753890449539529,-0.1364287224369675,9.15,32.55,52.65,-38.57422,83.98438,981.93359,-0.0683476171068735,-0.1060521394706322,-0.1821270273077855,71.55,10.35,89.85,-886.23047,101.5625,397.46094,0.179062752740059,-0.0843353566539172,-0.0892648645932499,60.6,19.95,14.4
-942.38281,181.15234,380.85937,-0.1147121141531777,-0.3272158989602237,-0.0839356762552105,11.1,34.5,51.75,-62.98828,85.9375,987.79297,-0.0794058487145844,-0.0490290912153239,-0.2086401494419061,71.25,9.6,88.8,-858.88672,115.23438,425.29297,0.1742664134226534,-0.0534257501340228,-0.0963261176809686,60.6,19.95,14.4
-961.42578,152.34375,415.03906,-0.1646737347878422,-0.3356095363989148,-0.1429571265040523,9.45,32.55,53.4,-55.17578,87.40234,981.44531,-0.050228132411444,-0.0566231933236764,-0.1729342036046061,71.7,9.75,88.95,-856.93359,123.04688,376.95312,0.0556906639043358,0.0492956029921034,-0.1052526041402936,60.75,20.1,12.75
-955.56641,124.02344,432.61719,-0.1295008125041012,-0.3149586261563927,-0.1525498051388636,10.5,33.3,52.65,-76.66016,112.79297,968.26172,-0.0472970264656447,-0.0193185258915496,-0.1476202971995308,71.7,9.75,88.95,-862.79297,99.12109,427.24609,0.1013889687751538,-0.0249142260063686,-0.1123138572280122,60.75,20.1,12.75
-947.75391,91.30859,446.77734,-0.1261700261595952,-0.3818406902903666,-0.0587549384720623,10.5,33.3,52.65,-70.3125,101.07422,956.05469,0.0065284040670847,-0.0206509102425221,-0.1057856276938527,69.9,10.05,88.65,-862.79297,131.34766,416.50391,0.0778071271197576,0.0099923590335179,-0.0911300979648563,61.2,19.95,12.9
-930.17578,88.37891,458.49609,-0.1207074946667034,-0.3976952612154831,-0.1637412053685016,9.15,34.05,52.35,-75.68359,98.14453,976.5625,-0.0202512298438154,0.0359724576140795,-0.1101822866125516,72.0,8.1,88.5,-892.08984,94.72656,389.16016,0.0422343499043847,-0.0443659205198454,-0.1408253813556664,59.85,20.25,11.55
-896.48437,69.82422,470.70312,-0.032375159492794,-0.325750345987324,-0.1917197059425967,10.2,33.6,53.7,-69.33594,72.26563,1012.69531,-0.0345069046411798,0.0600873228230347,-0.0903307371674429,71.4,10.05,89.4,-878.90625,96.67969,432.61719,0.0806048899107045,0.0165205885676775,-0.0463644970463041,59.4,19.2,13.35
-888.67187,40.52734,473.14453,0.0383705400063197,-0.2984380375887152,-0.1115144964305989,10.65,34.95,53.55,-38.57422,94.72656,1020.50781,-0.0838025076332833,0.1083170532409452,-0.0730107878023519,71.4,10.05,89.4,-905.76172,103.51563,403.32031,-0.0087933178373978,-0.0125237845806105,0.0121241041819038,60.9,19.2,12.9
-907.22656,34.17969,477.53906,0.1342971518215068,-0.1805283057129587,-0.1898544725709904,10.35,34.2,53.55,-103.02734,103.51563,1001.95312,-0.0047963393174056,0.0094593354799588,-0.0514271736075641,70.8,9.9,88.5,-897.94922,82.03125,409.17969,-0.0510274932088574,-0.0205175670876697,-0.0371714988101996,60.9,19.2,12.9
-936.52344,57.61719,459.96094,0.0879326547752027,-0.0868667822010097,-0.1348300008421407,10.35,34.2,53.55,-89.35547,96.19141,995.11719,-0.04849624219469,0.0467641774450108,-0.005595700114819,71.7,9.3,87.6,-925.29297,100.58594,428.71094,-0.0250473946282958,0.0021317451483858,-0.0261132672024887,60.9,19.95,13.65
-931.64062,54.6875,445.80078,0.1961163648612956,-0.0985910314512816,-0.0923293136939016,9.3,33.45,53.55,-142.57812,111.32813,1002.44141,-0.0315757986953806,0.0450321126953316,-0.0202512298438154,71.7,9.0,89.4,-942.38281,102.53906,387.20703,-0.1059187963157798,0.050761155965003,0.0030642745677264,60.9,18.45,12.6
-967.28516,61.03516,436.03516,0.2507411561914385,-0.0425006871482391,-0.1108484787880378,10.5,32.55,54.45,-130.37109,136.71875,1001.95312,-0.0519601971611231,0.0378376909856858,-0.006128723668378,71.7,9.0,89.4,-934.08203,96.67969,428.22266,-0.0807380585326316,0.0169204434993094,-0.0250473946282958,60.9,18.45,12.6
-962.89062,67.38281,430.17578,0.2030444493270871,-0.036238969390859,-0.0704793622552594,10.65,32.4,54.6,-143.06641,131.34766,1020.99609,-0.041834669505678,0.0803383781339249,0.0209172474863764,72.0,8.85,89.1,-952.14844,111.81641,421.38672,-0.1257703457608885,0.0249142260063686,-0.0259800985805615,61.65,18.0,12.3
-959.96094,68.35938,417.96875,0.2592679622520568,-0.0414349891069713,0.0037304667432126,10.2,34.05,54.45,-138.67187,140.13672,1039.55078,-0.070346019100407,0.0523598775598298,0.0211837592631559,71.25,8.85,87.0,-954.10156,115.72266,413.08594,-0.1534823345582041,-0.0194516945134768,-0.0664823837352672,60.75,17.55,12.0
-958.00781,73.73047,409.66797,0.2647304937449487,0.0107917198309313,0.0027979373238721,10.2,34.05,54.45,-139.16016,161.62109,1042.48047,-0.1176432200989769,0.0627519169920545,0.1116478395854512,71.7,8.55,87.9,-957.51953,113.76953,441.40625,-0.1806614743348858,-0.0138559943986577,-0.0937948666668012,59.7,19.05,13.05
-958.00781,85.9375,388.18359,0.20917299846254,0.0816707624848974,-0.0153215473715574,9.15,33.6,53.4,-129.39453,133.30078,1048.33984,-0.1036538825454668,0.0265129476011954,0.1580123366317554,71.7,8.55,87.9,-972.65625,120.11719,438.96484,-0.2740566606029804,-0.0238483534321757,-0.0876661429984231,60.0,19.8,13.5
-963.86719,98.63281,356.44531,0.2315559734547413,0.0872664625997164,0.0199847180670358,9.45,34.05,53.4,-129.88281,110.35156,1064.94141,-0.1291011321053945,0.0393032439585855,0.1600107386252889,72.45,8.55,88.35,-980.95703,91.79688,470.70312,-0.2736569802042737,-0.0202512298438154,-0.1191087730718766,60.15,18.0,13.65
-971.67969,121.09375,373.04687,0.1841256038342442,0.0381042027624654,0.0559571756811154,8.1,34.05,52.35,-122.07031,100.58594,1074.70703,-0.1107151356331855,-0.041301645952119,0.1961163648612956,70.8,9.6,87.75,-985.35156,81.05469,481.44531,-0.2560705190624032,-0.0572893854991626,-0.0862005900255235,60.6,18.45,12.3
-958.49609,129.39453,358.39844,0.1354961930176269,0.0834028272345766,-0.006128723668378,8.1,32.1,52.35,-106.44531,90.33203,1093.75,-0.1546815502872494,-0.0675482563094601,0.2208974222457371,70.65,8.55,88.95,-998.53516,57.12891,494.62891,-0.2720582586094469,-0.0325085026476463,-0.0867336135790826,60.6,18.45,12.3
-955.07812,130.37109,348.14453,0.1509510835440367,0.0115910806283447,0.0664823837352672,11.85,32.7,52.2,-120.60547,77.63672,1100.09766,-0.1759984781723326,-0.0674150876875329,0.1965160452600023,70.65,8.55,88.95,-996.58203,30.76172,497.07031,-0.2271593145360423,-0.1208406632886305,-0.0648836621404404,61.35,19.05,13.8
-937.01172,138.67187,373.04687,0.1326982556937548,0.0656830229378538,0.1279019163763492,11.85,32.7,52.2,-118.16406,50.78125,1093.75,-0.0959264372822619,-0.0887320155726161,0.1803951370910315,71.55,8.85,89.55,-970.70312,45.41016,468.26172,-0.1405590441118121,-0.1775971997671594,-0.0908637607210019,61.35,19.05,13.8
-953.125,111.81641,370.11719,0.0883323351739094,0.0919296332951949,0.0564900247017492,9.9,32.1,52.95,-123.04688,30.27344,1067.87109,-0.0746095093971788,-0.1389601479840601,0.1838590920574646,71.55,9.15,89.55,-943.84766,45.89844,468.26172,-0.1817273469090787,-0.2150352103541385,-0.0345069046411798,61.05,19.35,12.75
-947.75391,108.39844,371.58203,0.1405590441118121,0.0191853572696224,0.0375711792089063,9.9,32.55,52.65,-103.02734,33.69141,1023.92578,-0.0516936853843436,-0.1372282577673061,0.1910535137671104,71.55,9.15,89.55,-926.26953,62.5,477.53906,-0.1402925323350325,-0.3021685043319279,-0.042900542079871,61.95,18.75,12.9
-939.94141,76.66016,365.72266,0.1917197059425967,-0.0571562168772355,0.0185191650941362,9.9,32.85,52.95,-79.58984,33.69141,1007.32422,-0.0695466583029936,-0.1406922127337393,0.1461547442266311,71.7,10.5,88.65,-886.71875,71.28906,487.79297,-0.1871898784019706,-0.2526063895630449,-0.0654165111610742,61.35,19.8,12.0
-922.36328,72.26563,377.44141,0.1818606900639311,-0.0094593354799588,-0.0430337107017981,11.25,34.05,54.0,-65.42969,48.33984,994.62891,-0.0335742006889141,-0.134430320443434,0.1982481100096814,71.55,9.6,87.75,-869.62891,77.63672,497.55859,-0.1891882803955041,-0.2440795835024266,-0.0726111074036452,60.9,18.45,13.95
-919.43359,79.58984,390.13672,0.2651301741436554,-0.06634921511334,-0.0154548905264097,11.25,34.05,54.0,-42.48047,72.75391,998.53516,0.0098591904115907,-0.1203078142679967,0.172401180051047,72.15,9.0,89.4,-858.39844,59.57031,470.70312,-0.1998468316045083,-0.2546049660895036,-0.0414349891069713,61.05,19.05,14.85
-896.48437,83.00781,387.20703,0.2815175940894058,-0.075275701572665,-0.0049295079393327,9.9,33.3,52.65,-37.59766,71.28906,992.67578,-0.0142556747973644,-0.1480199775982374,0.2010458728006284,72.15,9.0,89.4,-850.58594,64.45313,455.07812,-0.2224961438405639,-0.2839158510145712,-0.0720780838500862,60.3,17.85,13.8
-894.53125,114.25781,385.25391,0.212503784807046,0.0251807377831481,0.0231821612566894,9.45,31.8,52.65,-54.19922,92.28516,951.17187,0.0094593354799588,-0.1594777150717298,0.1566799522807829,70.2,10.35,88.05,-848.63281,75.19531,432.61719,-0.2067749160702998,-0.1694700741052478,-0.0341072242424731,60.3,17.85,13.8
-898.92578,142.08984,398.4375,0.2166339319489653,-0.1016554805519333,0.0317089673173077,9.9,34.35,51.6,-37.59766,77.14844,937.01172,-0.0231821612566894,-0.2339540558469814,0.1356293616395541,70.35,10.05,89.7,-827.63672,91.79688,461.91406,-0.1732005408484604,-0.2612665387785156,-0.0532925815120956,60.15,18.75,13.65
-862.30469,154.78516,406.25,0.1751991173749191,-0.1313660458757076,0.1093829258151382,11.1,33.45,53.55,-32.22656,111.32813,929.6875,-0.0277121633302407,-0.1899878157258427,0.187989239199384,70.2,8.4,90.3,-845.21484,77.63672,474.60937,-0.18625734898263,-0.2280918439553829,-0.0662158719584876,60.15,18.75,13.65
-845.70312,154.29687,437.01172,0.1081837100860929,-0.0310429496747467,0.0911300979648563,11.1,33.45,53.55,-29.29688,121.09375,947.75391,-0.0495619402359577,-0.1276355791324949,0.1289677889505422,69.9,8.55,88.65,-832.51953,66.40625,446.28906,-0.1516171011865978,-0.1600107386252889,-0.0015987215948268,61.35,17.85,15.15
-839.84375,147.46094,429.6875,0.0746095093971788,-0.0588882816269146,0.1381607871866467,10.05,33.0,52.5,-20.99609,83.00781,963.86719,-0.0766079113907123,-0.0901975685455157,0.2267596341373356,70.5,9.9,89.85,-835.44922,56.64063,470.70312,-0.1437564873014657,-0.1127137121596442,-0.0656830229378538,62.55,19.05,14.55
-850.09766,154.78516,426.26953,0.0699463387017003,-0.0715452348294523,0.1313660458757076,9.0,33.0,52.5,-26.85547,57.12891,984.375,-0.0241148652089552,-0.0977916706538682,0.2482097306443459,71.55,10.65,89.55,-844.72656,38.57422,441.89453,-0.1442895108550248,-0.1259035143828157,-0.052493046181757,62.55,19.05,14.55
-843.26172,153.32031,423.82812,0.0381042027624654,0.0066615726890119,0.1305666850782942,9.45,32.55,52.95,-36.13281,39.55078,974.12109,-0.0207840788644492,-0.0291777163031404,0.229290885151503,71.55,10.65,89.55,-819.82422,35.64453,457.03125,-0.082603291904238,-0.1028545217480534,-0.0291777163031404,60.3,17.85,14.85
-878.90625,142.57812,427.73437,-0.0109248884528585,0.0506278128101507,0.0325085026476463,9.45,32.55,52.95,-43.94531,36.13281,962.40234,0.0179861415405771,-0.0664823837352672,0.1733338840033128,71.1,9.75,87.9,-839.35547,27.34375,446.28906,-0.1203078142679967,-0.1009892883764471,0.0039969785199922,59.25,18.6,14.85
-895.99609,156.25,415.03906,0.0146553551960711,-0.0189188454928429,0.1313660458757076,9.15,33.6,53.7,-32.22656,30.27344,964.84375,0.0191853572696224,0.0027979373238721,0.1775971997671594,69.9,9.0,89.4,-859.86328,37.10938,423.82812,-0.0955267568835552,-0.1532159973143498,0.0007993607974134,60.15,18.0,15.45
-917.48047,153.32031,416.99219,-0.0125237845806105,0.0355727772153728,0.0772741035661985,9.6,34.2,53.55,-43.45703,25.39063,957.51953,0.0475635382424242,0.0203843984657425,0.1741332448007262,70.65,10.8,90.45,-837.89062,45.89844,422.85156,-0.0419678381276052,-0.0772741035661985,0.0253139064050753,60.15,18.0,15.0
-931.15234,161.13281,416.01562,-0.063018428768834,0.0508943245869302,0.0403691165327784,9.9,31.8,52.95,-27.34375,55.17578,944.33594,0.0723445956268657,0.0472970264656447,0.2029111061722347,70.65,10.8,90.45,-860.83984,63.96484,438.47656,-0.1107151356331855,-0.0467641774450108,0.054091942309509,60.15,18.0,15.0
-954.10156,148.4375,419.92187,-0.0480965617959833,-0.1157779867273706,0.0287778613715085,9.9,33.6,53.4,-47.36328,63.96484,952.63672,0.0830031468358699,0.0803383781339249,0.2066415729154474,70.35,10.5,90.45,-852.53906,47.85156,410.64453,-0.1115144964305989,0.0089264864593249,0.0556906639043358,61.05,17.55,16.2
-961.91406,143.55469,429.6875,-0.0991240550048407,-0.0438330714992115,-0.0500949637895168,9.9,33.6,53.4,-63.96484,76.17188,959.47266,0.0444992636746978,0.0860674214035963,0.198514621786461,70.35,10.05,90.0,-876.46484,52.24609,416.01562,-0.1205743260447762,0.0411684773301918,0.0255804181818548,61.05,17.55,16.2
-975.58594,147.46094,432.12891,-0.0891316959713228,-0.0330413516682802,-0.0582220894514284,10.5,34.05,53.4,-67.87109,80.07813,969.72656,0.0602204914449619,0.1545482071323971,0.1999801747593606,70.35,10.05,90.0,-908.69141,35.15625,426.26953,-0.1292343007273217,0.0683476171068735,0.0794058487145844,61.65,18.0,14.7
-995.11719,139.64844,424.80469,-0.0444992636746978,-0.1374945950111605,0.0644839817417337,10.5,32.85,51.3,-86.42578,83.98438,991.21094,0.0438330714992115,0.2075742768677131,0.1965160452600023,71.7,10.05,88.95,-917.48047,45.41016,437.5,-0.08420218803199,0.0341072242424731,0.0766079113907123,60.3,19.8,14.1
-986.81641,126.46484,431.15234,-0.1065849884912661,-0.1209740064434829,0.0286446927495813,9.9,33.3,52.65,-100.58594,57.12891,1034.17969,0.0495619402359577,0.2055758748741797,0.2328881832727885,70.65,11.25,89.7,-921.875,45.89844,446.77734,-0.1097826062138449,0.0486294108166172,0.1068515002680456,61.8,18.3,14.85
-984.375,115.23438,431.15234,-0.1524164619840112,-0.0818039311068246,-0.0333078634450597,9.9,32.55,53.4,-100.58594,52.73438,1056.64063,0.0334410320669869,0.205842212118034,0.2492756032185389,70.5,10.35,89.55,-948.24219,15.625,432.61719,-0.1664057995375213,0.027312482931534,0.1432236382808319,60.75,19.35,16.2
-980.46875,126.46484,425.29297,-0.0863337586474507,-0.150018379591771,0.0433002224785777,9.9,32.55,53.4,-113.28125,41.01563,1069.82422,0.0544916227082157,0.2287580361308692,0.2173001241244516,70.5,10.35,89.55,-967.77344,42.48047,470.21484,-0.1241714496331365,0.0850015488294034,0.1468207618691921,61.05,19.35,14.1
-952.14844,117.67578,434.08203,-0.104320074720953,-0.1514839325646706,0.0207840788644492,10.05,33.75,53.55,-119.62891,52.24609,1054.19922,0.0583552580733556,0.1817273469090787,0.2663292153397755,70.8,10.35,89.1,-958.98437,45.89844,432.61719,-0.1674716721117143,0.1119141768293056,0.0455651362488907,60.9,19.5,14.7
-944.82422,108.88672,430.17578,-0.0623522365933478,-0.0433002224785777,0.0019984019935335,8.4,34.05,52.95,-122.55859,62.98828,1072.75391,0.0812710820861907,0.2510076679682181,0.2029111061722347,70.35,10.8,90.0,-956.54297,41.50391,482.42187,-0.2117044240096326,0.1127137121596442,0.1089830708835063,60.9,19.5,14.7
-948.73047,110.35156,437.5,0.0042633157638465,-0.0928621627145355,0.0425006871482391,10.95,33.6,54.45,-115.72266,74.70703,1065.42969,0.0658161915597809,0.2394165873398733,0.1593445464498027,70.65,11.55,90.0,-963.37891,66.89453,514.16016,-0.2439464148804994,0.1442895108550248,0.0531592383572432,61.35,19.05,14.1
-914.55078,103.51563,436.03516,-0.0198513749121835,-0.0571562168772355,0.0025314255470925,8.1,34.05,54.0,-74.70703,104.00391,1093.26172,0.0856677410048896,0.2235620164147568,0.2087733180638333,70.65,11.55,88.65,-949.21875,76.17188,513.67187,-0.2755222135758801,0.1369617459905266,0.0839356762552105,61.35,19.05,14.1
-894.53125,81.05469,449.21875,-0.051827028539196,0.0744763407752516,-0.0011990411961201,8.1,34.05,54.0,-39.0625,125.97656,1098.14453,0.1051194355183664,0.2471440326030782,0.2404824599140662,71.55,9.6,89.1,-949.21875,100.09766,545.41016,-0.2587351132314229,0.1907871765232561,0.0492956029921034,60.9,19.5,14.4
-953.61328,109.375,440.42969,0.0807380585326316,0.1426906147272728,0.0086599746825454,9.45,32.85,52.65,-33.20313,140.13672,1118.65234,0.0907304175661496,0.2711255546571811,0.2362189696172945,70.5,10.65,90.3,-957.51953,72.75391,514.16016,-0.3682512076684884,0.1654732701181807,0.0727442760255724,59.85,19.5,14.7
-979.49219,109.86328,439.94141,0.0622190679714206,0.1104486238564059,-0.0103920394322246,10.35,33.75,53.25,-55.17578,123.53516,1108.39844,0.059687642424328,0.1858576685839233,0.2645973251230215,70.8,10.35,88.5,-931.15234,67.38281,520.99609,-0.3767780137291066,0.1144456023763981,0.0046631706954784,60.15,18.75,13.95
-980.95703,98.63281,432.12891,-0.029044373148288,0.0366386497895657,-0.0911300979648563,11.25,34.35,52.95,-75.19531,139.64844,1072.75391,0.075275701572665,0.0988575432280612,0.3033675455280479,70.8,10.35,88.5,-904.29687,58.59375,517.57812,-0.3396065149189071,0.0947273960861418,-0.0102588708102974,60.6,21.0,13.95
-945.3125,81.05469,431.64062,0.0318423104721601,-0.0255804181818548,-0.0131899767560967,9.15,33.3,52.35,-94.23828,107.91016,1050.29297,0.0691469779042869,0.0219831200605693,0.3618559722233307,71.55,11.4,88.8,-878.41797,48.82813,507.32422,-0.4106187261948003,0.0588882816269146,0.039569755735365,61.35,19.05,15.15
-932.61719,77.14844,421.875,0.0941945470655079,-0.0660827033365605,0.031309286918601,9.15,33.3,52.35,-89.35547,114.74609,988.28125,0.1021883295725672,0.011191400229638,0.3314793892569954,71.1,10.8,89.7,-861.81641,80.07813,529.78516,-0.3365420658182554,0.1690703937065411,0.0067947413109391,61.05,19.8,14.85
-932.61719,85.9375,423.82812,0.0712787230526728,0.0086599746825454,-0.0345069046411798,9.15,33.3,52.35,-66.40625,113.76953,979.00391,0.0939280352887284,0.0654165111610742,0.3974287494387036,71.4,12.0,89.7,-867.67578,84.96094,520.50781,-0.3074976926699673,0.1741332448007262,0.0538254305327295,61.05,19.8,14.85
-919.92187,91.30859,440.91797,0.1271025555789358,-0.0627519169920545,0.0486294108166172,9.15,33.3,53.7,-59.57031,83.00781,962.40234,0.0919296332951949,0.1430902951259795,0.4079541320257805,71.4,12.0,89.7,-845.70312,50.29297,472.65625,-0.2625987485965628,0.165073589719474,0.0822036115055313,61.05,19.8,14.85
-910.64453,110.35156,441.40625,0.1661392877607418,-0.0189188454928429,0.1225727280383097,7.35,34.35,54.0,-60.54688,71.77734,951.66016,0.0819372742616769,0.1292343007273217,0.393165433674857,70.65,10.05,88.95,-829.10156,51.75781,505.85937,-0.2789861685423132,0.192918921671642,-0.0001331686219271,60.0,19.8,14.85
-874.51172,104.49219,461.42578,0.094860564708069,-0.0664823837352672,0.1235054319905755,10.05,33.45,52.5,-41.01563,86.91406,929.19922,0.1256370026060362,0.1509510835440367,0.3269493871834442,71.1,12.75,88.65,-824.70703,33.69141,500.97656,-0.3158913301086585,0.1496186991930643,0.1112481591867445,60.0,19.8,14.85
-831.54297,128.90625,473.63281,0.087532974376496,-0.0932618431132422,0.1283017713079811,10.35,34.2,52.5,-23.92578,104.00391,922.36328,0.089797888146809,0.1225727280383097,0.4023582573780363,71.1,12.75,88.65,-818.35937,17.08984,495.11719,-0.3605237624052835,0.1505512286124048,0.0546247913301429,59.25,20.1,14.1
-774.90234,141.11328,478.02734,0.0731439564242791,-0.05475795995207,0.2267596341373356,10.35,34.2,52.5,-22.46094,123.04688,927.24609,0.018385996472209,0.0656830229378538,0.421010765627025,71.7,12.0,87.9,-815.91797,47.36328,474.12109,-0.3593247212091633,0.0482297304179105,0.0768744231674918,62.25,18.75,15.0
-749.51172,151.36719,462.40234,0.0366386497895657,0.0500949637895168,0.1903874961245494,9.3,34.2,52.8,-47.36328,96.67969,928.71094,-0.0163874199457503,0.0804717212887773,0.4094196849986802,70.2,11.1,89.55,-813.96484,14.64844,454.58984,-0.3561271034865845,0.0331745202902074,0.074209828998472,60.0,19.35,13.8
-766.11328,156.25,432.12891,0.0334410320669869,0.1783965605645728,0.1967825570367818,10.2,33.3,53.7,-58.59375,70.80078,904.29687,0.0206509102425221,0.0389035635598788,0.4352664404243894,70.8,12.6,88.5,-805.17578,2.92969,444.82422,-0.3635880369730099,-0.0013323843509724,0.1546815502872494,60.75,20.1,14.55
-777.83203,187.98828,428.71094,0.0674150876875329,0.1867901980032639,0.2628652603733424,8.1,34.35,52.95,-68.84766,62.5,913.57422,-0.0101255276554451,0.0824701232823108,0.3727810352091144,70.8,12.6,88.5,-812.01172,-13.18359,439.94141,-0.2904440805487308,-0.0135896571548034,0.1124472003828646,60.75,20.85,13.5
-815.42969,195.3125,398.92578,-0.0158545709251164,0.2143690181786523,0.1725345232058994,9.15,33.3,52.65,-68.84766,57.61719,901.36719,0.0038636353651398,0.0516936853843436,0.3405390443382476,71.1,12.0,89.4,-815.42969,-23.92578,447.75391,-0.2968391414609632,0.0723445956268657,0.1244379614099161,61.65,20.25,15.45
-806.15234,208.49609,394.04297,-0.064750318985588,0.2883123354003449,0.1863905176045572,9.15,33.3,52.65,-66.40625,58.10547,914.0625,-0.0103920394322246,0.080871401687484,0.3473337856491867,70.2,12.15,89.1,-830.07812,-42.48047,458.98437,-0.2364854813940741,0.1121806886060851,0.1409587245105188,61.65,20.25,15.45
-830.56641,228.02734,378.41797,-0.0147886983509235,0.1809279861116653,0.1805283057129587,10.05,33.45,52.8,-65.42969,52.24609,958.49609,-0.0225161436141284,0.0822036115055313,0.3310797088582887,70.35,12.45,90.0,-850.58594,-47.36328,468.75,-0.2030444493270871,0.1803951370910315,0.0927289940926083,60.75,20.55,15.15
-833.98437,224.12109,352.53906,-0.1141790905996186,0.2976385022583765,0.093128674491315,9.0,35.25,52.8,-50.78125,28.80859,993.16406,0.0149218669728507,0.1239051123892822,0.2759218939745868,71.1,12.45,88.35,-876.46484,-46.875,463.86719,-0.1235054319905755,0.1738667330239467,0.0900643999235885,61.35,20.1,14.1
-862.30469,231.44531,351.07422,-0.1314992144976347,0.3242847930144244,0.1088499022615791,9.9,33.6,51.3,-67.38281,31.73828,1036.62109,0.0666155523571943,0.093128674491315,0.2813844254674786,70.35,12.45,88.65,-908.20312,-42.96875,479.49219,-0.1320322380511938,0.1705359466794407,0.0583552580733556,61.2,19.5,13.95
-893.55469,241.69922,324.21875,-0.0850015488294034,0.2697933448391338,0.1664057995375213,8.25,33.75,52.5,-83.98438,43.45703,1059.08203,0.0667488955120467,0.0779402957416847,0.192918921671642,70.65,12.75,89.4,-920.41016,-36.13281,469.23828,-0.0818039311068246,0.1568131209027101,-0.0007993607974134,60.3,21.15,14.1
-939.45312,250.97656,320.3125,-0.1673385034897871,0.2716585782107402,0.1184425808963904,8.25,33.75,52.5,-83.49609,72.75391,1086.91406,0.1016554805519333,0.0985910314512816,0.1817273469090787,70.65,12.75,89.4,-953.61328,-45.89844,464.84375,-0.0595542992694757,0.2254272497863632,0.0142556747973644,60.3,20.55,14.1
-968.26172,266.60156,321.77734,-0.1676048407336414,0.2188988457192784,0.1437564873014657,9.0,34.5,52.5,-125.97656,82.03125,1097.16797,0.0846018684306967,0.0779402957416847,0.1160443239712249,71.1,13.5,88.95,-977.05078,-43.45703,455.56641,0.0229158240128351,0.1886554313748702,-0.0097258472567384,61.65,19.2,15.45
-1015.625,267.08984,296.38672,-0.1873230470238978,0.1674716721117143,0.1169770279234907,9.15,33.3,52.95,-143.55469,89.84375,1093.26172,0.0555574952824086,0.1762649899491121,0.0814042507081179,70.35,13.5,88.65,-995.11719,-58.10547,443.84766,0.0447657754514773,0.1926524098948624,-0.0602204914449619,61.65,19.2,15.45
-1026.36719,276.85547,300.29297,-0.2077074454896403,0.1285681085518354,0.1300336615247351,9.0,34.2,52.2,-180.66406,76.17188,1081.05469,-0.0602204914449619,0.131099534098928,0.0909969293429291,72.0,13.35,88.8,-972.16797,-68.84766,428.71094,0.1061853080925594,0.2106385514354396,-0.0178529729186499,59.4,19.5,12.6
-1043.94531,281.73828,318.84766,-0.24487894429984,-0.1028545217480534,0.1209740064434829,8.7,33.6,51.9,-176.26953,47.85156,1041.50391,-0.0230489926347623,0.1793292645168386,0.0341072242424731,72.0,13.35,88.8,-985.35156,-76.17188,433.10547,0.1759984781723326,0.0995237354035474,0.0199847180670358,59.4,19.5,12.6
-1033.20313,276.36719,339.84375,-0.2564701994611099,-0.157878993476903,0.172401180051047,8.7,33.6,51.9,-176.26953,29.29688,1056.15234,0.0195850376683291,0.1553475679298105,0.0089264864593249,70.8,12.15,87.45,-990.23437,-50.29297,438.96484,0.2011792159554807,0.1446891912537315,0.0038636353651398,60.15,21.0,14.7
-1000.97656,278.80859,340.82031,-0.3192221164531644,-0.131099534098928,0.0919296332951949,9.45,32.85,52.35,-174.80469,20.01953,1052.73438,0.018385996472209,0.1569464640575625,-0.0884655037958365,71.1,13.2,87.15,-969.72656,-18.55469,437.5,0.2795191920958723,0.0702128504784798,0.0087933178373978,60.75,19.8,13.8
-989.74609,271.97266,353.02734,-0.3260168577641036,-0.1818606900639311,0.016787100344457,9.6,36.45,52.5,-156.73828,27.34375,1042.48047,0.0666155523571943,0.1418912539298594,-0.0754088701945922,70.8,12.9,88.5,-956.05469,-2.44141,442.38281,0.2784533195216793,0.0856677410048896,0.0576890658978693,60.3,20.1,13.05
-942.38281,250.97656,374.51172,-0.261000027001736,-0.2338208872250543,0.128834620328615,9.45,35.1,52.35,-153.80859,47.36328,1045.89844,0.1069846688899728,0.116577347524784,-0.1342971518215068,71.55,13.35,88.5,-948.24219,20.99609,448.24219,0.2761884057513663,0.0227824808579827,0.0492956029921034,60.6,21.0,14.7
-913.57422,243.16406,384.27734,-0.3142924339809064,-0.218099484921865,0.0162542513238231,9.45,35.1,52.35,-158.20312,65.91797,1007.8125,0.1582786738756097,0.0381042027624654,-0.182926562638124,71.4,12.45,88.35,-945.80078,31.73828,435.05859,0.2677947683126752,0.0365053066347134,0.0639509581881746,59.4,20.7,13.65
-883.78906,214.84375,397.94922,-0.2351530970431016,-0.2653966859204349,0.0202512298438154,9.45,35.1,52.35,-145.50781,88.37891,979.98047,0.1092495826602858,0.0271791397766816,-0.1743997565775057,72.0,15.15,86.7,-934.08203,41.99219,417.96875,0.2759218939745868,0.007860613885132,0.0542251109314362,60.75,19.8,13.8
-868.16406,187.98828,417.48047,-0.1464210814704855,-0.2154348907528452,-0.0074609334864253,9.15,35.1,52.95,-136.23047,101.07422,975.58594,0.1624088210175291,0.0107917198309313,-0.1839922606793918,72.0,15.15,86.7,-928.22266,60.05859,422.85156,0.2809847450687719,-0.0417013263508257,-0.0001331686219271,60.75,19.8,13.8
-852.05078,182.12891,428.22266,-0.1318988948963414,-0.0654165111610742,-0.1123138572280122,10.2,34.35,54.0,-135.25391,102.53906,975.09766,0.0981913510525749,-0.0149218669728507,-0.1901209843477699,72.0,14.1,89.1,-913.08594,42.96875,442.38281,0.2442129266572789,-0.0828698036810175,0.0528927265804637,60.75,19.8,13.8
-844.72656,123.04688,569.82422,-0.0226493122360556,-0.0715452348294523,-0.0615528757959344,10.5,32.85,61.05,-150.39062,181.64062,1043.45703,-0.0106585512090041,-0.0527595579585365,-0.1334976164911682,73.2,11.55,86.55,-937.01172,116.21094,448.73047,0.0339738810876208,-0.0027979373238721,-0.0041301471419193,60.0,19.05,13.5
-834.47266,123.53516,572.75391,-0.0233155044115418,0.0073277648644981,-0.0170536121212365,10.2,31.35,60.75,-144.04297,144.53125,1034.17969,0.014522186574144,-0.0572893854991626,-0.1273690673557154,73.2,11.25,86.1,-933.10547,89.35547,468.75,0.0787396565390981,0.0500949637895168,0.0085268060606182,62.1,21.15,14.1
-830.56641,130.37109,576.17187,0.023981696587028,-0.0764747427687851,-0.0025314255470925,10.95,31.8,59.7,-150.87891,151.85547,1041.50391,0.0222496318373489,-0.0611531953972277,-0.1493521874162847,72.3,12.15,87.0,-918.45703,94.23828,491.21094,0.0835359958565038,0.050761155965003,0.0175864611418704,60.15,19.5,13.95
-808.59375,104.98047,567.87109,-0.015055210127703,0.0439662401211387,-0.1213736868421896,11.1,31.2,60.15,-156.25,162.59766,1038.57422,0.0062618922903052,-0.0895313763700295,-0.1163108357480045,72.9,12.75,87.6,-930.17578,104.98047,479.49219,0.1099157748357721,0.0262466103573411,-0.0235820161883213,60.15,19.5,13.95
-819.33594,113.28125,566.89453,-0.0185191650941362,0.1574793130781963,-0.0002665117767795,11.4,31.95,61.5,-129.88281,151.85547,1036.13281,-0.0463644970463041,-0.0716784034513795,-0.1437564873014657,73.8,11.4,87.45,-926.75781,107.42188,478.51562,0.0839356762552105,0.0027979373238721,-0.0006661921754862,60.9,21.45,12.9
-856.93359,125.97656,579.58984,0.0046631706954784,0.0711455544307456,0.0126569532025376,11.4,31.95,61.5,-117.67578,155.76172,1035.15625,-0.0355727772153728,-0.1570796326794896,-0.1926524098948624,73.5,11.25,87.15,-902.83203,104.49219,477.53906,0.0511608363637097,0.0039969785199922,0.0262466103573411,60.9,21.45,12.9
-829.10156,124.51172,568.84766,-0.0266462907560478,0.0309096065198943,-0.0013323843509724,10.65,31.95,61.2,-119.14063,133.30078,1018.55469,-0.0391699008037331,-0.1450888716524382,-0.1185757495183175,72.45,11.25,86.1,-916.99219,128.90625,474.60937,0.0620857248165682,0.0508943245869302,-0.0267794593779749,60.9,20.7,15.0
-852.53906,109.86328,548.82812,-0.0803383781339249,0.1151117945518844,0.0033307863445059,10.35,32.7,59.85,-116.69922,136.71875,1017.08984,-0.0285115241276541,-0.1501515482136981,-0.1777305429220118,72.45,11.25,86.1,-911.13281,106.93359,461.91406,0.0551578148837019,-0.0177198042967228,-0.0707458740320389,61.95,21.0,13.95
-865.23437,115.72266,577.14844,-0.0704793622552594,0.0704793622552594,-0.055823832526263,11.85,31.95,60.45,-116.69922,125.0,1018.06641,-0.0319754790940873,-0.1176432200989769,-0.1279019163763492,73.5,10.5,86.85,-920.89844,106.44531,455.56641,0.049162259837251,-0.0354394340605204,-0.0578224090527217,60.6,19.5,14.4
-875.48828,107.91016,564.94141,-0.0807380585326316,-0.0369049870334201,0.0327748398915007,11.25,32.1,60.75,-118.16406,119.62891,998.53516,-0.0211837592631559,-0.0993905667816202,-0.1289677889505422,72.9,11.55,86.55,-920.89844,93.75,431.64062,0.0189188454928429,-0.039569755735365,-0.064750318985588,60.15,20.7,12.6
-852.05078,112.30469,571.28906,-0.058088746296576,0.0049295079393327,-0.0139893375535101,11.25,32.1,60.75,-129.39453,127.92969,993.65234,-0.0433002224785777,-0.1526829737607907,-0.1995803198277287,73.05,11.1,86.25,-886.23047,84.47266,466.79687,0.0267794593779749,0.0377045223637587,-0.0718115720733066,59.7,20.1,14.55
-896.48437,104.98047,573.24219,-0.0583552580733556,0.0238483534321757,-0.0141225061754373,11.25,32.1,60.75,-111.32813,120.11719,1005.37109,-0.043566559722432,-0.1702694349026612,-0.1560137601052967,72.6,11.1,87.75,-891.11328,105.46875,491.21094,0.0261132672024887,-0.0358392889921523,-0.0688804661275074,61.05,20.55,13.05
-843.26172,118.16406,581.05469,-0.0803383781339249,-0.1566799522807829,0.0326416712695735,11.1,32.4,59.1,-103.02734,121.09375,1018.06641,-0.077007591789419,-0.1171101965454179,-0.1893216235503565,73.8,12.15,87.45,-886.23047,99.12109,481.44531,0.0366386497895657,-0.0153215473715574,-0.0371714988101996,61.05,20.55,13.05
-817.87109,96.19141,583.98437,-0.0843353566539172,-0.0682144484849463,0.0043966589186989,10.2,31.8,60.0,-92.28516,137.20703,1028.32031,-0.1024548413493467,-0.1501515482136981,-0.189588135327136,73.05,11.85,88.05,-885.74219,92.77344,475.09766,0.0063950609122324,-0.0434333911005048,-0.0981913510525749,61.05,20.55,13.05
-843.26172,94.72656,597.16797,-0.1081837100860929,0.0103920394322246,-0.0247810573844414,10.35,30.9,59.1,-92.77344,105.95703,997.55859,-0.1064518198693389,-0.1333644478692411,-0.1602772504020684,73.05,11.85,88.05,-867.1875,109.86328,495.11719,0.077007591789419,-0.0166539317225298,-0.0963261176809686,61.05,21.15,13.5
-819.33594,93.26172,617.67578,-0.0913966097416358,-0.0440995832759911,-0.0519601971611231,11.85,32.7,60.15,-81.54297,95.70313,978.02734,-0.0760750623700784,-0.1381607871866467,-0.1993139825838744,73.05,11.85,88.05,-863.28125,113.76953,503.41797,0.0626187483701273,0.0763415741468579,-0.0694134896810664,60.3,20.55,13.8
-792.96875,77.63672,616.69922,-0.0776737839649052,-0.1164441789028568,-0.0243813769857347,11.85,32.7,60.15,-85.44922,139.16016,976.07422,-0.0640843013430269,-0.1416247421530798,-0.2356861205966606,73.05,11.1,86.25,-864.74609,135.25391,458.98437,0.0386370517830992,0.0766079113907123,-0.0905972489442224,60.3,19.35,13.8
-778.32031,104.00391,603.02734,-0.0519601971611231,-0.011191400229638,0.0544916227082157,10.65,33.0,61.2,-70.3125,133.78906,974.12109,-0.087532974376496,-0.0955267568835552,-0.2022450885296737,73.95,11.25,87.6,-860.83984,99.60938,489.25781,0.0893982077481023,0.0253139064050753,-0.1207074946667034,61.95,19.5,14.4
-769.53125,66.89453,594.72656,-0.0523598775598298,0.0760750623700784,0.0001331686219271,10.35,31.65,61.5,-58.59375,103.02734,1001.95312,-0.1083170532409452,-0.125503833984109,-0.1546815502872494,71.1,10.8,87.9,-864.25781,119.62891,513.18359,0.1160443239712249,0.0338407124656936,-0.1117810082073784,61.05,20.55,13.05
-801.26953,47.85156,599.60937,-0.0259800985805615,0.0135896571548034,0.0262466103573411,9.9,31.35,60.3,-69.82422,104.98047,1000.0,-0.0800720408900706,-0.1087167336396519,-0.1732005408484604,71.1,10.8,87.9,-864.74609,120.11719,478.02734,0.1396263401595463,-0.0310429496747467,-0.1108484787880378,60.3,19.8,14.1
-771.97266,50.78125,579.58984,-0.0213169278850831,0.0059953805135257,0.0103920394322246,10.95,32.1,60.0,-82.03125,71.77734,989.74609,-0.0202512298438154,-0.1168438593015635,-0.1830597312600512,72.45,9.75,87.6,-860.83984,94.72656,479.00391,0.1684043760639801,0.0017320647496791,-0.1125803690047918,60.3,19.8,14.1
-787.59766,47.36328,588.37891,-0.0648836621404404,0.1342971518215068,-0.0299770771005538,10.95,32.1,60.0,-63.96484,80.07813,1000.48828,-0.0146553551960711,-0.11990813386929,-0.1803951370910315,71.4,11.25,87.15,-866.69922,108.88672,441.40625,0.0679479367081668,-0.0102588708102974,-0.1032542021467601,60.9,19.95,14.4
-804.6875,59.57031,574.21875,-0.0106585512090041,0.1239051123892822,-0.0206509102425221,11.85,33.0,59.85,-64.45313,90.33203,970.70312,-0.0139893375535101,-0.1216401986189692,-0.1831928998819784,72.0,10.35,87.75,-849.12109,104.49219,461.42578,0.1179097318757565,-0.079272505559732,-0.1283017713079811,60.9,19.95,14.4
-822.26562,66.40625,568.35937,-0.0322419908708668,0.1000565844241813,-0.0038636353651398,12.15,31.2,60.9,-97.16797,125.0,962.89062,-0.0130566336012443,-0.1129800494034985,-0.1850581332535847,72.6,11.85,88.5,-850.09766,129.39453,454.58984,0.0406354537766327,0.0081271256619115,-0.082603291904238,60.6,19.95,14.7
-827.14844,60.54688,570.3125,-0.0668820641339739,0.103787051167394,-0.04849624219469,11.85,31.65,60.15,-77.63672,141.11328,967.28516,-0.0732771250462063,-0.0971256530113072,-0.1316323831195619,72.0,11.1,87.45,-854.49219,109.86328,423.82812,-0.0082602942838387,-0.0051960197161123,-0.1047197551196597,61.05,20.85,14.55
-811.03516,79.10156,568.35937,0.0187856768709157,0.1091164140383586,0.0655498543159266,10.5,31.35,62.1,-73.24219,162.10937,946.28906,-0.0877993116203503,-0.0666155523571943,-0.1007227765996675,72.15,10.5,87.9,-847.65625,141.60156,454.10156,-0.0133231453780239,-0.0114579120064175,-0.1217733672408963,61.35,20.55,14.1
-826.17187,97.65625,559.57031,-0.0520933657830503,0.0860674214035963,0.054091942309509,10.5,31.35,62.1,-77.14844,147.94922,957.03125,-0.1064518198693389,-0.0522267089379027,-0.0961929490590414,72.15,10.5,87.9,-854.49219,144.04297,430.17578,-0.064750318985588,0.0089264864593249,-0.0790061683158777,60.6,19.2,13.65
-818.84766,87.40234,552.24609,-0.0760750623700784,0.1496186991930643,0.0161209081689708,12.3,30.6,59.7,-97.16797,141.60156,970.70312,-0.1338974714228001,-0.0287778613715085,-0.060753514998521,71.4,9.75,88.35,-853.02734,135.25391,414.55078,-0.0246477142295891,0.0391699008037331,-0.1079173728422385,62.25,19.2,13.35
-840.33203,105.95703,550.78125,-0.096459460835821,0.0956601000384076,-0.0153215473715574,10.2,32.85,61.35,-100.58594,119.62891,976.5625,-0.1725345232058994,-0.0174532925199432,-0.0671485759107534,72.0,10.35,87.45,-882.32422,159.66797,455.56641,-0.087532974376496,0.0237151848102485,-0.1087167336396519,60.9,19.2,14.7
-838.86719,104.00391,542.96875,-0.0361056262360067,0.0330413516682802,-0.0063950609122324,10.95,33.3,60.75,-102.05078,128.41797,996.09375,-0.1257703457608885,-0.014522186574144,-0.0143890179522168,72.9,9.75,88.35,-887.20703,141.11328,432.12891,-0.1957166844625889,0.0285115241276541,-0.046897346066938,60.9,19.2,14.7
-837.40234,77.63672,541.50391,-0.1015221373970809,0.0707458740320389,-0.0263797789792682,10.95,33.3,60.75,-96.67969,121.09375,1019.53125,-0.1597442268485094,-0.0123904414257581,-0.0343737360192527,71.55,9.9,89.55,-884.76562,144.04297,449.70703,-0.1616094602201157,0.0764747427687851,-0.1430902951259795,61.05,19.8,13.8
-860.83984,51.26953,532.22656,-0.0901975685455157,0.075275701572665,-0.029044373148288,12.15,31.65,60.45,-106.93359,109.375,1013.67187,-0.1261700261595952,0.0098591904115907,0.0113245688515652,71.7,9.75,88.35,-907.22656,111.32813,427.24609,-0.2416815011101863,0.0676814249313873,-0.0799386977352182,61.05,19.8,13.8
-883.30078,46.875,517.57812,-0.0251807377831481,0.0868667822010097,-0.0774072721881257,10.35,33.45,59.4,-111.32813,90.82031,1022.46094,-0.1299004929028079,0.0001331686219271,0.0366386497895657,72.15,10.05,87.6,-923.33984,95.70313,434.57031,-0.1997136629825811,0.0802052095119978,-0.0909969293429291,59.85,17.7,14.4
-916.01562,37.10938,505.85937,0.0095926786348112,0.0426340303030914,-0.0706125308771865,12.15,31.95,60.15,-150.39062,82.03125,1018.06641,-0.1264363634034496,0.0490290912153239,0.0181194846954295,72.15,10.05,87.6,-937.01172,105.46875,432.12891,-0.2432802227050131,0.0691469779042869,-0.0708790426539661,60.0,19.05,14.85
-915.03906,58.10547,491.21094,-0.0381042027624654,0.0868667822010097,-0.1882557509761635,12.0,32.55,60.75,-158.69141,66.89453,1039.0625,-0.1089830708835063,0.0634181091675407,0.0181194846954295,73.2,9.3,87.6,-967.77344,92.28516,416.50391,-0.2348867597992472,0.0378376909856858,-0.0275788201753884,61.8,18.3,13.8
-913.08594,40.03906,497.55859,-0.0325085026476463,0.0381042027624654,-0.1680045211323481,12.0,32.55,60.75,-169.43359,71.77734,1044.43359,-0.0712787230526728,0.0795390173365115,0.0427671989250186,72.9,10.05,87.6,-952.14844,82.03125,432.12891,-0.1925190667400101,0.0138559943986577,-0.0784731447623186,60.9,19.2,13.35
-920.41016,41.01563,498.53516,0.0425006871482391,-0.0366386497895657,-0.0746095093971788,11.85,31.95,61.2,-174.31641,68.84766,1022.94922,-0.0632847660126884,0.0440995832759911,0.0603538345998143,71.55,10.35,89.55,-940.42969,85.9375,430.66406,-0.2468775208262987,-0.0221164632154217,-0.0691469779042869,60.9,19.2,13.35
-916.99219,25.87891,502.44141,-0.0082602942838387,-0.0161209081689708,-0.1644073975439878,9.45,32.55,59.7,-168.94531,92.77344,1022.46094,-0.0790061683158777,0.0439662401211387,0.0913966097416358,71.55,10.35,89.55,-927.24609,83.49609,436.03516,-0.2038438101245005,-0.0498284520127373,-0.0337075438437664,60.9,19.2,12.6
-879.88281,6.34766,506.34766,0.0394364125805126,-0.0014655529728996,-0.1008561197545199,9.9,31.35,59.7,-154.78516,110.83984,1013.67187,-0.0471638578437175,0.0314426300734534,0.0835359958565038,73.35,10.35,88.05,-916.50391,109.375,446.28906,-0.2795191920958723,-0.0563568560798221,-0.0873996312216436,61.05,18.3,14.1
-880.37109,6.34766,511.23047,0.1104486238564059,-0.1063184767144865,-0.1081837100860929,12.9,31.65,61.2,-138.18359,101.07422,1001.46484,-0.0795390173365115,0.0,0.1684043760639801,73.2,11.55,88.35,-910.64453,83.49609,447.26562,-0.2943077159138706,-0.0488959225933967,-0.050761155965003,61.05,18.3,14.1
-888.18359,17.57813,506.34766,0.0774072721881257,-0.0097258472567384,-0.1436233186795386,12.9,31.65,61.2,-118.65234,120.11719,1001.95312,-0.0971256530113072,-0.0299770771005538,0.194650811888396,72.0,9.9,88.05,-920.89844,85.9375,450.68359,-0.2784533195216793,-0.0002665117767795,-0.0868667822010097,61.35,19.05,14.55
-884.76562,12.69531,521.97266,0.110981647409965,-0.0222496318373489,-0.1897213039490632,10.35,31.95,59.85,-129.39453,90.33203,1015.625,-0.0956601000384076,-0.039569755735365,0.2070414278470793,71.25,10.35,88.05,-918.45703,91.79688,415.52734,-0.2791195116971655,0.015055210127703,-0.0309096065198943,61.35,19.05,14.55
-878.41797,21.48438,528.32031,0.1417580853079322,-0.0366386497895657,-0.0760750623700784,12.0,31.05,61.05,-122.07031,95.21484,1006.34766,-0.0939280352887284,-0.0178529729186499,0.2700596820829882,73.35,9.15,87.45,-924.31641,64.94141,431.64062,-0.2387503951643871,-0.0317089673173077,-0.0433002224785777,60.75,18.6,14.55
-872.07031,42.96875,534.66797,0.0961929490590414,-0.0471638578437175,-0.0499617951675896,12.15,31.65,59.4,-127.44141,80.07813,1009.76562,-0.0983246942074273,0.0090596550812521,0.1997136629825811,72.0,10.65,87.75,-908.20312,76.17188,438.96484,-0.25766924065723,-0.050761155965003,-0.0337075438437664,59.25,19.35,14.85
-866.69922,46.875,531.73828,0.075275701572665,-0.0798055291132911,-0.0058622118915985,12.6,31.8,60.75,-120.60547,90.82031,1014.64844,-0.1333644478692411,0.0218499514386422,0.182393539084565,72.0,10.65,87.75,-908.69141,62.5,437.01172,-0.2817841058661853,-0.0177198042967228,-0.0170536121212365,61.65,19.2,13.95
-893.55469,62.01172,542.96875,0.1119141768293056,-0.0959264372822619,-0.0018652333716063,12.6,31.8,60.75,-119.62891,93.26172,992.67578,-0.1124472003828646,0.0852680606061829,0.2067749160702998,71.7,10.05,87.6,-901.85547,54.6875,451.17187,-0.3200214772505779,-0.0049295079393327,-0.0299770771005538,60.0,18.6,14.1
-872.55859,68.84766,556.64062,0.0462311538914518,-0.068081105330094,-0.0503614755662963,11.25,29.85,61.05,-112.30469,86.91406,979.49219,-0.1052526041402936,0.077007591789419,0.1673385034897871,72.9,9.3,88.35,-896.48437,60.05859,439.94141,-0.3185559242776782,-0.042900542079871,-0.0560903443030425,60.6,19.2,15.45
-875.97656,65.42969,551.75781,0.0094593354799588,-0.140026020558253,-0.0039969785199922,11.55,32.1,59.25,-130.37109,70.3125,975.58594,-0.1224395594163826,0.0835359958565038,0.1853246450303643,73.35,9.9,87.75,-890.13672,63.47656,408.69141,-0.273257299805567,-0.0443659205198454,-0.0588882816269146,60.75,19.35,14.1
-851.07422,66.89453,561.52344,0.0526263893366094,-0.1337641282679478,0.0863337586474507,10.95,31.8,60.0,-133.78906,63.47656,982.42187,-0.1009892883764471,0.0734104682010586,0.2094395102393195,73.35,9.9,87.75,-892.57812,77.14844,435.54687,-0.1990474708070949,-0.0856677410048896,-0.0539585991546566,60.75,19.35,14.1
-863.76953,55.17578,558.59375,-0.0237151848102485,-0.0913966097416358,0.0175864611418704,12.0,30.6,61.35,-116.69922,40.52734,985.35156,-0.0929953313364626,0.0623522365933478,0.1690703937065411,72.15,9.3,88.95,-886.23047,71.28906,423.82812,-0.2475437130017849,-0.0604870032217414,-0.0026645941690197,59.85,19.5,16.5
-865.72266,71.28906,580.07812,-0.0571562168772355,-0.0471638578437175,-0.0222496318373489,12.0,30.6,61.35,-132.8125,30.27344,995.11719,-0.0510274932088574,0.0933951862680945,0.1966493884148547,72.15,10.05,88.95,-883.30078,52.24609,428.22266,-0.273257299805567,-0.0255804181818548,-0.0339738810876208,59.85,19.5,16.5
-837.89062,67.38281,585.44922,0.0071944217096458,-0.0811377389313384,0.0648836621404404,12.0,30.6,61.35,-115.72266,55.17578,979.49219,-0.055823832526263,0.0230489926347623,0.2015788963541875,72.9,9.0,87.15,-896.48437,60.54688,443.35937,-0.2976385022583765,-0.0015987215948268,0.0390367321818059,61.05,19.35,14.55
-851.07422,64.45313,589.84375,-0.0294440535469947,-0.0712787230526728,0.0735436368229858,10.95,30.6,60.75,-108.88672,75.19531,1001.46484,-0.05475795995207,0.068614128883653,0.209706022016099,72.9,9.0,87.15,-893.55469,54.6875,423.82812,-0.3562602721085117,0.0034639549664331,-0.0442327518979182,59.25,18.3,14.85
-838.86719,57.12891,583.98437,-0.0835359958565038,-0.0675482563094601,0.0142556747973644,12.0,32.1,60.0,-114.25781,85.9375,996.09375,-0.0843353566539172,0.0353062654385932,0.1745329251994329,72.6,10.65,88.05,-887.20703,52.24609,450.68359,-0.3462679130749938,0.087532974376496,-0.0278453319521679,61.2,18.45,14.4
-833.98437,58.10547,592.28516,-0.0130566336012443,-0.0968591412345277,0.0455651362488907,10.5,31.05,61.05,-104.49219,69.82422,999.02344,-0.1060521394706322,0.0776737839649052,0.24487894429984,71.4,7.8,87.6,-875.0,74.70703,472.16797,-0.3503982347498383,0.0791393369378048,0.063018428768834,61.05,19.05,15.6
-833.49609,24.41406,590.82031,-0.0265129476011954,-0.104320074720953,0.0222496318373489,13.05,31.35,61.8,-117.1875,76.66016,1005.37109,-0.0816707624848974,0.0361056262360067,0.2315559734547413,69.75,9.6,87.0,-898.92578,62.5,440.91797,-0.3781102235471539,0.0341072242424731,-0.011191400229638,61.35,19.35,14.85
-834.96094,38.08594,583.00781,-0.0133231453780239,0.0586217698501351,0.0450321126953316,13.05,31.35,61.8,-104.49219,84.47266,997.55859,-0.0568897051004559,0.1112481591867445,0.2852480608326184,69.75,9.6,87.0,-895.99609,56.15234,461.91406,-0.3088300770209398,0.0539585991546566,0.0401026047559989,61.65,19.5,13.95
-851.5625,26.36719,591.79687,0.0357059458372999,-0.0031976177225788,0.0310429496747467,10.2,32.55,60.3,-106.93359,68.35938,985.35156,-0.0727442760255724,0.1084502218628724,0.2887120157990516,72.3,9.6,87.75,-901.36719,55.66406,452.14844,-0.3396065149189071,0.0766079113907123,0.0475635382424242,61.65,19.5,13.95
