IMU1_AccX,IMU1_AccY,IMU1_AccZ,IMU1_GyrX,IMU1_GyrY,IMU1_GyrZ,IMU1_MagX,IMU1_MagY,IMU1_MagZ,IMU2_AccX,IMU2_AccY,IMU2_AccZ,IMU2_GyrX,IMU2_GyrY,IMU2_GyrZ,IMU2_MagX,IMU2_MagY,IMU2_MagZ,IMU3_AccX,IMU3_AccY,IMU3_AccZ,IMU3_GyrX,IMU3_GyrY,IMU3_GyrZ,IMU3_MagX,IMU3_MagY,IMU3_MagZ
-986.81641,-18.55469,-162.10937,0.0019984019935335,-0.0726111074036452,-0.0387702204050264,1.05,24.75,30.0,-133.78906,68.35938,1012.69531,-0.131099534098928,0.0131899767560967,0.0956601000384076,72.15,9.3,84.75,-854.49219,-46.875,587.89062,-0.4202114048296115,-0.0291777163031404,-0.0439662401211387,57.9,19.35,22.2
-989.74609,-27.83203,-163.57422,-0.0490290912153239,-0.0286446927495813,-0.1285681085518354,1.2,24.15,30.15,-136.71875,64.94141,1027.34375,-0.1077840296873862,0.0270459711547545,0.1023216727274195,72.6,9.15,84.6,-843.26172,-27.34375,607.91016,-0.414349192938013,0.0265129476011954,-0.0436999028772844,56.7,20.85,22.65
-993.16406,-37.59766,-149.90234,-0.0454317930940384,0.0317089673173077,-0.0099923590335179,1.35,25.8,29.55,-151.85547,79.58984,1030.27344,-0.1161776671260773,0.0129234649793172,0.0611531953972277,72.6,9.15,84.6,-840.33203,-45.89844,599.60937,-0.4211439342489521,0.0053291883380394,-0.0350397536618137,56.7,20.85,22.65
-979.49219,-30.76172,-148.92578,0.0233155044115418,0.0027979373238721,-0.0269126279999021,1.8,24.15,30.45,-139.64844,65.42969,1045.89844,-0.0838025076332833,-0.0079939570399844,0.0618192130397887,73.2,10.8,84.0,-853.02734,-66.40625,594.23828,-0.3762449901755476,-0.0550244717288496,-0.0179861415405771,57.9,20.55,21.9
-995.11719,-26.36719,-141.11328,-0.0181194846954295,0.0779402957416847,-0.0381042027624654,1.8,24.15,30.45,-117.67578,55.17578,1014.16016,-0.1093829258151382,0.05475795995207,0.0933951862680945,71.4,9.3,85.05,-836.91406,-83.98438,614.74609,-0.3665191429188092,-0.0462311538914518,-0.0265129476011954,57.9,20.55,21.9
-1025.87891,-32.22656,-165.52734,-0.0361056262360067,0.067015232755901,-0.0512940049856369,2.4,24.75,29.55,-127.92969,45.41016,1009.76562,-0.094860564708069,0.0728774446474996,-0.0002665117767795,72.15,9.75,85.05,-832.51953,-101.5625,588.86719,-0.403157792708375,-0.0338407124656936,0.0069280844657914,55.2,19.5,21.3
-1033.69141,-29.29688,-161.62109,-0.0039969785199922,0.0309096065198943,-0.0067947413109391,1.05,24.3,28.5,-108.39844,57.12891,1024.41406,-0.0662158719584876,0.0389035635598788,-0.0013323843509724,73.5,9.75,86.1,-812.98828,-118.16406,576.17187,-0.3522634681214447,-0.080871401687484,0.0235820161883213,56.55,20.7,22.5
-1011.23047,-29.29688,-154.29687,-0.0014655529728996,0.0042633157638465,-0.0330413516682802,1.5,24.9,30.15,-105.95703,54.19922,1028.80859,-0.0751423584178126,0.0377045223637587,0.0297105653237742,72.15,10.5,86.1,-827.63672,-113.76953,625.0,-0.3794426078981264,-0.0771409349442713,0.0021317451483858,57.0,19.95,23.55
-1012.20703,-38.08594,-153.32031,0.0118575924051242,0.0365053066347134,-0.0780734643636119,0.3,23.7,27.9,-104.49219,68.84766,1017.57812,-0.094860564708069,0.0258469299586344,0.0536922619108023,72.9,9.0,85.5,-814.45312,-84.47266,606.44531,-0.3052327788996543,-0.0411684773301918,0.0301102457224809,56.7,20.85,23.25
-1004.88281,-39.55078,-138.18359,0.0551578148837019,-0.0037304667432126,0.0357059458372999,0.3,23.7,27.9,-99.12109,66.89453,976.07422,-0.1025880099712739,0.0130566336012443,0.0253139064050753,72.9,9.0,85.5,-817.87109,-75.19531,613.76953,-0.3137595849602726,-0.0101255276554451,0.0309096065198943,56.7,20.85,23.25
-1000.0,-24.41406,-145.01953,0.0106585512090041,0.054091942309509,-0.0618192130397887,1.2,24.15,29.85,-102.05078,44.92188,1013.67187,-0.1354961930176269,0.0197182062902563,0.0053291883380394,73.05,9.6,85.65,-812.01172,-80.56641,626.46484,-0.3098959495951328,-0.0704793622552594,0.0365053066347134,55.5,19.95,22.8
-995.11719,-32.71484,-134.27734,0.0042633157638465,0.0337075438437664,0.023981696587028,1.65,24.0,28.95,-85.44922,36.13281,1031.25,-0.1208406632886305,0.0595542992694757,-0.0186523337160634,73.05,11.4,85.65,-803.71094,-75.68359,576.66016,-0.2540719425359445,-0.0363721380127862,0.0698131700797731,55.5,19.95,22.8
-1000.0,-46.875,-136.23047,0.0872664625997164,-0.0057288687367461,0.007860613885132,1.5,23.85,29.1,-106.44531,31.73828,1013.18359,-0.1000565844241813,0.0206509102425221,0.0065284040670847,71.25,10.35,85.2,-797.36328,-71.28906,612.30469,-0.196915725658709,-0.0081271256619115,0.060753514998521,56.4,20.55,22.95
-1009.27734,-64.45313,-149.90234,0.0267794593779749,0.0389035635598788,-0.1153783063286639,1.5,23.85,29.1,-98.63281,27.83203,1009.76562,-0.0972588216332344,-0.0015987215948268,0.0010658725741929,71.25,10.35,85.2,-818.84766,-63.96484,617.67578,-0.2183659966986445,-0.0586217698501351,0.0744763407752516,57.45,20.1,23.25
-1024.41406,-57.61719,-143.55469,0.0891316959713228,0.0334410320669869,-0.1128468807815713,1.5,23.85,29.1,-112.79297,50.29297,1005.85937,-0.0401026047559989,0.0674150876875329,0.0417013263508257,73.2,10.8,85.8,-806.64062,-49.80469,602.05078,-0.1681378642872005,0.0307764378979672,0.0676814249313873,56.25,20.25,23.55
-1008.30078,-54.19922,-139.16016,0.1125803690047918,-0.0242480338308824,-0.0855343978500373,1.35,24.3,28.95,-112.79297,58.59375,1008.78906,-0.0575558972759422,0.0390367321818059,0.0017320647496791,72.45,10.8,85.8,-820.3125,-50.29297,639.64844,-0.1445558480988791,0.0042633157638465,0.087532974376496,57.45,20.1,23.25
-1009.27734,-34.17969,-125.48828,0.0973919902551615,-0.0001331686219271,-0.0778071271197576,1.05,24.0,29.55,-86.91406,79.58984,1021.48437,-0.0500949637895168,0.0007993607974134,-0.0610198522423753,73.05,10.65,85.95,-807.61719,-45.41016,618.65234,-0.1919862177193762,-0.0133231453780239,0.0883323351739094,57.45,20.1,23.25
-986.32812,-35.64453,-117.1875,0.1105819670112583,0.0373046674321268,-0.0920628019171221,1.2,24.15,29.85,-94.72656,93.75,1006.34766,-0.0170536121212365,-0.0217166082837898,0.0169204434993094,72.45,9.0,85.05,-805.66406,-50.29297,623.04687,-0.1638743739904287,-0.0166539317225298,0.1175098769441246,56.7,20.1,22.65
-999.02344,-12.69531,-123.04688,0.1292343007273217,0.0,0.0033307863445059,1.2,24.15,29.85,-93.75,87.89063,1008.78906,-0.1057856276938527,0.0544916227082157,-0.0321086477160144,73.2,9.3,86.1,-832.51953,-48.82813,652.83203,-0.1704027780575135,-0.032908183046353,0.0750091897958855,57.0,20.7,24.15
-1015.13672,-16.11328,-124.51172,0.0847350370526239,-0.0271791397766816,0.0009327039522657,1.05,24.75,29.25,-91.30859,84.96094,1008.78906,-0.0936615235119489,0.0482297304179105,-0.0512940049856369,71.7,10.05,84.3,-811.03516,-45.41016,612.30469,-0.1661392877607418,-0.0688804661275074,0.0885988469506889,57.0,20.7,24.15
-1000.48828,-17.57813,-125.97656,-0.0037304667432126,-0.0051960197161123,-0.0386370517830992,1.05,24.75,30.0,-84.96094,71.77734,996.58203,-0.107650861065459,0.031309286918601,0.0237151848102485,71.7,10.05,84.3,-793.94531,-34.66797,621.58203,-0.1814610096652244,-0.0170536121212365,0.0881991665519822,57.45,20.55,22.65
-983.88672,-19.04297,-101.5625,0.0798055291132911,0.0043966589186989,-0.0194516945134768,1.5,24.6,29.85,-83.49609,75.19531,1022.94922,-0.0536922619108023,-0.0057288687367461,0.0431668793237253,71.7,10.05,84.3,-791.01562,-39.0625,625.0,-0.1492190187943576,0.0063950609122324,0.0726111074036452,57.3,20.7,24.6
-965.82031,-31.73828,-120.11719,0.0274456515534612,-0.0318423104721601,0.0062618922903052,0.3,24.3,31.05,-108.39844,62.01172,1011.71875,-0.0153215473715574,-0.0378376909856858,0.0318423104721601,72.15,9.75,85.5,-811.52344,-48.82813,617.1875,-0.1853246450303643,-0.0209172474863764,0.0460979852695246,56.7,20.55,22.2
-967.77344,-34.66797,-128.41797,0.0058622118915985,0.0740764858436197,-0.0652833425391471,0.3,24.3,31.05,-101.07422,80.07813,1017.08984,-0.0397029243572922,-0.0983246942074273,0.0051960197161123,73.05,10.35,84.9,-820.80078,-60.05859,654.78516,-0.1865236862264844,0.022382800459276,0.0650168307623675,56.4,21.15,22.65
-970.70312,-32.71484,-123.04688,0.0782068075184643,0.0816707624848974,-0.0430337107017981,1.65,24.0,28.95,-24.41406,-48.82813,857.42187,-0.1524164619840112,-0.3101622868389871,0.059687642424328,73.35,10.65,85.2,-799.31641,-51.26953,619.14062,-0.2013123845774079,0.0535589187559499,0.0999234158022541,57.6,20.25,23.85
-971.67969,-32.22656,-145.99609,0.0887320155726161,0.0358392889921523,-0.0570230482553083,1.2,24.9,29.85,-167.48047,86.91406,1054.19922,-0.0662158719584876,-0.0494287716140306,-0.0075941021083525,73.35,10.65,85.2,-822.75391,-26.85547,614.74609,-0.0718115720733066,-0.0185191650941362,0.0543582795533633,57.6,19.95,24.9
-977.05078,-38.08594,-142.57812,0.032908183046353,0.1341638086666545,-0.1195084534705833,2.4,24.3,30.3,-115.23438,82.51953,1015.13672,-0.1091164140383586,-0.0550244717288496,0.0658161915597809,72.0,10.65,86.7,-804.19922,-28.80859,614.74609,-0.0526263893366094,0.0011990411961201,0.0578224090527217,57.6,19.95,24.9
-990.72266,-15.13672,-148.4375,0.0551578148837019,0.1036538825454668,-0.0980581824306478,1.65,25.05,30.0,-130.85937,73.73047,996.09375,-0.1291011321053945,-0.1337641282679478,0.0235820161883213,72.15,9.0,86.1,-819.33594,-15.625,605.95703,-0.0783399761403914,-0.004529827540626,0.0536922619108023,55.2,20.25,23.85
-987.30469,-14.16016,-164.55078,0.0510274932088574,0.0724777642487929,-0.0243813769857347,1.65,25.05,30.0,-122.07031,81.05469,1013.67187,-0.0446324322966249,-0.1849249646316576,0.0532925815120956,74.25,9.0,85.05,-811.52344,-3.41797,626.95312,-0.0889985273493956,0.0227824808579827,0.0182526533173567,57.9,19.8,22.95
-970.21484,-13.18359,-153.80859,0.0097258472567384,0.0893982077481023,-0.0744763407752516,1.65,25.05,30.0,-83.98438,95.21484,1017.08984,-0.0425006871482391,-0.172401180051047,0.0644839817417337,72.45,10.05,86.1,-828.125,-3.41797,628.41797,-0.1064518198693389,0.0186523337160634,0.0604870032217414,56.7,20.55,24.3
-981.44531,-3.41797,-158.69141,0.0010658725741929,0.0644839817417337,-0.0213169278850831,0.3,25.05,28.95,-86.91406,130.85937,1027.83203,-0.0258469299586344,-0.1207074946667034,0.0471638578437175,72.3,9.6,86.7,-808.10547,-18.06641,606.93359,-0.1248376418086228,0.0422343499043847,0.0470306892217904,56.1,19.8,23.25
-992.67578,-7.32422,-161.13281,-0.0163874199457503,0.0382373713843925,-0.0694134896810664,2.1,24.0,29.25,-85.9375,122.55859,982.91016,-0.0025314255470925,-0.1334976164911682,0.0977916706538682,72.45,9.0,85.8,-802.73437,-19.04297,612.79297,-0.1322985752950481,0.0401026047559989,0.0476967068643514,58.95,19.8,22.95
-994.62891,-19.53125,-170.89844,-0.0520933657830503,0.0467641774450108,-0.0975253334100139,0.75,24.15,30.15,-78.125,100.09766,1009.27734,-0.013456313999951,-0.1743997565775057,0.1245711300318432,72.45,9.0,85.8,-809.57031,-19.53125,601.07422,-0.1029876903699806,-0.0014655529728996,0.1040535629441735,58.35,20.25,23.1
-975.58594,-42.48047,-165.03906,0.0099923590335179,0.0551578148837019,-0.0479632186411309,1.65,22.5,30.0,-75.19531,76.17188,1026.85547,-0.0644839817417337,-0.1501515482136981,0.105385947295146,73.05,9.9,85.2,-802.24609,-43.94531,608.39844,-0.0586217698501351,0.0033307863445059,0.0479632186411309,58.35,20.25,23.1
-960.44922,-59.57031,-162.59766,0.0337075438437664,0.0018652333716063,-0.0514271736075641,1.65,22.5,30.0,-85.44922,48.82813,1017.57812,-0.0253139064050753,-0.1686707133078344,0.1017886491738605,72.9,9.75,87.15,-792.48047,-48.33984,603.02734,-0.0299770771005538,0.046897346066938,0.0049295079393327,58.2,21.15,23.25
-981.93359,-66.89453,-149.90234,-0.0193185258915496,0.0929953313364626,-0.1280352595312016,2.25,23.85,27.75,-102.53906,53.71094,1015.625,-0.0488959225933967,-0.0988575432280612,0.0794058487145844,72.3,8.85,85.95,-798.33984,-71.28906,609.375,-0.0760750623700784,0.0235820161883213,0.0588882816269146,58.2,21.15,23.25
-966.30859,-40.03906,-159.17969,0.0370383301882724,0.0349065850398865,-0.1105819670112583,2.1,23.7,30.0,-114.74609,78.125,1036.13281,0.0369049870334201,-0.0949939078629213,0.0895313763700295,72.3,8.85,85.95,-789.0625,-65.91797,605.46875,-0.0708790426539661,0.1063184767144865,0.0627519169920545,57.45,20.1,24.0
-946.28906,-37.59766,-168.45703,0.0415681577288985,0.0434333911005048,-0.0377045223637587,1.65,24.3,29.55,-118.65234,98.63281,1024.90234,0.0366386497895657,-0.0832694840797242,0.1281684281531288,72.45,10.5,87.15,-800.78125,-84.47266,593.75,-0.0063950609122324,0.1227058966602369,-0.0209172474863764,56.4,21.15,24.0
-986.81641,-33.20313,-182.61719,0.0021317451483858,0.0992572236267679,-0.0487625794385443,1.2,22.35,28.35,-109.375,114.74609,1015.13672,0.0425006871482391,-0.1225727280383097,0.0722112524720134,71.55,9.6,86.7,-817.87109,-91.79688,580.56641,0.0318423104721601,0.1385604675853534,0.0021317451483858,57.45,21.15,22.2
-1003.90625,-22.46094,-208.00781,0.0190520141147701,0.0975253334100139,-0.0006661921754862,1.2,22.35,28.35,-121.09375,105.46875,990.72266,-0.0142556747973644,-0.0440995832759911,0.0820704428836041,71.55,9.6,86.7,-829.10156,-89.35547,575.19531,0.0590214502488418,0.1171101965454179,-0.0065284040670847,57.0,21.0,23.55
-1037.10938,-27.34375,-227.53906,0.0259800985805615,0.0265129476011954,0.0217166082837898,1.5,23.1,29.1,-116.21094,70.3125,981.44531,-0.0472970264656447,-0.0299770771005538,0.0409019655534123,71.4,11.25,85.8,-836.91406,-102.53906,554.19922,0.0960597804371143,0.0909969293429291,-0.0017320647496791,57.0,21.0,23.55
-1011.71875,-20.50781,-206.05469,-0.0291777163031404,0.055823832526263,0.0515605167624164,2.1,24.0,28.95,-120.11719,49.31641,994.62891,-0.0500949637895168,-0.0017320647496791,0.0387702204050264,71.1,9.3,86.55,-857.91016,-103.02734,570.80078,0.1291011321053945,0.1095160944370653,-0.0281118437289474,57.0,21.0,23.55
-1027.34375,-8.78906,-208.00781,-0.022382800459276,0.0357059458372999,0.0117244237831971,1.2,23.85,29.1,-116.21094,61.03516,996.58203,-0.0162542513238231,-0.0303767574992605,0.0608866836204481,72.15,10.8,87.15,-848.14453,-99.12109,553.71094,0.1401591891801802,0.0687472975055802,-0.0007993607974134,58.05,21.75,23.1
-1002.44141,-18.06641,-216.79687,0.0121241041819038,-0.0627519169920545,0.0642174699649541,0.6,24.0,29.25,-140.625,63.47656,979.00391,0.0415681577288985,-0.0031976177225788,0.0459648166475974,72.15,10.8,87.15,-855.46875,-69.82422,578.61328,0.0880658233971298,0.0564900247017492,-0.0615528757959344,58.05,21.75,23.1
-987.30469,-15.13672,-205.56641,-0.0347734164179594,0.0029311059457992,-0.0053291883380394,0.6,24.0,29.25,-144.53125,59.57031,1000.97656,0.0089264864593249,-0.0161209081689708,0.0051960197161123,72.9,9.75,87.15,-855.95703,-74.21875,547.36328,0.1064518198693389,0.0282450123508746,-0.0567565364785288,57.3,21.45,23.55
-982.91016,-6.83594,-208.49609,-0.0863337586474507,0.0181194846954295,-0.0415681577288985,2.25,24.15,28.8,-150.87891,50.29297,998.04687,-0.0333078634450597,-0.0179861415405771,-0.0265129476011954,72.45,9.75,85.5,-866.21094,-59.08203,578.125,0.0542251109314362,0.0138559943986577,-0.0439662401211387,58.05,20.25,23.85
-973.14453,-3.41797,-199.70703,-0.0479632186411309,-0.0143890179522168,0.0720780838500862,0.3,23.7,30.3,-145.50781,53.71094,991.69922,0.006128723668378,-0.0623522365933478,-0.0278453319521679,72.15,8.55,86.85,-857.42187,-75.19531,575.68359,0.077540615342978,-0.0030642745677264,-0.0579555776746489,57.0,20.7,22.5
-973.63281,-0.97656,-184.57031,-0.1093829258151382,0.0083936374386911,-0.0005328490206338,-0.45,24.15,28.05,-120.60547,29.78516,1007.8125,0.0305099261211876,-0.060753514998521,-0.0578224090527217,72.3,9.6,88.05,-852.53906,-73.73047,565.91797,0.1171101965454179,0.0259800985805615,-0.0546247913301429,57.6,22.2,22.5
-983.39844,-26.85547,-182.61719,-0.0734104682010586,0.0105252080541518,-0.0373046674321268,0.0,24.0,28.5,-117.1875,28.80859,994.14062,0.059154618870769,-0.0444992636746978,-0.0411684773301918,72.0,9.6,86.25,-857.91016,-68.84766,588.86719,0.0682144484849463,-0.032375159492794,-0.098724374606134,58.05,22.2,23.85
-979.98047,-35.15625,-180.66406,-0.0483628990398376,-0.0114579120064175,0.0310429496747467,0.0,24.0,28.5,-95.70313,20.99609,1000.48828,0.0812710820861907,-0.0912634411197086,-0.0873996312216436,73.2,9.0,85.8,-835.9375,-76.66016,577.14844,0.0490290912153239,-0.0550244717288496,-0.0603538345998143,57.15,19.8,23.7
-971.19141,-34.66797,-194.82422,-0.0085268060606182,-0.0419678381276052,0.0544916227082157,0.0,24.0,30.0,-97.16797,21.48438,1015.13672,0.0403691165327784,-0.1064518198693389,-0.0782068075184643,73.2,9.0,85.8,-833.00781,-59.57031,594.72656,0.0516936853843436,-0.0439662401211387,-0.0093261668580317,57.15,19.8,23.7
-981.93359,-53.22266,-187.01172,-0.0229158240128351,0.0405022851547056,-0.0297105653237742,1.2,25.35,30.45,-102.53906,36.62109,1015.13672,0.0586217698501351,-0.1004564393558132,-0.0973919902551615,71.1,10.5,86.1,-821.28906,-59.57031,584.47266,0.0559571756811154,-0.0326416712695735,-0.0699463387017003,57.15,20.85,22.2
-991.21094,-43.45703,-174.31641,0.0197182062902563,-0.0066615726890119,0.023448673033469,1.2,24.6,28.8,-94.23828,46.38672,1000.0,0.071944915228159,-0.0820704428836041,-0.0831363154577971,72.6,9.6,86.7,-816.40625,-69.33594,562.98828,0.1326982556937548,0.0007993607974134,-0.0147886983509235,57.9,20.55,23.25
-980.95703,-30.76172,-180.17578,0.0610198522423753,-0.023448673033469,0.0403691165327784,1.35,23.25,29.55,-102.53906,72.75391,1006.83594,0.0702128504784798,-0.0836691644784309,-0.1151117945518844,70.65,9.3,86.1,-810.54687,-50.29297,574.70703,0.1629418445710882,-0.036238969390859,-0.0458314734927451,57.6,21.45,24.15
-995.11719,-24.90234,-192.38281,0.0142556747973644,0.0421010067495324,-0.0433002224785777,1.35,23.25,29.55,-116.69922,56.15234,979.49219,0.050761155965003,-0.3197549654737983,-0.0698131700797731,70.65,9.3,86.1,-830.56641,-65.42969,593.26172,0.1654732701181807,-0.0417013263508257,-0.0245145456076619,57.9,20.85,24.0
-996.58203,-29.29688,-180.66406,0.0385038831611721,-0.0087933178373978,0.0131899767560967,1.65,22.95,29.55,-89.35547,68.84766,1040.52734,0.1235054319905755,-0.0550244717288496,-0.1097826062138449,70.65,9.3,86.1,-820.3125,-63.47656,590.33203,0.2266262909824833,-0.0361056262360067,0.0161209081689708,57.45,20.55,23.7
-1006.83594,-20.99609,-173.33984,0.0011990411961201,0.0197182062902563,0.0359724576140795,0.3,24.75,29.55,-83.98438,47.85156,1015.625,0.0940612039106556,-0.0588882816269146,-0.1330979360924615,70.65,9.3,86.1,-814.94141,-69.82422,580.07812,0.1680045211323481,-0.0074609334864253,0.0037304667432126,57.0,21.45,23.1
-1004.88281,-21.97266,-170.41016,0.023981696587028,0.0343737360192527,-0.0191853572696224,1.35,22.95,28.95,-72.75391,49.80469,1018.55469,0.1187090926731699,-0.0928621627145355,-0.1545482071323971,71.7,10.05,86.55,-812.5,-83.98438,600.09766,0.2150352103541385,-0.0213169278850831,0.0266462907560478,57.0,21.45,23.1
-1011.23047,-28.32031,-165.52734,0.0197182062902563,-0.0301102457224809,-0.0105252080541518,0.6,22.95,29.55,-63.96484,73.73047,1000.0,0.1075176924435318,-0.1759984781723326,-0.1762649899491121,72.3,9.9,86.25,-823.73047,-68.84766,594.72656,0.1959831962393684,0.0001331686219271,-0.0169204434993094,55.8,21.0,24.15
-1029.29688,-35.64453,-164.55078,0.0214502710399355,-0.0656830229378538,-0.0069280844657914,0.6,22.95,29.55,-38.57422,77.14844,1029.29688,0.0784731447623186,-0.1209740064434829,-0.1111148160318922,72.6,9.15,87.45,-807.12891,-43.94531,632.8125,0.1839922606793918,0.0119907610270514,0.0151883787496302,55.8,21.0,24.15
-1019.53125,-40.52734,-147.46094,0.061419532641082,-0.0303767574992605,-0.0571562168772355,1.5,24.15,29.4,-43.94531,84.96094,1013.18359,0.0715452348294523,-0.0702128504784798,-0.1672051603349347,71.25,9.6,87.75,-791.50391,-47.36328,585.44922,0.2126371279618983,0.0070612530877186,0.0233155044115418,57.3,20.7,23.85
-1003.90625,-45.41016,-148.92578,0.0810045703094112,-0.0430337107017981,-0.041301645952119,1.2,22.65,30.15,-58.59375,83.00781,1005.37109,0.0707458740320389,-0.0722112524720134,-0.1810613292665177,71.4,10.5,86.55,-797.85156,-33.69141,581.05469,0.2756553821978072,0.0254472495599277,-0.0073277648644981,57.45,20.55,23.25
-997.07031,-45.41016,-139.64844,0.0840688448771376,-0.1111148160318922,-0.0007993607974134,0.0,24.75,29.25,-72.75391,90.82031,1018.06641,0.049162259837251,-0.1084502218628724,-0.1352296812408474,71.4,10.5,86.55,-798.82812,-13.18359,600.09766,0.2443460952792061,0.0305099261211876,-0.0075941021083525,57.9,20.85,23.25
-983.39844,-42.48047,-150.39062,0.059154618870769,-0.0746095093971788,-0.0899310567687362,1.8,23.4,29.4,-79.58984,82.51953,1017.57812,0.0235820161883213,-0.1203078142679967,-0.0760750623700784,71.1,10.05,86.55,-808.59375,-11.23047,596.67969,0.2387503951643871,0.0282450123508746,-0.029044373148288,57.15,20.55,23.25
-991.21094,-51.75781,-131.83594,0.1220398790176759,-0.0780734643636119,-0.0421010067495324,1.8,23.4,29.4,-74.21875,72.26563,998.04687,0.0495619402359577,-0.0791393369378048,-0.1033873707686873,71.25,8.1,86.25,-820.80078,-12.69531,599.60937,0.1819938586858583,0.0337075438437664,-0.0740764858436197,57.15,20.55,23.25
-978.51562,-39.0625,-144.53125,0.0887320155726161,-0.0433002224785777,0.0389035635598788,0.6,23.25,28.5,-78.125,95.70313,1027.83203,0.0462311538914518,-0.0700796818565527,-0.152283293362084,71.4,9.3,86.55,-832.51953,-2.92969,572.75391,0.1497518678149914,0.0535589187559499,-0.0129234649793172,57.15,20.55,23.25
-983.39844,-35.15625,-142.08984,0.0474303696204971,0.0520933657830503,-0.0007993607974134,1.35,23.25,27.45,-89.84375,82.03125,1016.60156,0.0755420388165193,-0.0341072242424731,-0.1243047927879889,71.4,9.3,86.55,-823.73047,-5.85937,578.61328,0.1791960958949114,0.0798055291132911,-0.0456983048708179,55.8,19.5,23.55
-1001.95312,-34.66797,-150.39062,0.1047197551196597,0.0659495347146333,0.0221164632154217,1.2,22.65,29.85,-77.63672,92.77344,998.04687,0.0860674214035963,-0.0536922619108023,-0.0988575432280612,72.3,8.85,87.45,-836.91406,9.27734,606.44531,0.1408253813556664,0.0550244717288496,-0.0225161436141284,55.8,19.5,23.55
-1000.97656,-43.94531,-146.97266,0.0945942274642146,-0.0049295079393327,0.0843353566539172,1.35,24.3,29.85,-72.75391,81.05469,999.51172,0.089797888146809,-0.0582220894514284,-0.1041869060990259,72.0,9.15,86.7,-827.63672,-19.04297,608.88672,0.1505512286124048,0.0090596550812521,0.005595700114819,56.7,19.35,23.25
-984.375,-47.36328,-156.25,0.0504946441882235,0.0409019655534123,-0.020117886688963,1.35,24.3,29.25,-81.05469,81.54297,1021.97266,0.0575558972759422,-0.068614128883653,-0.086467101802303,72.0,9.15,86.7,-828.125,-2.44141,590.82031,0.1658729505168874,0.0065284040670847,-0.0171867807431637,56.55,21.75,22.8
-980.46875,-31.73828,-165.03906,0.0830031468358699,0.1073843492886795,0.0075941021083525,1.35,24.3,29.25,-87.89063,100.09766,1036.62109,0.0634181091675407,-0.0118575924051242,-0.0937948666668012,70.5,9.9,87.0,-832.03125,-0.97656,617.67578,0.1557472483285172,0.0199847180670358,0.0194516945134768,55.8,21.0,23.1
-999.51172,-34.17969,-158.20312,0.1224395594163826,0.0354394340605204,0.046897346066938,1.8,23.1,29.1,-95.21484,111.81641,1010.74219,0.0651499993842947,-0.0448989440734045,-0.1397595087814735,71.1,9.3,87.6,-819.82422,11.71875,586.91406,0.1927855785167896,0.0534257501340228,-0.0452986244721112,58.95,20.55,22.65
-1017.57812,-25.39063,-156.25,0.0471638578437175,0.1256370026060362,-0.011191400229638,0.75,23.4,29.4,-80.56641,131.83594,999.02344,0.063684446411395,-0.0338407124656936,-0.0658161915597809,70.65,10.5,86.85,-824.70703,33.20313,607.42187,0.1420244225517865,0.0405022851547056,0.0059953805135257,57.0,21.0,22.8
-1002.44141,15.13672,-178.22266,0.061419532641082,0.1284349399299083,-0.0059953805135257,0.15,24.9,29.4,-67.38281,137.69531,993.16406,0.0564900247017492,-0.0311761182966739,-0.0866002704242302,70.65,10.5,86.85,-820.80078,43.45703,581.05469,0.1284349399299083,0.0600873228230347,-0.0579555776746489,58.2,21.15,22.2
-1010.25391,22.94922,-158.20312,0.0600873228230347,0.0227824808579827,0.0913966097416358,-0.45,22.35,28.35,-61.03516,123.53516,1014.64844,0.0422343499043847,-0.0843353566539172,-0.0678147680862396,72.3,9.6,85.95,-809.08203,17.08984,595.70312,0.1117810082073784,0.0534257501340228,-0.0270459711547545,58.2,21.15,22.2
-1000.97656,13.18359,-163.08594,-0.0603538345998143,0.13776110678794,0.0438330714992115,-0.45,22.35,28.35,-35.64453,107.91016,1017.57812,0.0448989440734045,-0.0704793622552594,-0.0840688448771376,71.25,8.4,86.7,-801.75781,22.46094,585.9375,0.0626187483701273,0.0079939570399844,-0.0504946441882235,56.1,20.85,21.9
-993.16406,-6.34766,-168.45703,-0.0900643999235885,0.0616860444178615,0.0138559943986577,0.6,23.7,30.0,-62.01172,96.19141,1002.92969,0.03064326927604,-0.0486294108166172,-0.0892648645932499,71.7,10.05,87.6,-786.62109,16.60156,588.86719,0.0794058487145844,0.0375711792089063,-0.0031976177225788,57.15,22.35,23.25
-990.23437,-28.32031,-170.41016,-0.040235773377926,0.0237151848102485,0.023448673033469,-0.15,23.85,29.4,-46.875,82.51953,988.76953,0.0438330714992115,0.0194516945134768,-0.0763415741468579,71.4,8.55,87.6,-815.91797,-5.37109,605.46875,0.0556906639043358,-0.0025314255470925,0.004529827540626,57.45,19.35,22.95
-989.25781,-28.80859,-164.0625,-0.0843353566539172,0.0744763407752516,0.0347734164179594,0.15,24.15,28.8,-72.75391,92.77344,997.07031,0.0281118437289474,-0.0242480338308824,0.0077274452632048,71.25,10.65,86.25,-822.26562,-9.27734,603.02734,0.0814042507081179,0.0246477142295891,-0.0623522365933478,56.4,21.6,22.65
-994.62891,-42.48047,-165.03906,-0.0847350370526239,0.1145789455312505,-0.0259800985805615,1.5,23.85,28.8,-59.08203,124.51172,999.51172,0.0734104682010586,-0.0017320647496791,-0.0476967068643514,72.45,9.3,86.1,-833.98437,-13.18359,622.07031,0.0289112045263608,0.0255804181818548,-0.029044373148288,57.15,21.6,23.25
-974.60937,-24.90234,-151.85547,-0.0202512298438154,0.0648836621404404,0.0612863640191548,1.5,23.85,28.8,-74.21875,126.95313,997.07031,0.0568897051004559,-0.0843353566539172,-0.0458314734927451,72.45,9.3,86.1,-825.68359,-15.625,613.28125,0.0321086477160144,0.0031976177225788,-0.0666155523571943,57.6,20.7,23.1
-981.44531,-25.39063,-149.41406,-0.1133797298022052,0.0698131700797731,-0.0287778613715085,0.15,23.85,29.1,-40.52734,121.09375,1005.85937,0.015055210127703,-0.0480965617959833,-0.0181194846954295,71.4,9.75,87.15,-814.94141,-19.53125,619.14062,0.0278453319521679,0.0452986244721112,-0.0151883787496302,57.6,20.7,23.1
-981.44531,-17.08984,-152.83203,-0.0707458740320389,0.1083170532409452,-0.0322419908708668,1.65,22.95,29.25,-54.6875,105.46875,1000.97656,0.0126569532025376,0.0106585512090041,-0.0113245688515652,69.9,9.75,86.55,-822.26562,-40.03906,624.51172,0.0182526533173567,-0.0067947413109391,-0.0758085505932989,58.05,19.95,23.55
-981.93359,-20.01953,-158.69141,-0.0225161436141284,0.0191853572696224,0.0658161915597809,1.5,23.4,29.85,-49.31641,91.79688,1015.625,0.0210505906412288,-0.0409019655534123,-0.0299770771005538,70.8,9.15,86.25,-812.01172,-47.85156,620.60547,0.0309096065198943,-0.039569755735365,-0.0474303696204971,58.05,19.95,23.55
-969.23828,-33.69141,-150.39062,-0.0584886012282079,0.0137228257767306,0.0238483534321757,0.15,23.85,29.1,-27.34375,75.19531,1002.44141,0.0138559943986577,-0.020117886688963,-0.0159877395470436,70.8,9.15,86.25,-791.99219,-36.13281,627.44141,0.0350397536618137,-0.0202512298438154,-0.0299770771005538,56.25,21.45,22.5
-970.21484,-25.39063,-151.85547,-0.1245711300318432,0.0856677410048896,0.0389035635598788,0.15,23.85,29.1,-46.875,70.3125,996.09375,0.0070612530877186,-0.0378376909856858,-0.0367718184114929,71.1,8.25,86.55,-800.78125,-51.26953,622.55859,0.0532925815120956,-0.0271791397766816,-0.0536922619108023,56.55,19.5,22.5
-962.89062,-31.25,-156.25,-0.0848683802074762,0.0283781809728018,0.0854012292281101,0.3,22.5,29.25,-40.52734,82.03125,1001.46484,-0.0017320647496791,-0.013456313999951,-0.045165455850184,69.6,10.5,85.05,-802.73437,-64.45313,629.39453,0.0634181091675407,-0.0389035635598788,-0.0933951862680945,56.55,21.75,22.5
-958.98437,-35.15625,-158.20312,-0.0277121633302407,0.0767412545455646,0.0909969293429291,-0.15,23.4,28.8,-40.52734,65.91797,1012.69531,0.0227824808579827,-0.0678147680862396,-0.0390367321818059,71.25,9.6,86.7,-795.89844,-60.05859,645.01953,0.0867336135790826,-0.0318423104721601,-0.0643506385868813,57.6,21.0,23.55
-968.75,-48.82813,-154.29687,-0.1055191159170731,0.1019218177957876,0.0582220894514284,0.6,23.7,28.5,-47.36328,58.59375,1009.27734,0.04849624219469,-0.0608866836204481,-0.0467641774450108,70.5,10.35,86.25,-787.10937,-67.87109,615.72266,0.1005896079777403,-0.0310429496747467,-0.1253706653621819,57.6,21.0,23.55
-959.96094,-34.17969,-164.55078,-0.0327748398915007,0.095393588261628,0.1300336615247351,1.05,23.7,28.2,-41.01563,49.80469,1008.78906,0.0039969785199922,-0.0099923590335179,-0.0756753819713717,70.5,10.65,87.0,-793.45703,-70.3125,651.85547,0.1031210335248329,-0.0279785005740951,-0.0511608363637097,56.25,21.0,23.55
-962.40234,-45.89844,-177.73437,-0.0542251109314362,0.0706125308771865,0.0850015488294034,1.05,23.7,28.2,-54.6875,31.73828,1010.25391,0.0154548905264097,-0.0563568560798221,-0.1145789455312505,71.1,8.25,86.55,-800.29297,-76.66016,628.90625,0.174000076178799,-0.0667488955120467,-0.0535589187559499,56.25,19.5,22.5
-980.46875,-32.71484,-173.33984,-0.1001899275790336,0.0671485759107534,0.040235773377926,0.75,24.9,29.1,-62.01172,71.28906,1025.39063,0.0515605167624164,-0.0359724576140795,-0.1219065358628235,71.1,8.25,86.55,-802.24609,-61.03516,606.44531,0.2174334672793039,-0.0090596550812521,-0.0478300500192038,56.25,19.5,22.5
-971.67969,-26.36719,-177.73437,-0.0254472495599277,0.0117244237831971,0.0802052095119978,1.05,24.3,29.25,-56.15234,94.72656,1027.83203,0.0659495347146333,-0.1552143993078833,-0.1189754299170242,71.1,8.25,86.55,-799.31641,-28.80859,629.39453,0.2384838833876076,-0.0467641774450108,-0.0438330714992115,57.45,20.1,22.95
-972.65625,-13.18359,-172.85156,-0.0515605167624164,0.0031976177225788,0.1268362183350815,0.6,23.7,28.5,-49.80469,131.83594,1002.44141,0.0255804181818548,-0.0827366350590903,-0.0552909835056291,70.35,8.55,86.85,-809.08203,-23.4375,616.21094,0.192918921671642,-0.0337075438437664,-0.0731439564242791,57.15,21.6,21.6
-976.07422,-3.41797,-188.47656,-0.0924624823158288,0.1001899275790336,0.078606487917171,-0.6,23.7,28.2,-41.01563,130.37109,1007.32422,-0.032908183046353,-0.0803383781339249,-0.0676814249313873,71.1,9.3,87.15,-817.87109,-21.48438,602.05078,0.200246512003215,-0.0570230482553083,-0.1236386006125027,58.35,20.7,22.5
-988.76953,-5.37109,-190.42969,-0.0431668793237253,-0.0029311059457992,0.0800720408900706,-0.6,23.7,28.2,-38.57422,116.69922,1019.04297,-0.0414349891069713,-0.0656830229378538,-0.0542251109314362,72.15,9.3,87.15,-819.82422,1.46484,592.77344,0.2282251871102353,-0.0039969785199922,-0.1521501247401568,56.7,18.6,22.95
-979.98047,-10.74219,-201.17187,-0.0648836621404404,0.0047963393174056,0.0831363154577971,1.35,24.75,27.9,-33.20313,68.84766,1048.33984,-0.0862005900255235,-0.0648836621404404,-0.0285115241276541,72.15,9.3,87.15,-804.19922,20.50781,605.46875,0.1986477904083882,-0.0030642745677264,-0.0744763407752516,56.7,18.6,22.95
-973.63281,-16.11328,-205.56641,-0.0640843013430269,0.0627519169920545,0.0109248884528585,1.5,24.15,28.8,-47.85156,25.39063,1056.15234,-0.0482297304179105,-0.0997902471803269,-0.0550244717288496,69.9,9.0,87.15,-817.87109,2.44141,622.07031,0.1586783542743164,-0.0141225061754373,-0.0744763407752516,57.45,21.6,23.25
-986.81641,-8.78906,-196.28906,-0.0281118437289474,0.0093261668580317,0.0444992636746978,1.05,25.05,28.2,-55.17578,18.55469,1036.62109,0.0066615726890119,-0.1068515002680456,-0.0584886012282079,72.0,8.85,86.7,-813.47656,-5.85937,615.23437,0.1293674693492489,-0.0041301471419193,-0.0744763407752516,57.45,21.6,23.25
-979.98047,-5.85937,-194.33594,-0.0233155044115418,-0.0326416712695735,0.0417013263508257,1.05,25.05,28.2,-62.5,29.29688,994.14062,0.0307764378979672,-0.093128674491315,-0.0885988469506889,72.0,8.85,86.7,-832.03125,-8.78906,601.5625,0.1312327027208552,-0.0311761182966739,-0.0616860444178615,56.55,21.0,22.05
-986.81641,-7.32422,-201.66016,-0.1061853080925594,0.0274456515534612,-0.0173201238980161,0.45,25.65,28.05,-60.54688,53.22266,1024.90234,0.0347734164179594,-0.0460979852695246,-0.1033873707686873,70.5,8.1,86.7,-825.68359,-14.64844,573.73047,0.1646737347878422,-0.0047963393174056,-0.0361056262360067,57.45,22.35,24.0
-989.25781,-13.67187,-211.42578,-0.0544916227082157,-0.0113245688515652,-0.0515605167624164,-0.15,24.15,27.0,-79.10156,64.45313,1045.41016,0.0243813769857347,-0.068081105330094,-0.122173047639603,71.1,9.75,85.8,-827.63672,17.57813,554.19922,0.2400826049824344,0.0105252080541518,-0.0093261668580317,57.0,21.0,23.1
-993.65234,-16.60156,-228.51562,0.0095926786348112,-0.0401026047559989,-0.0390367321818059,2.1,24.0,28.5,-83.00781,83.98438,1030.76172,-0.0157212277702641,-0.093128674491315,-0.0726111074036452,70.2,9.6,86.25,-832.03125,25.87891,541.50391,0.1666723113143009,0.0659495347146333,-0.041301645952119,56.4,20.1,22.65
-1004.39453,-30.76172,-232.42187,-0.078606487917171,0.0375711792089063,-0.0403691165327784,1.5,23.85,28.05,-90.33203,64.94141,1022.46094,-0.0470306892217904,-0.086467101802303,-0.0207840788644492,70.2,9.6,86.25,-834.47266,48.82813,555.66406,0.1328315988486072,0.0382373713843925,0.0227824808579827,57.15,19.35,22.65
-1012.69531,-59.08203,-217.28516,-0.0103920394322246,-0.025713586803782,-0.1060521394706322,1.5,23.85,28.05,-90.82031,78.61328,1005.85937,-0.027312482931534,-0.0923293136939016,-0.0383705400063197,70.5,9.15,85.95,-830.07812,53.71094,555.66406,0.0723445956268657,0.0070612530877186,0.0130566336012443,58.05,19.95,23.1
-1004.39453,-63.47656,-220.70312,0.077540615342978,-0.0391699008037331,-0.0293108849250675,-0.3,24.3,28.05,-93.26172,69.33594,985.83984,0.0019984019935335,0.0203843984657425,-0.0337075438437664,70.8,7.35,86.25,-840.33203,52.73438,572.26562,-0.0178529729186499,0.0531592383572432,0.0007993607974134,58.05,19.95,23.1
-992.1875,-79.10156,-216.30859,0.0397029243572922,0.0019984019935335,-0.0740764858436197,-37.8,24.3,27.15,-93.75,89.84375,1006.83594,0.027312482931534,0.0595542992694757,-0.0177198042967228,70.2,8.4,87.45,-845.21484,49.80469,572.26562,-0.0559571756811154,-0.0105252080541518,-0.0303767574992605,57.15,19.35,24.3
-993.65234,-34.17969,-223.63281,0.0475635382424242,0.0049295079393327,-0.1041869060990259,0.6,24.0,27.9,-80.56641,122.55859,1017.08984,0.071944915228159,-0.0321086477160144,0.0138559943986577,70.2,8.4,87.45,-849.60937,34.66797,547.85156,-0.096459460835821,0.0215834396618626,0.0126569532025376,57.3,18.75,23.55
-1003.41797,-37.59766,-220.70312,0.1252373222073295,-0.0961929490590414,-0.0639509581881746,0.75,24.9,29.4,-102.05078,132.32422,1012.69531,0.0042633157638465,0.0305099261211876,0.0298437339457014,70.65,8.25,86.1,-842.77344,30.27344,583.49609,-0.1584120170304621,0.0158545709251164,-0.0482297304179105,57.45,20.55,22.65
-992.67578,-32.22656,-216.79687,0.0695466583029936,-0.011191400229638,-0.1068515002680456,-0.45,24.15,28.05,-99.60938,121.58203,998.04687,-0.0085268060606182,0.059687642424328,0.0527595579585365,70.35,10.5,86.55,-832.03125,25.39063,572.26562,-0.1628085014162358,0.0103920394322246,-0.0771409349442713,57.15,19.35,22.2
-986.32812,-20.50781,-208.49609,0.0720780838500862,-0.0611531953972277,-0.0975253334100139,-0.45,24.15,28.05,-96.19141,106.93359,1004.88281,0.0440995832759911,0.0185191650941362,0.0302434143444081,70.35,10.5,86.55,-840.33203,17.08984,577.14844,-0.1708024584562202,-0.0023980823922402,-0.1079173728422385,57.3,20.25,22.5
-975.09766,-31.73828,-198.24219,0.0985910314512816,-0.0578224090527217,-0.005595700114819,-0.45,23.4,27.75,-79.58984,89.84375,1007.32422,0.0023980823922402,0.0137228257767306,0.0949939078629213,70.5,8.85,88.05,-833.98437,20.01953,573.73047,-0.177330862523305,0.0406354537766327,-0.0369049870334201,56.55,20.7,23.1
-968.26172,-30.27344,-203.61328,0.0081271256619115,-0.0041301471419193,-0.0975253334100139,-0.45,23.85,28.8,-75.19531,72.26563,992.1875,-0.0041301471419193,0.0271791397766816,0.0712787230526728,70.8,9.6,87.0,-819.33594,-2.44141,581.05469,-0.1803951370910315,0.0003996803987067,-0.0173201238980161,56.55,20.7,23.1
-978.51562,-39.0625,-209.96094,0.0411684773301918,0.0059953805135257,-0.0856677410048896,1.05,22.95,28.2,-69.82422,58.10547,1019.04297,0.0046631706954784,0.0471638578437175,0.0846018684306967,71.1,7.8,87.15,-822.75391,-2.92969,590.33203,-0.1799954566923248,-0.0335742006889141,-0.0178529729186499,56.4,19.8,22.95
-997.07031,-35.15625,-208.00781,0.0238483534321757,0.0349065850398865,-0.0606201718436686,2.25,23.4,28.35,-78.61328,68.84766,1006.83594,0.0387702204050264,-0.0149218669728507,0.0651499993842947,71.1,7.8,87.15,-821.28906,1.46484,594.72656,-0.1465544246253378,0.0106585512090041,-0.0254472495599277,56.4,19.8,22.95
-998.04687,-44.92188,-199.70703,0.0337075438437664,0.0014655529728996,0.0059953805135257,2.25,23.4,28.35,-59.57031,85.44922,1021.97266,0.0675482563094601,0.0454317930940384,0.1267028751802291,70.8,8.85,87.0,-814.94141,-16.60156,564.45312,-0.0909969293429291,-0.0251807377831481,0.0275788201753884,56.4,19.8,22.95
-1005.37109,-54.6875,-199.70703,-0.0190520141147701,0.0165205885676775,-0.0354394340605204,0.75,23.85,28.8,-50.29297,98.63281,983.39844,0.0744763407752516,0.016787100344457,0.1219065358628235,69.9,10.05,87.6,-798.82812,-18.06641,583.00781,-0.1011224569983742,0.0193185258915496,0.0058622118915985,57.3,20.25,23.55
-999.51172,-51.26953,-186.52344,-0.0327748398915007,-0.0026645941690197,-0.0301102457224809,0.3,23.25,29.25,-64.94141,95.21484,1012.20703,0.0254472495599277,0.0635512777894679,0.0571562168772355,70.35,8.55,88.95,-804.19922,-11.71875,554.6875,-0.0758085505932989,0.0562235129249697,-0.0226493122360556,57.3,20.25,23.85
-984.375,-42.96875,-181.15234,-0.016787100344457,-0.0530260697353161,-0.0483628990398376,-0.3,22.95,29.25,-62.98828,109.86328,985.35156,0.0578224090527217,0.0476967068643514,0.1233720888357231,70.35,9.75,86.55,-791.99219,0.0,580.07812,-0.0542251109314362,0.0301102457224809,-0.0190520141147701,58.8,19.5,23.85
-984.86328,-73.24219,-183.10547,-0.0322419908708668,-0.0182526533173567,-0.0175864611418704,0.6,25.8,28.2,-55.17578,93.75,1005.37109,0.0091929982361045,0.070346019100407,0.1341638086666545,72.3,8.85,86.25,-806.64062,-10.25391,579.10156,-0.1028545217480534,0.0576890658978693,0.0522267089379027,57.0,21.0,24.9
-996.58203,-45.41016,-182.61719,-0.0057288687367461,-0.0822036115055313,0.0475635382424242,0.6,25.8,28.2,-55.66406,82.03125,1003.90625,0.0029311059457992,0.0583552580733556,0.1272358987337882,70.5,9.9,87.0,-814.45312,-11.71875,565.42969,-0.1144456023763981,0.0330413516682802,-0.0185191650941362,57.0,21.0,24.9
-994.62891,-32.71484,-175.78125,-0.0099923590335179,-0.0512940049856369,0.0350397536618137,0.3,22.95,29.25,-62.01172,77.14844,1000.48828,0.0046631706954784,0.0488959225933967,0.1252373222073295,70.5,9.9,87.0,-829.58984,-22.94922,583.49609,-0.1248376418086228,0.0043966589186989,-0.0117244237831971,56.1,20.55,22.65
-1002.92969,-31.25,-173.33984,-0.0393032439585855,-0.0355727772153728,-0.0121241041819038,1.8,23.1,28.35,-70.80078,61.52344,994.62891,0.0624854052152749,0.1155114749505911,0.1241714496331365,71.1,9.3,87.6,-833.98437,-22.46094,578.61328,-0.1854578136522914,0.0604870032217414,0.0635512777894679,56.1,20.55,22.65
-1008.30078,-17.08984,-177.24609,-0.0229158240128351,-0.0901975685455157,0.052493046181757,1.65,24.75,28.95,-69.82422,73.24219,997.55859,0.0492956029921034,0.1430902951259795,0.1147121141531777,70.8,8.85,87.45,-822.26562,-38.57422,563.96484,-0.1486859952407985,0.0310429496747467,0.0532925815120956,57.6,20.7,22.8
-986.32812,-35.64453,-166.99219,-0.0551578148837019,-0.0624854052152749,0.050228132411444,1.5,23.4,27.75,-68.35938,81.05469,984.375,0.0716784034513795,0.1494855305711371,0.0905972489442224,69.9,10.5,86.1,-826.66016,-17.57813,598.14453,-0.196249708016148,0.0095926786348112,0.0261132672024887,57.0,21.0,22.8
-985.35156,-15.13672,-163.57422,-0.0723445956268657,-0.0347734164179594,-0.0175864611418704,1.5,23.4,27.75,-68.35938,83.00781,1001.95312,0.0374380105869791,0.1169770279234907,0.0940612039106556,69.9,10.5,86.1,-826.17187,-37.10938,599.60937,-0.1263031947815224,-0.0019984019935335,0.0333078634450597,57.0,21.0,23.1
-964.35547,-7.8125,-164.0625,-0.073676805444913,-0.0186523337160634,0.1137794102009119,0.75,26.4,29.4,-75.68359,96.67969,1015.13672,-0.0186523337160634,0.1326982556937548,0.1155114749505911,70.2,10.35,85.95,-824.70703,-38.57422,602.53906,-0.1482863148420918,-0.0226493122360556,0.0169204434993094,56.7,20.55,23.25
-959.47266,8.78906,-160.15625,-0.1211071750654101,0.0403691165327784,0.0672817445326806,0.0,24.3,28.2,-72.75391,100.09766,1033.20313,-0.0023980823922402,0.0868667822010097,0.1112481591867445,69.9,10.5,86.55,-848.63281,-45.89844,625.0,-0.1700030976588069,0.0448989440734045,0.0114579120064175,57.6,20.25,23.85
-996.58203,0.97656,-162.59766,-0.1251041535854023,0.1111148160318922,-0.0106585512090041,0.15,23.85,28.05,-75.68359,78.61328,1040.03906,0.0014655529728996,0.1273690673557154,0.1049862668964393,70.65,9.75,86.55,-821.28906,-36.13281,592.77344,-0.1349631694640679,0.0073277648644981,0.0147886983509235,58.05,19.95,22.8
-1016.11328,-21.48438,-171.38672,-0.0923293136939016,0.0838025076332833,0.0185191650941362,1.05,24.3,29.25,-72.26563,90.33203,1038.57422,-0.0214502710399355,0.1357627047944065,0.1322985752950481,70.65,9.75,86.55,-833.98437,-43.45703,621.58203,-0.1859908372058505,0.0535589187559499,-0.0034639549664331,58.05,19.95,22.8
-1023.92578,-17.57813,-171.38672,-0.1217733672408963,0.079272505559732,-0.0692803210591393,1.05,24.3,29.25,-68.35938,79.10156,1008.30078,-0.0001331686219271,0.0909969293429291,0.1680045211323481,70.35,9.3,87.15,-819.82422,-62.5,600.09766,-0.1569464640575625,0.0107917198309313,0.0566231933236764,57.0,20.7,22.8
-1030.27344,-29.78516,-179.19922,-0.0968591412345277,0.0610198522423753,-0.0462311538914518,0.3,22.95,29.25,-45.89844,58.59375,1020.01953,-0.0698131700797731,0.107650861065459,0.1899878157258427,69.75,9.9,87.45,-821.28906,-68.35938,618.16406,-0.0800720408900706,0.0197182062902563,-0.0003996803987067,57.15,20.85,23.7
-1007.8125,-22.46094,-169.92187,-0.0270459711547545,0.0153215473715574,0.0265129476011954,0.6,22.2,30.3,-26.85547,26.85547,1021.97266,-0.1100489434576992,0.0868667822010097,0.1465544246253378,71.1,9.0,88.35,-829.58984,-62.98828,629.39453,-0.1432236382808319,0.0110582316077108,0.0478300500192038,56.4,21.15,23.7
-1009.76562,-24.41406,-188.96484,-0.0802052095119978,0.061419532641082,-0.0385038831611721,1.2,24.15,28.35,-40.03906,41.01563,1029.78516,-0.0588882816269146,0.0827366350590903,0.1061853080925594,71.1,9.0,88.35,-809.57031,-82.51953,587.89062,-0.0873996312216436,0.0414349891069713,0.0452986244721112,56.4,20.55,23.25
-1007.32422,-17.57813,-163.08594,-0.0684807857288007,0.0632847660126884,-0.0193185258915496,1.05,24.75,28.95,-53.22266,71.77734,1023.92578,-0.0965926294577481,0.1172435397002702,0.1263031947815224,71.1,10.05,87.15,-817.38281,-66.89453,598.14453,-0.0838025076332833,0.050761155965003,-0.0054625314928918,57.0,20.25,23.55
-995.11719,-15.13672,-161.13281,-0.0247810573844414,0.0165205885676775,0.054091942309509,1.05,24.75,28.95,-64.45313,70.80078,1005.85937,-0.0783399761403914,0.1029876903699806,0.093128674491315,70.8,10.65,86.7,-837.89062,-77.63672,616.21094,-0.1713353074768541,0.022382800459276,0.0417013263508257,56.7,19.8,23.25
-995.11719,-0.97656,-163.57422,-0.0635512777894679,-0.0117244237831971,0.0171867807431637,-0.15,24.9,29.85,-81.54297,87.40234,1011.23047,-0.0932618431132422,0.1253706653621819,0.0843353566539172,71.7,9.75,85.8,-805.17578,-44.92188,602.53906,-0.1119141768293056,0.0488959225933967,0.0357059458372999,56.7,19.8,23.25
-991.21094,-0.97656,-166.99219,-0.0679479367081668,0.0608866836204481,-0.0550244717288496,2.1,24.0,30.0,-64.94141,55.17578,1042.48047,-0.1223062162615302,0.128834620328615,0.1289677889505422,71.7,9.75,85.8,-828.125,-45.89844,628.90625,-0.1881225823542364,0.0425006871482391,0.0238483534321757,57.0,19.5,23.1
-970.70312,-27.34375,-156.25,-0.0374380105869791,0.0242480338308824,-0.0612863640191548,-0.15,24.15,29.4,-47.36328,12.69531,1060.05859,-0.1184425808963904,0.0920628019171221,0.1073843492886795,72.0,9.15,85.65,-831.05469,-61.52344,629.39453,-0.2021117453748213,0.0816707624848974,0.0303767574992605,57.0,19.5,23.1
-980.95703,-69.33594,-152.34375,0.0129234649793172,0.0250473946282958,-0.0377045223637587,0.45,23.85,30.15,-43.45703,-24.90234,1025.87891,-0.032908183046353,0.1093829258151382,0.0578224090527217,70.5,11.1,86.7,-812.98828,-66.40625,617.1875,-0.1064518198693389,0.0187856768709157,0.0063950609122324,57.0,19.5,23.1
-1005.85937,-70.3125,-165.52734,-0.0094593354799588,0.0832694840797242,-0.0674150876875329,0.45,23.85,30.15,-44.43359,-50.29297,1008.30078,0.034640073263107,0.0925956509377559,0.0659495347146333,70.5,11.1,86.7,-803.22266,-100.09766,636.23047,-0.1069846688899728,-0.0039969785199922,0.0490290912153239,58.35,21.75,24.15
-989.25781,-72.75391,-166.99219,0.0755420388165193,0.0109248884528585,-0.0278453319521679,0.3,25.5,28.5,-46.875,-0.97656,1006.83594,0.0923293136939016,0.0698131700797731,0.0385038831611721,71.4,10.05,87.15,-791.50391,-121.09375,615.72266,-0.0668820641339739,-0.0002665117767795,0.0802052095119978,57.0,19.5,23.85
-989.25781,-55.66406,-150.87891,0.0678147680862396,0.0343737360192527,-0.0450321126953316,0.3,24.3,28.95,-35.15625,35.15625,1006.83594,0.1035207139235396,0.0983246942074273,-0.0373046674321268,71.4,9.3,87.6,-792.48047,-108.88672,651.85547,-0.0876661429984231,0.0123904414257581,0.0425006871482391,58.05,19.2,24.15
-983.39844,-41.50391,-157.22656,0.0444992636746978,0.050228132411444,-0.063684446411395,0.0,23.25,29.25,-53.22266,98.63281,997.07031,0.0756753819713717,0.1164441789028568,-0.0339738810876208,72.0,10.65,87.45,-792.96875,-103.51563,623.53516,-0.0892648645932499,0.0438330714992115,0.0318423104721601,57.3,20.7,23.85
-962.40234,-16.11328,-150.39062,0.1454885520511449,0.0095926786348112,0.0317089673173077,1.35,23.7,30.0,-51.75781,128.41797,1010.74219,0.0303767574992605,0.0735436368229858,-0.0083936374386911,72.0,10.65,87.45,-790.03906,-105.46875,624.02344,-0.0049295079393327,0.0643506385868813,0.034640073263107,57.3,20.7,23.85
-979.98047,-24.90234,-152.34375,0.1153783063286639,0.0083936374386911,0.0482297304179105,1.35,23.7,30.0,-50.78125,108.39844,1020.50781,-0.0619525561946411,0.055823832526263,-0.0010658725741929,71.1,10.05,86.1,-790.03906,-62.01172,639.64844,-0.0062618922903052,0.0531592383572432,0.0262466103573411,56.55,19.5,23.55
-968.75,-21.97266,-163.57422,0.0623522365933478,0.0231821612566894,0.0137228257767306,0.45,24.6,28.05,-67.87109,106.93359,1018.06641,-0.0279785005740951,0.0399694361340717,0.0226493122360556,71.55,8.85,85.95,-791.01562,-27.83203,622.07031,0.020117886688963,0.0075941021083525,0.0873996312216436,56.55,19.5,23.55
-951.66016,-26.36719,-152.34375,0.0896645449919567,-0.0149218669728507,0.0503614755662963,-0.15,25.35,28.05,-65.91797,69.33594,990.23437,-0.0206509102425221,0.0570230482553083,0.0,72.0,9.6,85.95,-802.24609,-40.03906,638.18359,0.0550244717288496,0.0283781809728018,0.0436999028772844,58.35,21.45,23.55
-943.35937,-20.01953,-158.69141,0.1264363634034496,0.0378376909856858,0.0198513749121835,1.35,22.5,28.05,-53.71094,56.15234,1026.85547,0.0471638578437175,0.0603538345998143,0.0039969785199922,71.25,10.35,86.25,-831.05469,-19.04297,642.57812,-0.0197182062902563,0.0436999028772844,0.0335742006889141,56.7,20.55,22.65
-943.84766,-18.55469,-165.52734,0.0731439564242791,0.1326982556937548,-0.0317089673173077,0.6,22.5,29.25,-64.45313,57.61719,1033.20313,0.0249142260063686,0.0287778613715085,-0.0532925815120956,71.25,10.35,85.95,-818.84766,-20.50781,635.74219,-0.0452986244721112,0.0503614755662963,0.0170536121212365,57.15,21.9,22.95
