IMU1_AccX,IMU1_AccY,IMU1_AccZ,IMU1_GyrX,IMU1_GyrY,IMU1_GyrZ,IMU1_MagX,IMU1_MagY,IMU1_MagZ,IMU2_AccX,IMU2_AccY,IMU2_AccZ,IMU2_GyrX,IMU2_GyrY,IMU2_GyrZ,IMU2_MagX,IMU2_MagY,IMU2_MagZ,IMU3_AccX,IMU3_AccY,IMU3_AccZ,IMU3_GyrX,IMU3_GyrY,IMU3_GyrZ,IMU3_MagX,IMU3_MagY,IMU3_MagZ
-974.60937,-22.46094,-165.03906,0.0261132672024887,-0.0479632186411309,0.0057288687367461,2.1,22.95,29.25,-84.47266,108.39844,993.16406,0.0586217698501351,0.0602204914449619,-0.0115910806283447,71.1,9.3,86.85,-843.26172,17.57813,569.82422,-0.0751423584178126,0.0141225061754373,0.031309286918601,57.15,18.3,22.65
-977.05078,-45.41016,-176.26953,0.0147886983509235,-0.0506278128101507,0.0189188454928429,0.0,23.7,29.25,-71.28906,101.5625,1001.46484,0.0738101485997654,0.068614128883653,0.0478300500192038,72.15,8.25,86.55,-838.37891,4.39453,551.26953,-0.0442327518979182,0.0704793622552594,0.08420218803199,58.2,18.3,23.25
-979.98047,-48.82813,-189.94141,0.0393032439585855,-0.0559571756811154,-0.015055210127703,0.0,23.7,29.25,-89.35547,94.72656,1004.39453,0.0367718184114929,0.0748760211739583,0.063018428768834,70.65,8.25,88.35,-852.53906,12.20703,585.9375,-0.0643506385868813,0.0480965617959833,0.0968591412345277,57.0,19.95,22.5
-974.60937,-45.41016,-180.17578,0.0011990411961201,0.0375711792089063,0.0386370517830992,0.0,23.7,29.25,-80.07813,89.84375,1025.39063,-0.0002665117767795,0.0856677410048896,0.0576890658978693,69.0,8.4,88.5,-848.63281,7.32422,571.28906,-0.1124472003828646,-0.0059953805135257,0.0618192130397887,57.0,19.95,22.5
-988.76953,-37.10938,-185.54687,0.0506278128101507,0.0197182062902563,0.0373046674321268,1.2,23.85,29.85,-81.05469,94.23828,1044.43359,0.0130566336012443,0.0595542992694757,0.1060521394706322,70.65,9.75,86.85,-850.58594,15.13672,582.51953,-0.1462879128485583,0.0293108849250675,0.064750318985588,56.55,19.95,23.55
-971.19141,-41.01563,-174.80469,0.0070612530877186,0.039569755735365,0.0687472975055802,0.45,24.15,29.1,-64.94141,81.54297,1038.57422,0.0139893375535101,0.0494287716140306,0.0989908863829135,70.65,9.75,86.85,-842.28516,-3.90625,603.51562,-0.1720014996523403,0.0508943245869302,0.0202512298438154,56.55,19.95,23.55
-964.35547,-40.52734,-182.12891,-0.0193185258915496,0.141091893132446,0.0113245688515652,0.0,24.3,28.95,-72.26563,65.91797,1027.83203,0.0250473946282958,0.0905972489442224,0.0843353566539172,70.65,9.75,86.85,-852.53906,2.92969,585.9375,-0.1950504922871027,0.0117244237831971,0.0440995832759911,57.15,20.55,22.95
-991.69922,-48.33984,-186.52344,0.0421010067495324,0.0730107878023519,0.0523598775598298,0.3,23.25,28.95,-52.24609,74.70703,1011.71875,0.0634181091675407,0.0700796818565527,0.0782068075184643,69.9,10.05,88.35,-825.68359,-8.78906,568.35937,-0.15561407970659,0.0026645941690197,0.063684446411395,58.8,18.75,23.85
-1009.76562,-25.87891,-186.03516,-0.0191853572696224,0.0883323351739094,0.0720780838500862,0.3,23.25,28.95,-54.19922,83.00781,1003.41797,0.0642174699649541,0.1125803690047918,0.0471638578437175,71.25,8.4,87.0,-827.14844,-30.27344,570.3125,-0.1249709849634751,0.0121241041819038,0.0714118916745999,57.3,19.2,23.55
-1019.53125,-20.99609,-201.66016,-0.04849624219469,0.0883323351739094,-0.0265129476011954,1.5,24.6,30.45,-34.17969,99.60938,1031.73828,0.1211071750654101,0.4512541799714331,0.06634921511334,71.25,8.4,87.0,-817.87109,-37.10938,568.35937,-0.1197749652473628,-0.0043966589186989,0.0993905667816202,56.7,18.3,22.2
-1018.55469,-36.62109,-210.9375,-0.025713586803782,0.0246477142295891,0.0319754790940873,-0.15,22.65,28.05,-85.9375,77.14844,958.00781,0.0062618922903052,0.1013889687751538,0.1025880099712739,71.4,7.8,86.85,-813.96484,-26.85547,566.89453,-0.0687472975055802,0.0255804181818548,0.1208406632886305,56.7,18.3,22.2
-994.14062,-22.46094,-189.94141,-0.0042633157638465,0.0231821612566894,0.0266462907560478,0.45,24.15,29.85,-55.66406,102.53906,987.79297,-0.0050628510941851,0.10205516095064,0.0779402957416847,69.75,9.6,87.45,-819.33594,-15.625,602.05078,-0.1550812306859561,0.0033307863445059,0.1213736868421896,56.7,18.3,22.2
-981.44531,-43.45703,-182.61719,-0.0712787230526728,0.0318423104721601,0.0001331686219271,0.6,23.7,28.5,-35.15625,72.26563,993.16406,0.0079939570399844,0.134430320443434,0.0983246942074273,71.55,9.15,87.45,-799.31641,-23.92578,591.79687,-0.1509510835440367,0.004529827540626,0.0439662401211387,57.15,20.85,23.25
-978.51562,-38.57422,-179.6875,0.0035972981212855,-0.0001331686219271,-0.0074609334864253,0.6,23.7,28.5,-50.78125,79.10156,1019.04297,0.0460979852695246,0.1586783542743164,0.0850015488294034,71.55,9.15,87.45,-803.22266,-5.85937,613.28125,-0.1865236862264844,0.0186523337160634,0.059687642424328,57.15,20.85,23.25
-980.46875,-48.82813,-186.03516,0.0238483534321757,0.005595700114819,0.0760750623700784,0.3,24.75,27.9,-30.76172,80.07813,1020.50781,0.0123904414257581,0.177330862523305,0.0834028272345766,70.35,8.55,87.6,-806.64062,-29.78516,621.58203,-0.2256937615631427,-0.0271791397766816,0.068614128883653,56.1,18.3,23.7
-991.69922,-51.26953,-182.12891,0.0159877395470436,0.0269126279999021,-0.025713586803782,0.6,24.75,28.5,-44.43359,81.05469,1038.57422,0.0110582316077108,0.1560137601052967,0.0850015488294034,69.9,8.55,86.55,-817.87109,-46.875,610.35156,-0.1283017713079811,0.0214502710399355,0.0534257501340228,58.35,21.45,23.55
-1007.8125,-25.87891,-190.42969,0.0013323843509724,0.0443659205198454,-0.0778071271197576,-0.75,24.15,28.35,-42.48047,83.98438,1028.32031,-0.0129234649793172,0.1618759719968953,0.1093829258151382,69.9,8.55,86.55,-832.51953,-30.76172,615.72266,-0.1285681085518354,0.0193185258915496,0.0746095093971788,56.55,19.2,23.1
-1012.69531,-13.67187,-178.71094,0.0090596550812521,-0.0069280844657914,-0.0478300500192038,0.15,24.15,28.35,-33.20313,83.49609,1022.94922,-0.0298437339457014,0.1708024584562202,0.1201746456460695,70.8,9.6,85.95,-806.15234,-27.34375,617.67578,-0.1260366830047429,0.0033307863445059,0.0406354537766327,58.35,20.25,23.1
-1009.76562,-8.78906,-169.43359,-0.0235820161883213,-0.0314426300734534,-0.0074609334864253,0.15,24.15,28.35,-51.75781,79.58984,1004.39453,-0.0007993607974134,0.1686707133078344,0.0687472975055802,70.65,9.3,87.9,-793.94531,-35.15625,589.84375,-0.0690138092823597,0.0341072242424731,0.1305666850782942,58.35,20.25,23.1
-1011.23047,-4.39453,-176.26953,-0.0544916227082157,-0.0409019655534123,-0.0003996803987067,0.75,23.1,27.3,-33.20313,80.56641,1004.88281,-0.0107917198309313,0.1229724084370164,0.0822036115055313,70.8,10.35,86.7,-805.17578,-19.04297,600.58594,-0.1512174207878911,0.0576890658978693,0.0651499993842947,55.2,18.75,24.15
-991.21094,-17.57813,-166.99219,0.0017320647496791,-0.0724777642487929,0.0266462907560478,0.3,24.3,28.95,-30.76172,76.66016,1027.34375,-0.029044373148288,0.1771975193684527,0.0806048899107045,70.8,10.35,86.7,-799.31641,6.83594,595.70312,-0.1528161423827179,0.0330413516682802,0.0406354537766327,55.2,18.75,24.15
-979.49219,-21.97266,-159.17969,-0.0848683802074762,-0.0567565364785288,0.0095926786348112,1.2,23.4,29.1,-62.98828,86.91406,1027.34375,-0.0246477142295891,0.1963828766380752,0.1183094122744632,70.8,10.35,86.7,-801.26953,-43.45703,601.5625,-0.174000076178799,0.0814042507081179,0.0318423104721601,55.8,21.0,22.8
-969.72656,-18.55469,-161.62109,-0.0790061683158777,-0.0471638578437175,0.0315757986953806,1.5,24.15,28.8,-62.01172,82.03125,1022.94922,-0.0174532925199432,0.1955835158406617,0.0523598775598298,71.1,9.0,86.1,-820.80078,-44.92188,626.95312,-0.2343537362456882,0.0656830229378538,0.0369049870334201,58.35,19.95,22.8
-953.61328,-34.17969,-166.50391,-0.0173201238980161,-0.0460979852695246,-0.0105252080541518,1.5,24.15,28.8,-59.57031,102.53906,1041.99219,-0.0307764378979672,0.2335543754482748,0.0877993116203503,70.8,8.1,87.45,-810.54687,-56.64063,625.0,-0.1970490688135614,-0.0170536121212365,-0.0178529729186499,58.35,20.25,22.5
-979.98047,-22.94922,-166.01562,-0.0378376909856858,0.0162542513238231,0.0009327039522657,-0.15,23.4,30.15,-61.52344,92.77344,1038.57422,0.0282450123508746,0.2300904204818416,0.0983246942074273,71.25,9.6,86.7,-816.89453,-59.08203,585.9375,-0.17346705262524,0.042900542079871,0.032375159492794,57.45,18.3,23.7
-1000.48828,-30.76172,-162.10937,-0.0488959225933967,0.0374380105869791,-0.0326416712695735,0.6,22.95,29.55,-61.03516,82.51953,1039.55078,0.0007993607974134,0.1341638086666545,0.0620857248165682,71.25,9.6,86.7,-829.10156,-56.64063,625.48828,-0.1732005408484604,0.0261132672024887,0.0407687969314851,56.1,20.55,21.9
-1012.69531,-32.22656,-168.94531,-0.0074609334864253,-0.0071944217096458,0.011191400229638,0.75,23.4,29.85,-40.52734,73.73047,1043.94531,-0.0309096065198943,0.1398928519363259,0.0459648166475974,72.0,8.85,87.0,-826.17187,-64.45313,617.67578,-0.2031776179490143,0.0343737360192527,-0.0271791397766816,57.6,19.95,23.1
-1016.60156,-50.78125,-160.15625,-0.0763415741468579,-0.0218499514386422,-0.0554241521275563,1.2,22.35,30.15,-48.33984,69.82422,1027.83203,-0.0819372742616769,0.0698131700797731,0.1195084534705833,70.8,9.6,87.45,-815.91797,-59.08203,622.07031,-0.1492190187943576,0.0586217698501351,0.0179861415405771,57.6,19.95,23.1
-982.91016,-37.59766,-146.48437,-0.0476967068643514,-0.0059953805135257,-0.0021317451483858,1.2,22.35,30.15,-52.24609,62.98828,1011.71875,-0.0888651841945432,0.0583552580733556,0.0774072721881257,70.8,9.6,87.45,-818.35937,-38.57422,627.44141,-0.1831928998819784,0.039569755735365,-0.0206509102425221,56.1,18.6,23.7
-990.23437,-38.08594,-156.73828,-0.0015987215948268,-0.0425006871482391,-0.0015987215948268,0.45,24.9,29.4,-39.55078,65.91797,1001.46484,-0.1203078142679967,0.0963261176809686,0.0691469779042869,72.0,9.6,87.75,-808.10547,-35.64453,620.60547,-0.1338974714228001,0.0011990411961201,0.0347734164179594,57.15,20.1,23.7
-1012.69531,-48.82813,-152.83203,0.0097258472567384,-0.050761155965003,-0.03064326927604,0.45,24.9,27.75,-49.31641,58.59375,1003.90625,-0.0325085026476463,0.1322985752950481,0.0444992636746978,70.5,9.15,85.65,-800.29297,-40.03906,610.35156,-0.1390934911389125,0.046897346066938,0.0097258472567384,56.55,20.7,22.8
-1004.39453,-38.57422,-163.08594,-0.0175864611418704,-0.0153215473715574,-0.0672817445326806,0.15,23.85,29.4,-59.57031,75.19531,1013.67187,0.0030642745677264,0.1588116974291688,0.0125237845806105,70.8,9.9,87.75,-815.91797,-34.17969,625.97656,-0.1625421641723815,0.0074609334864253,0.0566231933236764,57.9,20.55,24.0
-1013.67187,-14.64844,-164.0625,0.0105252080541518,-0.0187856768709157,0.0021317451483858,0.6,23.25,30.0,-56.64063,87.40234,1019.04297,-0.0281118437289474,0.1350965126189202,0.0691469779042869,70.8,9.9,87.75,-812.98828,-41.99219,612.30469,-0.1541485267336904,0.0146553551960711,0.0169204434993094,55.8,19.5,23.1
-997.07031,-34.17969,-162.10937,0.0321086477160144,-0.0373046674321268,-0.0496952833908101,0.6,23.25,30.0,-59.08203,98.14453,1005.37109,-0.0440995832759911,0.0965926294577481,0.1007227765996675,72.0,9.6,86.7,-826.17187,-41.01563,619.62891,-0.2003798551580673,0.063684446411395,0.0007993607974134,58.5,19.8,22.95
-1001.46484,-36.13281,-159.66797,-0.0057288687367461,0.0103920394322246,-0.0458314734927451,1.05,25.05,28.5,-69.33594,94.23828,1021.48437,-0.0834028272345766,0.1369617459905266,0.0620857248165682,70.35,10.8,87.15,-837.89062,-38.08594,634.76562,-0.2166339319489653,0.0748760211739583,0.0175864611418704,58.5,19.8,22.95
-983.88672,-41.01563,-168.45703,0.0250473946282958,-0.0281118437289474,0.0174532925199432,0.75,23.1,29.1,-80.56641,77.14844,1033.69141,-0.1245711300318432,0.0784731447623186,0.0880658233971298,72.15,9.75,87.15,-850.09766,-26.85547,609.375,-0.208107125888347,0.0462311538914518,0.0566231933236764,58.5,19.8,22.95
-973.14453,-54.19922,-158.69141,0.0659495347146333,-0.0452986244721112,0.0018652333716063,0.15,24.6,29.85,-81.05469,64.45313,1046.875,-0.123238920213796,0.1249709849634751,0.0959264372822619,72.15,9.75,87.15,-832.51953,-29.78516,619.62891,-0.2023782571516009,0.0251807377831481,0.0604870032217414,57.15,19.35,22.2
-964.35547,-56.64063,-172.85156,0.0137228257767306,0.0209172474863764,-0.0382373713843925,1.2,23.4,28.05,-80.07813,49.80469,1045.89844,-0.0895313763700295,0.1406922127337393,0.0755420388165193,70.35,10.05,87.9,-849.12109,-16.11328,618.16406,-0.1919862177193762,0.0169204434993094,0.0334410320669869,57.45,20.55,23.7
-976.5625,-50.29297,-159.66797,0.0972588216332344,0.0237151848102485,0.0026645941690197,1.2,23.4,28.05,-92.77344,19.53125,1013.67187,-0.0671485759107534,0.0598208110462552,0.1272358987337882,72.15,11.25,86.55,-829.10156,-20.99609,629.39453,-0.1950504922871027,0.0381042027624654,0.0599539796681824,57.0,20.25,23.85
-1007.8125,-70.80078,-172.36328,0.0866002704242302,0.0389035635598788,0.0291777163031404,1.2,23.4,28.8,-61.03516,1.95312,1004.39453,-0.0091929982361045,0.0305099261211876,0.0363721380127862,70.35,9.0,86.1,-831.05469,-28.32031,632.32422,-0.1911868569219628,0.0155880591483369,0.0916631215184153,58.05,20.7,23.55
-1064.45313,-65.91797,-175.78125,0.0511608363637097,0.1430902951259795,-0.0341072242424731,-1.35,24.3,29.25,-54.19922,26.85547,990.23437,0.0399694361340717,0.0876661429984231,0.0357059458372999,70.65,10.05,87.15,-810.05859,-44.92188,596.19141,-0.0206509102425221,0.0058622118915985,0.0975253334100139,56.55,20.25,23.55
-1065.42969,-76.17188,-186.03516,0.1253706653621819,0.0133231453780239,-0.0275788201753884,0.0,25.05,28.2,-61.52344,18.06641,963.86719,0.0747426780191059,0.0496952833908101,0.0325085026476463,71.25,8.1,87.45,-810.54687,-40.52734,581.54297,0.1113813278086717,0.0895313763700295,0.1148452827751048,58.5,20.55,23.7
-1072.26563,-72.75391,-176.75781,0.1320322380511938,-0.0583552580733556,0.0335742006889141,0.0,25.05,28.2,-63.47656,11.23047,935.05859,0.0381042027624654,0.1185757495183175,0.0302434143444081,72.15,9.0,85.8,-811.03516,-49.31641,580.07812,0.0854012292281101,0.0730107878023519,0.167871352510421,58.5,20.55,23.7
-1043.94531,-68.35938,-150.87891,0.0867336135790826,-0.0359724576140795,-0.0034639549664331,0.0,25.05,28.2,-86.91406,17.57813,988.28125,0.0291777163031404,0.1115144964305989,0.0341072242424731,72.15,9.0,85.8,-826.66016,-44.92188,604.98047,0.0463644970463041,0.0486294108166172,0.1938514510909826,57.15,20.1,22.2
-991.69922,-42.96875,-129.88281,0.1574793130781963,-0.1245711300318432,0.0679479367081668,0.0,25.05,28.2,-77.14844,54.19922,1021.48437,-0.0107917198309313,0.0888651841945432,-0.0612863640191548,71.4,9.3,85.8,-833.98437,-5.85937,618.16406,-0.0302434143444081,0.0492956029921034,0.2668622388933346,56.4,19.8,23.7
-924.31641,-46.38672,-106.44531,0.1538820149569108,-0.1039203943222463,0.0682144484849463,1.5,24.15,29.4,-83.49609,90.82031,1084.96094,0.0071944217096458,0.0129234649793172,-0.0054625314928918,71.25,10.35,87.0,-824.70703,36.13281,629.88281,-0.068614128883653,0.0213169278850831,0.2530060699617516,57.0,21.45,24.6
-905.27344,-36.62109,-112.79297,0.110981647409965,0.0595542992694757,0.0355727772153728,1.2,24.9,28.05,-59.08203,86.42578,1100.09766,-0.0089264864593249,-0.0066615726890119,0.0499617951675896,72.6,9.9,86.25,-787.10937,28.32031,597.16797,-0.073676805444913,0.0319754790940873,0.1830597312600512,58.5,21.15,22.95
-928.71094,-32.22656,-137.20703,0.1108484787880378,0.1702694349026612,-0.0233155044115418,2.1,24.0,29.25,-60.05859,90.33203,979.00391,-0.0051960197161123,0.0723445956268657,0.0780734643636119,72.6,9.9,86.25,-775.39062,64.94141,641.11328,-0.1955835158406617,0.04849624219469,0.1380276185647195,56.25,19.95,23.1
-964.84375,-19.04297,-136.71875,0.2013123845774079,0.1569464640575625,0.0463644970463041,2.1,24.0,29.25,-63.96484,114.74609,1044.43359,0.0102588708102974,0.0399694361340717,0.0472970264656447,70.8,9.6,86.25,-804.19922,32.71484,622.55859,-0.3218867106221842,0.0294440535469947,0.0708790426539661,58.35,21.45,22.8
-990.72266,-40.03906,-164.55078,0.1394931715376192,0.2356861205966606,-0.0774072721881257,1.8,24.9,28.8,-76.66016,140.13672,1017.57812,-0.0214502710399355,0.0141225061754373,0.0854012292281101,71.7,9.0,87.15,-812.5,9.76562,612.30469,-0.3003032709603215,0.0674150876875329,0.1080505414641657,58.35,21.45,22.8
-984.375,-19.53125,-165.52734,0.1293674693492489,0.1613431229762614,-0.0444992636746978,1.35,23.7,29.55,-116.69922,134.76562,965.82031,-0.0446324322966249,-0.0830031468358699,0.1305666850782942,71.4,9.75,86.1,-826.17187,8.78906,610.83984,-0.2625987485965628,0.085934078248744,0.0367718184114929,57.9,21.6,22.65
-991.69922,-9.27734,-170.89844,0.1700030976588069,0.1097826062138449,-0.0342403928644003,0.45,23.1,27.75,-67.87109,112.79297,1051.75781,-0.0126569532025376,0.0182526533173567,0.1586783542743164,69.3,9.75,86.55,-819.82422,-69.82422,596.67969,-0.2816509372442581,0.0426340303030914,0.1296339811260284,57.9,21.6,22.65
-984.375,12.20703,-179.6875,0.1313660458757076,0.1496186991930643,-0.1069846688899728,0.15,23.1,28.05,-63.96484,89.84375,1013.18359,-0.0458314734927451,-0.0643506385868813,0.146687593247265,71.7,10.05,87.15,-810.54687,-79.10156,589.84375,-0.2791195116971655,0.0755420388165193,0.1287014517066878,58.2,21.9,22.2
-962.89062,-9.76562,-181.64062,0.0816707624848974,0.1013889687751538,-0.0862005900255235,0.15,23.1,28.05,-72.26563,86.91406,1006.83594,-0.0375711792089063,-0.0025314255470925,0.1732005408484604,72.45,8.25,87.15,-812.98828,-80.56641,622.07031,-0.253805430759165,0.0511608363637097,0.0414349891069713,57.0,21.75,22.05
-962.40234,-12.20703,-186.03516,0.1249709849634751,0.1263031947815224,-0.0646171503636608,-1.2,23.4,28.8,-72.26563,89.84375,1017.08984,-0.0723445956268657,0.0175864611418704,0.1406922127337393,72.45,8.25,87.15,-800.78125,-90.33203,602.05078,-0.2458116482521058,0.0107917198309313,0.1136462415789847,57.6,21.0,24.15
-969.23828,-17.08984,-199.70703,0.0965926294577481,0.1283017713079811,-0.1336309596460206,-0.3,21.75,29.55,-88.37891,76.66016,1020.50781,-0.0353062654385932,-0.0198513749121835,0.1512174207878911,72.45,8.25,87.15,-808.59375,-76.66016,606.44531,-0.2460781600288853,0.0714118916745999,0.0231821612566894,57.3,20.7,22.5
-935.54687,-42.48047,-199.70703,0.0530260697353161,0.0937948666668012,-0.1187090926731699,0.15,23.1,29.4,-65.91797,97.65625,1009.27734,-0.1000565844241813,0.0031976177225788,0.1333644478692411,71.55,8.85,86.25,-803.22266,-74.21875,618.65234,-0.1810613292665177,0.0546247913301429,0.0018652333716063,57.3,20.7,22.5
-930.17578,-53.22266,-182.61719,0.0814042507081179,0.0965926294577481,-0.0409019655534123,-0.15,23.85,28.05,-70.3125,91.30859,1008.30078,-0.1148452827751048,0.0051960197161123,0.1510842521659639,70.65,10.5,86.55,-797.85156,-64.45313,603.51562,-0.2083736376651266,0.0357059458372999,-0.0065284040670847,56.4,21.6,24.0
-926.75781,-61.52344,-183.59375,0.0311761182966739,0.158944866051096,-0.1064518198693389,-0.15,23.85,28.05,-56.64063,107.91016,988.76953,-0.1273690673557154,-0.0343737360192527,0.1244379614099161,70.5,8.85,88.05,-802.73437,-52.24609,623.53516,-0.1328315988486072,-0.023981696587028,-0.0153215473715574,56.4,21.6,24.0
-936.52344,-66.40625,-198.24219,0.0559571756811154,0.1296339811260284,-0.0846018684306967,-0.3,22.5,28.5,-53.71094,128.90625,997.07031,-0.0767412545455646,-0.0246477142295891,0.1684043760639801,70.5,8.85,88.05,-803.71094,-45.89844,616.69922,-0.1329647674705344,0.0129234649793172,-0.0318423104721601,56.4,21.6,24.0
-943.35937,-44.92188,-199.70703,0.0820704428836041,0.1060521394706322,-0.0301102457224809,-0.15,21.6,28.35,-57.61719,128.90625,992.67578,-0.0415681577288985,-0.0266462907560478,0.172401180051047,71.25,9.6,87.75,-778.80859,-43.94531,608.88672,-0.1617428033749681,-0.0081271256619115,-0.0166539317225298,56.4,21.15,22.95
-947.26562,-33.69141,-206.54297,0.0278453319521679,0.1111148160318922,-0.0301102457224809,-1.05,23.25,27.45,-60.54688,123.04688,998.53516,-0.0358392889921523,-0.0563568560798221,0.1814610096652244,72.6,8.85,86.25,-778.80859,-64.45313,617.1875,-0.1722680114291199,-0.0042633157638465,-0.0588882816269146,57.45,21.6,23.7
-962.89062,-16.60156,-209.96094,0.0026645941690197,0.1312327027208552,-0.0406354537766327,1.8,21.9,28.35,-60.05859,114.74609,967.28516,-0.0347734164179594,-0.0298437339457014,0.1646737347878422,72.45,7.8,87.15,-789.55078,-89.84375,606.44531,-0.1597442268485094,0.0391699008037331,-0.0599539796681824,55.8,22.2,23.55
-962.89062,-27.34375,-224.12109,0.068614128883653,0.0386370517830992,0.0321086477160144,1.8,21.9,28.35,-71.28906,68.35938,971.67969,-0.0399694361340717,0.0159877395470436,0.1720014996523403,71.1,9.3,87.6,-812.01172,-90.33203,620.60547,-0.1532159973143498,0.0762082309920056,-0.0968591412345277,56.7,18.6,24.3
-979.98047,-20.50781,-222.65625,0.0398360929792193,0.0025314255470925,0.0090596550812521,-0.6,22.2,28.2,-44.92188,11.23047,1013.67187,0.0115910806283447,0.0535589187559499,0.1306998537002213,72.0,8.4,85.95,-812.01172,-133.78906,611.32812,-0.08420218803199,0.0475635382424242,-0.0791393369378048,56.7,18.6,24.3
-989.74609,-31.25,-230.46875,-0.0002665117767795,0.0297105653237742,-0.0370383301882724,-0.15,23.85,28.35,-77.63672,0.0,1024.41406,0.0504946441882235,0.0173201238980161,0.096459460835821,71.4,9.0,86.85,-817.87109,-140.13672,560.05859,0.0291777163031404,0.0702128504784798,-0.0654165111610742,57.15,20.85,22.95
-997.07031,-28.32031,-244.14062,0.0038636353651398,-0.0436999028772844,0.0301102457224809,-0.15,22.35,28.35,-79.58984,26.36719,996.09375,0.0571562168772355,0.0233155044115418,0.0691469779042869,71.4,9.0,86.85,-812.5,-131.83594,562.01172,0.1417580853079322,0.0279785005740951,-0.0427671989250186,57.15,20.85,22.95
-998.04687,-26.36719,-222.16797,-0.0182526533173567,-0.0735436368229858,0.0567565364785288,0.75,23.4,28.8,-83.98438,34.66797,977.05078,0.0442327518979182,0.0526263893366094,0.0109248884528585,72.15,9.75,86.85,-815.42969,-123.53516,583.00781,0.1801286253142519,0.051827028539196,-0.0422343499043847,57.6,20.25,23.85
-992.1875,-20.99609,-225.09766,-0.0676814249313873,-0.0755420388165193,0.0401026047559989,0.75,23.4,28.8,-106.44531,66.89453,1000.48828,0.0127901218244648,0.0098591904115907,0.0082602942838387,71.7,9.75,87.6,-830.07812,-83.00781,586.91406,0.1113813278086717,0.0706125308771865,-0.0991240550048407,57.45,20.85,24.3
-980.95703,-30.76172,-217.28516,-0.0319754790940873,-0.0848683802074762,0.0365053066347134,0.45,22.65,27.0,-93.75,78.125,1006.83594,-0.051827028539196,-0.0390367321818059,0.0199847180670358,71.25,8.4,87.0,-840.33203,-56.64063,575.68359,0.073676805444913,0.074209828998472,-0.0839356762552105,57.45,20.85,22.65
-970.70312,-16.60156,-208.49609,-0.089797888146809,-0.0991240550048407,0.0249142260063686,0.15,21.9,28.05,-92.28516,67.87109,1017.57812,0.0146553551960711,0.0186523337160634,-0.0079939570399844,71.25,8.4,87.0,-847.16797,-49.80469,573.24219,0.1013889687751538,0.0442327518979182,-0.0992572236267679,57.45,21.9,23.7
-935.54687,-24.41406,-213.37891,-0.0718115720733066,-0.0784731447623186,0.0074609334864253,1.2,23.85,29.1,-104.00391,62.98828,1013.18359,-0.0062618922903052,-0.0631515973907612,-0.031309286918601,70.35,10.5,86.85,-867.67578,-45.41016,583.98437,0.0900643999235885,0.0281118437289474,-0.1131133925583509,57.15,22.65,22.65
-964.84375,-20.99609,-225.58594,-0.046897346066938,-0.068614128883653,0.0411684773301918,1.2,23.4,29.4,-116.21094,48.33984,1007.8125,0.0179861415405771,-0.0443659205198454,-0.0482297304179105,71.25,9.9,88.8,-873.04687,-46.38672,575.19531,0.036238969390859,0.0427671989250186,-0.0739433172216925,57.3,21.0,23.85
-955.07812,-27.34375,-218.26172,-0.0265129476011954,-0.050761155965003,0.032375159492794,1.2,23.4,29.4,-115.72266,45.89844,1023.4375,0.1069846688899728,-0.0682144484849463,-0.0185191650941362,72.3,9.9,87.0,-873.04687,-61.52344,587.89062,0.0810045703094112,-0.0025314255470925,-0.1281684281531288,57.3,21.0,23.85
-979.00391,-5.85937,-233.88672,-0.1168438593015635,0.0345069046411798,-0.039569755735365,-1.05,22.95,28.5,-122.55859,42.48047,1029.78516,0.0707458740320389,-0.0683476171068735,-0.1081837100860929,70.8,9.15,87.45,-858.88672,-70.3125,584.47266,0.0716784034513795,-0.022382800459276,-0.0783399761403914,57.3,21.45,23.1
-999.51172,-12.69531,-245.60547,-0.0334410320669869,-0.0406354537766327,0.0463644970463041,0.3,23.25,28.95,-122.07031,42.48047,1034.17969,0.0691469779042869,-0.0504946441882235,-0.1019218177957876,71.25,9.6,86.7,-866.21094,-68.35938,579.58984,0.0997902471803269,-0.0249142260063686,-0.0772741035661985,58.8,20.25,24.15
-1015.625,-8.30078,-238.76953,-0.0218499514386422,-0.0170536121212365,0.0464976656682313,0.45,22.65,27.3,-101.5625,36.13281,1017.57812,0.0434333911005048,-0.0722112524720134,-0.1176432200989769,72.3,10.35,88.8,-863.76953,-60.54688,555.66406,0.1101822866125516,-0.0115910806283447,-0.0571562168772355,56.4,21.15,22.65
-1013.67187,-18.55469,-239.25781,-0.1044532433428802,-0.0293108849250675,0.0086599746825454,0.6,22.95,29.55,-85.9375,28.80859,1035.64453,0.015055210127703,-0.0626187483701273,-0.0939280352887284,72.3,10.35,88.8,-841.79687,-61.03516,571.77734,0.1001899275790336,-0.006128723668378,-0.0242480338308824,56.1,20.55,23.7
-1011.71875,-53.71094,-228.02734,-0.0852680606061829,-0.1220398790176759,-0.0214502710399355,0.6,22.95,29.55,-77.14844,38.57422,1017.57812,0.0528927265804637,-0.0639509581881746,-0.1244379614099161,70.35,9.75,85.5,-840.33203,-45.89844,578.125,0.113246561180278,-0.0166539317225298,-0.0030642745677264,55.65,20.85,22.65
-998.04687,-53.71094,-219.72656,-0.0179861415405771,-0.0778071271197576,-0.0151883787496302,0.15,22.35,29.55,-77.14844,28.80859,1013.67187,0.0074609334864253,-0.0069280844657914,-0.132165406673121,71.1,10.8,86.85,-839.35547,-36.13281,579.58984,0.0718115720733066,-0.0374380105869791,-0.0367718184114929,56.7,19.8,22.65
-988.76953,-55.17578,-208.98437,-0.0325085026476463,-0.1235054319905755,-0.0087933178373978,0.6,22.35,27.3,-83.49609,41.99219,1008.78906,0.0221164632154217,-0.0446324322966249,-0.1023216727274195,71.1,10.05,86.85,-819.82422,-49.80469,586.91406,0.1083170532409452,-0.0806048899107045,-0.0001331686219271,56.7,19.8,22.65
-1000.48828,-53.71094,-209.96094,0.042900542079871,-0.1008561197545199,-0.0494287716140306,0.6,24.0,28.2,-79.10156,56.15234,1034.17969,0.0543582795533633,-0.0291777163031404,-0.1072511806667523,71.1,10.05,86.85,-812.98828,-59.57031,551.75781,0.1120475199841579,-0.0217166082837898,0.015055210127703,56.55,19.95,23.85
-1011.23047,-39.55078,-195.3125,0.0827366350590903,-0.1537488463349836,0.0,0.15,23.4,28.8,-79.58984,62.01172,1019.53125,0.0335742006889141,-0.0303767574992605,-0.0917962901403425,70.5,8.85,86.7,-810.54687,-60.54688,566.89453,0.1183094122744632,0.0014655529728996,0.0440995832759911,57.0,20.7,23.85
-1025.39063,-50.78125,-201.66016,0.0218499514386422,-0.1131133925583509,-0.0552909835056291,1.65,22.95,28.5,-69.82422,54.6875,995.11719,0.0297105653237742,-0.0407687969314851,-0.1231057515918688,70.65,9.75,86.85,-829.10156,-58.59375,588.37891,0.0936615235119489,0.0099923590335179,-0.0538254305327295,57.0,20.7,23.85
-1012.69531,-42.48047,-171.38672,0.0711455544307456,-0.1481531462201646,-0.0788728251610253,1.65,22.95,28.5,-71.77734,51.75781,1004.39453,0.0802052095119978,-0.0318423104721601,-0.1017886491738605,72.0,8.85,86.7,-819.82422,-72.26563,575.68359,0.1120475199841579,0.0230489926347623,-0.0199847180670358,57.9,19.8,24.0
-1001.46484,-67.87109,-156.73828,0.0822036115055313,-0.1710689702329998,-0.0202512298438154,0.45,23.85,28.35,-62.98828,73.24219,1001.46484,0.0720780838500862,-0.023981696587028,-0.1428239578821251,72.0,8.85,86.7,-798.82812,-63.96484,595.70312,0.1139127533557643,0.0282450123508746,-0.0334410320669869,57.45,19.8,22.2
-988.28125,-79.58984,-141.60156,0.0802052095119978,-0.1172435397002702,-0.0896645449919567,0.6,22.95,29.25,-66.40625,49.31641,988.28125,0.0495619402359577,0.0086599746825454,-0.1409587245105188,71.1,9.0,87.9,-805.17578,-59.57031,598.14453,0.098724374606134,-0.0127901218244648,-0.015055210127703,57.15,21.9,23.25
-967.28516,-87.40234,-147.46094,0.0883323351739094,-0.1121806886060851,-0.0660827033365605,0.15,22.35,29.1,-23.92578,66.89453,1020.50781,0.0584886012282079,-0.1211071750654101,-0.1554809110846628,71.4,8.55,87.9,-823.73047,-84.96094,569.82422,0.1801286253142519,-0.0001331686219271,0.0047963393174056,57.3,20.25,23.1
-960.9375,-76.17188,-125.0,0.146687593247265,-0.0947273960861418,-0.023448673033469,0.6,22.2,29.55,-71.28906,43.45703,1029.78516,0.0588882816269146,-0.0130566336012443,-0.1341638086666545,71.4,8.55,87.9,-805.66406,-65.91797,601.5625,0.1779968801658661,0.0211837592631559,-0.0776737839649052,57.3,20.25,23.1
-966.79687,-72.75391,-143.06641,0.1120475199841579,-0.0463644970463041,-0.1123138572280122,0.6,22.2,29.55,-72.75391,80.07813,985.83984,0.1264363634034496,-0.0361056262360067,-0.150018379591771,71.4,9.75,87.15,-819.33594,-62.98828,594.72656,0.1726676918278266,-0.0075941021083525,-0.0247810573844414,57.6,19.95,24.15
-977.53906,-42.48047,-134.27734,0.1428239578821251,0.0091929982361045,-0.077540615342978,2.1,22.5,30.3,-67.87109,72.26563,1000.48828,0.0880658233971298,-0.0656830229378538,-0.1167105161467112,70.8,9.15,86.7,-800.29297,-57.12891,569.33594,0.2218299516650776,-0.0049295079393327,-0.0508943245869302,56.4,20.1,24.0
-991.21094,-31.73828,-148.4375,0.1121806886060851,-0.0246477142295891,0.0031976177225788,1.5,22.65,27.0,-55.66406,91.30859,1017.08984,0.0592879620256213,-0.0478300500192038,-0.1702694349026612,70.5,8.4,87.0,-816.89453,-30.76172,598.63281,0.143356806902759,0.0318423104721601,-0.0667488955120467,57.45,20.1,22.65
-1003.41797,-44.92188,-149.90234,0.1016554805519333,-0.0241148652089552,0.0126569532025376,1.35,23.25,28.95,-51.26953,67.38281,1009.27734,0.06634921511334,-0.0447657754514773,-0.1240382810112094,70.5,8.4,87.0,-836.91406,-20.01953,611.81641,0.0941945470655079,0.005595700114819,-0.0823369546603836,56.25,22.2,22.8
-1006.34766,-74.21875,-146.97266,0.0458314734927451,0.013456313999951,-0.0550244717288496,1.35,22.2,28.95,-59.57031,70.3125,1019.04297,0.0674150876875329,-0.0175864611418704,-0.1024548413493467,70.5,8.4,87.0,-832.51953,-6.83594,592.77344,0.1598775700033617,0.0390367321818059,-0.0603538345998143,55.2,21.75,21.3
-1004.88281,-73.24219,-149.90234,0.0470306892217904,-0.0530260697353161,-0.0049295079393327,1.35,22.2,28.95,-71.77734,68.84766,1055.66406,0.1153783063286639,-0.0772741035661985,-0.1458882324498516,72.3,8.85,85.65,-829.58984,-3.90625,582.51953,0.2078407886444927,0.0436999028772844,-0.0690138092823597,57.9,20.1,24.3
-987.30469,-63.47656,-166.50391,0.0551578148837019,-0.0017320647496791,-0.0185191650941362,0.45,21.9,28.35,-50.29297,68.84766,1036.62109,0.1056524590719255,-0.0586217698501351,-0.1172435397002702,69.6,9.0,87.6,-822.26562,-17.57813,615.23437,0.1516171011865978,-0.0030642745677264,-0.0706125308771865,57.9,20.1,24.3
-994.62891,-46.38672,-162.10937,-0.0433002224785777,0.0512940049856369,0.0073277648644981,0.45,22.35,29.4,-69.33594,58.59375,1016.60156,0.10205516095064,-0.0554241521275563,-0.1306998537002213,69.75,9.15,86.7,-829.10156,-41.50391,612.79297,0.1593445464498027,0.0205175670876697,-0.0433002224785777,57.9,21.15,23.25
-1001.95312,-47.85156,-167.48047,-0.0103920394322246,0.0171867807431637,0.1121806886060851,0.6,22.5,27.15,-62.98828,79.10156,1018.55469,0.1277687477544221,-0.0459648166475974,-0.1485528266188713,69.75,9.15,86.7,-818.84766,-31.25,597.16797,0.1945176432664688,-0.0171867807431637,-0.0530260697353161,57.9,21.15,23.25
-996.09375,-43.94531,-165.03906,-0.0347734164179594,0.039569755735365,0.0814042507081179,1.5,23.1,29.1,-54.6875,83.49609,1020.99609,0.1009892883764471,-0.0848683802074762,-0.1349631694640679,70.8,9.9,85.95,-814.94141,-20.50781,590.82031,0.196249708016148,0.0193185258915496,-0.0634181091675407,58.35,20.7,23.1
-998.04687,-60.05859,-166.50391,-0.0774072721881257,0.0277121633302407,0.0827366350590903,1.5,23.1,29.1,-66.89453,85.44922,1013.67187,0.1513507639427435,-0.0659495347146333,-0.1682710329091277,72.3,11.4,86.7,-822.75391,-4.88281,627.44141,0.1941179628677621,0.0193185258915496,-0.0960597804371143,56.4,20.85,22.65
-970.70312,-50.29297,-166.50391,-0.0410353087082646,-0.0142556747973644,0.1251041535854023,0.75,23.1,28.8,-73.24219,110.35156,1010.74219,0.091529778363563,-0.0598208110462552,-0.1393598283827668,72.3,11.4,86.7,-828.61328,-7.32422,619.62891,0.0896645449919567,0.0410353087082646,-0.0652833425391471,55.8,20.7,22.8
-983.39844,-46.875,-164.55078,-0.0716784034513795,-0.0118575924051242,0.089797888146809,0.3,22.2,29.55,-50.78125,160.15625,1005.37109,0.1669388230910804,0.0125237845806105,-0.158944866051096,70.35,8.25,86.1,-821.77734,25.87891,604.00391,0.1437564873014657,-0.0187856768709157,-0.0626187483701273,57.45,19.8,22.65
-989.74609,-25.87891,-170.41016,-0.1032542021467601,0.0652833425391471,0.0932618431132422,-0.15,22.35,28.35,-57.12891,189.45312,1000.48828,0.1361623851931132,-0.0001331686219271,-0.1382939558085739,70.35,8.55,86.85,-804.19922,9.27734,568.84766,0.2310229499011822,0.0074609334864253,-0.06634921511334,57.45,19.8,22.65
-1020.99609,-18.55469,-196.28906,-0.0595542992694757,-0.0194516945134768,0.1107151356331855,0.6,22.5,28.5,-57.61719,165.03906,1020.99609,0.0002665117767795,0.0026645941690197,-0.0847350370526239,72.15,8.25,87.9,-815.42969,26.36719,618.65234,0.1785299037194251,-0.0141225061754373,-0.0377045223637587,58.2,19.8,22.65
-1018.55469,-10.25391,-188.96484,-0.0929953313364626,0.0790061683158777,0.1103154552344788,0.6,22.5,28.5,-30.76172,135.74219,1040.52734,-0.0098591904115907,-0.0486294108166172,0.0378376909856858,72.15,8.25,87.9,-817.87109,36.13281,643.55469,0.0907304175661496,-0.0383705400063197,-0.0662158719584876,58.2,19.8,22.65
-1007.32422,-25.87891,-178.22266,-0.0968591412345277,0.0299770771005538,0.0109248884528585,1.65,22.5,29.55,-22.94922,81.05469,1044.43359,-0.0471638578437175,-0.0891316959713228,0.0018652333716063,71.4,10.05,85.5,-815.91797,20.50781,654.29687,0.1172435397002702,-0.0005328490206338,-0.0678147680862396,57.15,20.1,22.2
-976.5625,-32.22656,-167.96875,-0.0822036115055313,-0.0330413516682802,-0.002264913770313,1.05,22.95,28.2,-30.76172,48.82813,1000.0,0.020117886688963,-0.0283781809728018,0.0359724576140795,70.65,9.0,87.15,-809.08203,4.88281,635.74219,0.0570230482553083,0.0034639549664331,-0.0977916706538682,57.15,20.1,23.7
-964.35547,-39.55078,-168.45703,-0.08420218803199,-0.029044373148288,-0.0588882816269146,0.15,23.4,28.35,-53.71094,22.46094,984.86328,0.0367718184114929,-0.0779402957416847,0.0119907610270514,70.5,8.85,87.45,-822.75391,-0.97656,617.67578,0.0305099261211876,-0.0070612530877186,-0.0824701232823108,57.15,20.1,23.7
-974.12109,-13.18359,-148.4375,-0.1429571265040523,-0.0030642745677264,-0.0423675185263119,1.35,22.5,28.5,-52.24609,43.94531,979.49219,0.0888651841945432,-0.0053291883380394,-0.0153215473715574,70.5,8.85,87.45,-819.33594,-7.32422,622.55859,0.0732771250462063,-0.0103920394322246,-0.049162259837251,58.05,19.95,22.5
-949.70703,-7.32422,-155.27344,-0.1056524590719255,-0.0291777163031404,-0.0179861415405771,1.35,22.5,28.5,-51.26953,91.30859,994.62891,0.1834594116587579,-0.0106585512090041,-0.0856677410048896,71.25,10.35,86.7,-825.19531,-42.96875,633.30078,0.0784731447623186,-0.0442327518979182,-0.0816707624848974,57.3,19.2,22.5
-963.37891,16.11328,-154.78516,-0.1482863148420918,-0.0226493122360556,0.0714118916745999,0.45,24.6,29.4,-50.29297,116.69922,1025.87891,0.1103154552344788,-0.0074609334864253,-0.0410353087082646,69.6,9.0,86.55,-805.66406,-35.64453,648.4375,0.0406354537766327,-0.0644839817417337,-0.0503614755662963,57.3,19.2,22.5
-958.98437,16.11328,-176.26953,-0.2231623360160501,0.015055210127703,0.0031976177225788,0.15,23.1,29.1,-38.57422,125.48828,1030.27344,0.0289112045263608,-0.0370383301882724,-0.0235820161883213,71.1,9.3,86.55,-805.66406,-54.6875,638.18359,0.0566231933236764,-0.0642174699649541,-0.0744763407752516,58.05,20.25,23.85
-942.38281,9.76562,-169.92187,-0.2383507147656804,0.0206509102425221,0.0053291883380394,0.0,22.5,28.95,-27.34375,107.42188,1045.41016,0.0218499514386422,-0.0811377389313384,0.0563568560798221,70.65,9.75,86.55,-787.10937,-30.27344,604.00391,0.0893982077481023,-0.0984578628293545,-0.0377045223637587,58.05,20.25,23.85
-930.17578,4.39453,-173.82812,-0.1815941782871516,0.0210505906412288,0.0006661921754862,1.2,22.65,29.1,-45.89844,93.26172,1020.99609,-0.0490290912153239,-0.0740764858436197,-0.0030642745677264,70.65,7.8,87.6,-787.10937,-45.89844,612.79297,0.0692803210591393,-0.014522186574144,-0.1309663654770009,57.6,20.25,23.85
-938.96484,-24.41406,-173.33984,-0.1950504922871027,0.0555574952824086,-0.0163874199457503,1.2,22.65,29.1,-42.96875,60.54688,982.42187,-0.0819372742616769,-0.0863337586474507,-0.0007993607974134,70.2,8.4,87.45,-807.61719,-44.92188,645.50781,0.0222496318373489,-0.0406354537766327,-0.027312482931534,57.9,21.15,22.65
-964.84375,-41.50391,-195.3125,-0.1769310075916731,0.0185191650941362,-0.0043966589186989,1.2,23.4,29.85,-61.03516,71.77734,998.04687,-0.0651499993842947,-0.0443659205198454,-0.0026645941690197,70.2,8.4,87.45,-797.85156,-61.03516,665.52734,0.0137228257767306,-0.0462311538914518,-0.0367718184114929,57.15,21.9,22.65
-975.58594,-50.29297,-189.94141,-0.0909969293429291,-0.0062618922903052,0.039569755735365,0.45,24.15,28.8,-44.92188,104.98047,1036.13281,-0.0567565364785288,-0.0772741035661985,-0.0415681577288985,71.4,10.05,86.55,-801.26953,-47.36328,636.71875,0.1259035143828157,-0.0281118437289474,-0.0345069046411798,57.45,19.8,23.7
-992.1875,-52.24609,-184.57031,-0.0889985273493956,-0.0143890179522168,-0.0548913031069224,0.45,24.6,29.1,-34.66797,137.20703,1020.01953,0.0185191650941362,-0.0811377389313384,-0.0417013263508257,70.8,9.15,85.95,-807.61719,-42.48047,627.44141,0.1366952342137471,-0.0426340303030914,-0.094860564708069,57.45,19.8,23.7
-998.04687,-49.31641,-192.87109,-0.0754088701945922,0.0155880591483369,-0.027312482931534,0.6,24.3,28.95,-42.96875,139.16016,1025.87891,-0.0796723604913639,-0.0933951862680945,-0.0029311059457992,69.9,9.3,86.1,-799.80469,-30.27344,625.97656,0.1971822374354885,-0.0142556747973644,-0.0820704428836041,57.0,20.7,22.8
-980.46875,-63.47656,-181.15234,0.0003996803987067,-0.0623522365933478,-0.0338407124656936,0.6,24.3,28.95,-19.53125,99.12109,1012.69531,-0.1368284028356742,-0.1807948174897382,-0.0259800985805615,69.9,9.3,86.1,-806.64062,-9.76562,622.55859,0.1991806394290221,-0.0261132672024887,-0.0771409349442713,57.0,20.7,22.8
-986.32812,-59.08203,-168.45703,-0.0155880591483369,-0.0823369546603836,-0.0913966097416358,0.6,24.3,28.95,-6.83594,50.29297,1016.60156,-0.1821270273077855,-0.1432236382808319,0.0103920394322246,70.5,10.35,87.75,-814.45312,10.74219,616.21094,0.1685375446859072,-0.0119907610270514,-0.0702128504784798,56.1,20.55,23.25
-977.53906,-59.08203,-175.29297,-0.0195850376683291,-0.0747426780191059,-0.0115910806283447,0.15,23.1,28.8,-45.89844,1.95312,1008.78906,-0.0519601971611231,-0.1113813278086717,0.0258469299586344,70.2,9.9,88.5,-816.89453,-6.83594,623.04687,0.0856677410048896,0.0463644970463041,-0.0995237354035474,57.15,19.35,22.2
-988.76953,-58.59375,-178.22266,0.0278453319521679,-0.1795957762936181,-0.0178529729186499,0.15,23.4,29.1,-41.50391,20.99609,1008.30078,-0.0025314255470925,-0.1601439072472161,-0.0455651362488907,70.35,9.0,86.55,-812.5,-27.34375,632.8125,0.0783399761403914,0.0057288687367461,-0.0883323351739094,57.3,19.95,22.8
-977.53906,-51.75781,-182.12891,-0.0030642745677264,-0.0928621627145355,-0.0103920394322246,0.45,23.1,29.1,-51.75781,29.78516,997.07031,0.0985910314512816,-0.1204409828899239,-0.0927289940926083,70.8,9.6,87.0,-808.10547,-22.94922,634.76562,0.11990813386929,-0.0311761182966739,-0.0929953313364626,56.25,19.5,23.1
-987.30469,-54.19922,-178.22266,-0.0427671989250186,-0.0790061683158777,-0.0480965617959833,1.35,24.0,28.95,-50.29297,51.75781,1009.27734,0.1516171011865978,-0.1228392398150893,-0.1259035143828157,69.9,7.8,86.55,-814.94141,-62.01172,621.58203,0.1147121141531777,-0.0009327039522657,-0.0619525561946411,56.25,19.5,23.1
-1003.90625,-28.80859,-168.94531,0.0153215473715574,-0.1001899275790336,0.0834028272345766,1.35,24.0,28.95,-48.82813,80.56641,1038.08594,0.0956601000384076,-0.0708790426539661,-0.0972588216332344,71.1,10.05,87.15,-821.28906,-57.61719,618.65234,0.1769310075916731,-0.0203843984657425,-0.0345069046411798,56.1,18.6,23.7
-1013.18359,-28.32031,-166.99219,0.0006661921754862,-0.0604870032217414,0.0251807377831481,0.15,22.35,28.35,-23.4375,106.44531,1027.34375,0.0595542992694757,-0.0787396565390981,-0.0470306892217904,71.1,10.05,87.15,-800.78125,-20.50781,616.69922,0.2208974222457371,-0.0566231933236764,-0.0281118437289474,56.1,18.6,23.7
-1013.18359,-37.59766,-162.59766,-0.0297105653237742,-0.1372282577673061,0.0692803210591393,0.6,22.95,28.95,-158.20312,87.40234,1040.03906,-0.093128674491315,0.0563568560798221,-0.0566231933236764,69.9,9.3,87.9,-788.08594,-12.69531,623.04687,0.2063752356715931,0.0010658725741929,-0.0301102457224809,57.15,20.1,22.95
-988.28125,-37.59766,-149.90234,-0.0409019655534123,-0.1161776671260773,0.0193185258915496,0.75,23.1,28.05,-45.41016,110.83984,996.58203,0.0199847180670358,-0.128834620328615,-0.0528927265804637,70.5,9.6,87.0,-781.25,12.69531,572.26562,0.2528729013398244,0.0206509102425221,-0.0314426300734534,57.3,20.7,22.05
-1007.32422,-33.20313,-158.20312,-0.0566231933236764,-0.0985910314512816,0.1035207139235396,0.3,21.75,29.55,-43.45703,66.89453,1024.41406,-0.073676805444913,-0.0965926294577481,-0.0014655529728996,69.75,9.6,86.25,-786.62109,51.75781,543.45703,0.2200980614483237,0.0417013263508257,0.0382373713843925,56.7,20.55,22.95
-1010.74219,-28.32031,-166.01562,-0.080871401687484,-0.0782068075184643,0.0035972981212855,0.3,21.75,29.55,-46.38672,30.27344,1008.30078,-0.0933951862680945,-0.0907304175661496,-0.0347734164179594,69.75,9.6,86.25,-807.12891,74.21875,544.92187,0.2063752356715931,0.0470306892217904,-0.0041301471419193,57.45,19.35,22.65
-1035.15625,-27.83203,-177.24609,-0.0523598775598298,-0.1191087730718766,0.0588882816269146,1.2,23.1,29.4,-63.47656,37.59766,963.86719,-0.0832694840797242,-0.059154618870769,-0.0161209081689708,70.35,9.3,86.1,-803.71094,79.10156,524.41406,0.116577347524784,0.0510274932088574,-0.0025314255470925,56.1,19.8,22.65
-1041.01563,-39.0625,-189.94141,-0.0646171503636608,-0.0106585512090041,0.0198513749121835,0.45,22.65,29.85,-61.03516,67.87109,949.21875,0.0017320647496791,0.0014655529728996,-0.036238969390859,69.0,8.4,87.45,-795.89844,85.9375,522.94922,0.032375159492794,0.0598208110462552,-0.0519601971611231,58.05,20.7,22.05
-1008.78906,-62.98828,-175.78125,-0.0744763407752516,-0.0436999028772844,-0.023448673033469,0.6,23.7,30.3,-68.84766,98.63281,979.98047,0.0668820641339739,0.0847350370526239,-0.0075941021083525,69.75,8.85,87.45,-824.70703,72.26563,529.78516,-0.0490290912153239,0.046897346066938,-0.032375159492794,58.05,20.7,22.05
-998.04687,-44.92188,-170.89844,-0.0042633157638465,-0.0796723604913639,0.0588882816269146,1.05,22.95,28.95,-102.53906,105.95703,982.91016,0.1147121141531777,0.0508943245869302,-0.0286446927495813,69.75,8.85,87.45,-858.88672,71.77734,533.20312,-0.103787051167394,0.0588882816269146,-0.050761155965003,56.4,19.35,22.05
-973.14453,-66.40625,-160.64453,-0.0330413516682802,-0.0450321126953316,-0.0221164632154217,1.05,22.95,28.95,-92.28516,121.58203,994.62891,0.0969923098564548,0.1004564393558132,0.0006661921754862,69.75,9.15,87.75,-862.79297,55.17578,551.75781,-0.1759984781723326,0.0301102457224809,-0.0530260697353161,57.3,19.35,22.95
-986.32812,20.01953,-187.01172,-0.0267794593779749,-0.1854578136522914,-0.06634921511334,0.15,22.65,27.75,-95.21484,92.28516,971.67969,-0.0425006871482391,-0.0261132672024887,-0.0588882816269146,71.7,8.25,86.1,-806.64062,53.22266,552.24609,0.0285115241276541,0.0959264372822619,0.0075941021083525,57.45,20.85,24.0
-985.83984,-8.78906,-175.29297,0.041301645952119,-0.1901209843477699,-0.1688040564626867,-1.05,23.7,27.9,-102.53906,95.70313,987.79297,-0.0623522365933478,-0.0035972981212855,-0.0358392889921523,71.7,8.25,86.1,-826.66016,49.80469,562.01172,-0.0299770771005538,0.0330413516682802,-0.0266462907560478,57.0,20.7,25.65
-998.53516,-18.55469,-178.22266,0.0115910806283447,-0.196249708016148,-0.1923858981180829,0.3,24.3,27.45,-113.76953,99.12109,985.83984,-0.0391699008037331,0.0181194846954295,0.0122572728038309,71.4,9.75,85.8,-825.68359,59.57031,562.5,-0.049162259837251,0.0522267089379027,-0.0027979373238721,57.45,20.1,23.25
-1002.44141,-32.71484,-166.50391,0.052493046181757,-0.182926562638124,-0.1763981585710393,0.15,24.15,27.3,-121.09375,106.44531,992.1875,-0.0169204434993094,0.0263797789792682,-0.0038636353651398,72.15,8.55,85.8,-825.19531,70.80078,584.96094,-0.1248376418086228,0.0382373713843925,-0.0599539796681824,57.45,20.1,23.25
-990.23437,-24.90234,-167.48047,0.1502848913685505,-0.2122374475631916,-0.1113813278086717,0.15,24.15,27.3,-109.86328,116.69922,998.04687,-0.0550244717288496,0.0143890179522168,0.0534257501340228,72.0,9.9,85.65,-833.49609,44.92188,559.08203,-0.1144456023763981,0.0879326547752027,-0.0266462907560478,57.15,20.55,23.7
-966.79687,-29.29688,-141.11328,0.0969923098564548,-0.195183835441955,-0.0985910314512816,0.15,24.15,27.3,-97.16797,104.98047,1027.83203,-0.0498284520127373,0.0417013263508257,0.0892648645932499,72.0,9.9,85.65,-834.96094,42.48047,569.82422,-0.1594777150717298,0.0137228257767306,-0.04849624219469,57.15,20.55,23.7
-977.53906,-23.92578,-152.34375,0.0816707624848974,-0.1209740064434829,-0.1825268822394173,0.0,22.2,29.55,-89.84375,97.16797,1021.97266,-0.0835359958565038,-0.0153215473715574,0.0787396565390981,71.4,9.0,85.5,-836.91406,31.73828,599.60937,-0.2078407886444927,0.0463644970463041,-0.0406354537766327,57.15,21.15,21.15
-968.75,-10.74219,-132.8125,0.1160443239712249,-0.1208406632886305,-0.1841256038342442,-0.6,22.95,28.5,-93.26172,97.16797,1005.37109,-0.0676814249313873,-0.0039969785199922,0.1422909343285661,72.9,9.75,86.1,-821.28906,0.0,586.91406,-0.1774640311452322,0.0640843013430269,-0.0567565364785288,58.05,20.25,23.55
-967.28516,-17.08984,-147.94922,0.0989908863829135,-0.0900643999235885,-0.096459460835821,0.0,22.95,30.0,-92.77344,86.42578,1014.16016,-0.0381042027624654,0.0282450123508746,0.1041869060990259,71.55,9.15,84.9,-835.44922,-15.13672,618.65234,-0.1789295841181318,0.0375711792089063,-0.0389035635598788,58.5,20.1,22.65
-967.77344,-34.66797,-151.36719,0.0436999028772844,-0.0153215473715574,-0.2039769787464277,0.0,22.95,30.0,-92.28516,80.56641,992.67578,-0.0258469299586344,0.0147886983509235,0.0822036115055313,72.3,9.6,85.95,-816.40625,-26.36719,599.12109,-0.1979815982329019,0.0207840788644492,-0.0511608363637097,57.3,19.5,22.8
-989.74609,-35.64453,-148.92578,-0.0159877395470436,0.0233155044115418,-0.1173767083221974,1.05,22.2,29.25,-83.98438,86.42578,995.60547,-0.0710122112758932,0.0226493122360556,0.1091164140383586,72.15,10.05,85.8,-816.40625,-40.52734,578.125,-0.0929953313364626,0.0317089673173077,0.0019984019935335,57.3,19.5,22.8
-997.07031,-58.10547,-144.53125,0.0482297304179105,-0.0077274452632048,-0.0471638578437175,0.15,22.65,29.85,-85.44922,75.19531,994.14062,-0.0307764378979672,0.0456983048708179,0.0718115720733066,72.3,9.15,85.65,-818.84766,-16.60156,597.65625,-0.1057856276938527,0.0479632186411309,-0.0282450123508746,58.2,19.8,23.25
-974.12109,-63.96484,-141.11328,0.0087933178373978,0.0600873228230347,-0.0433002224785777,1.05,22.95,29.55,-86.42578,68.84766,1002.44141,-0.0920628019171221,0.0419678381276052,0.0676814249313873,72.3,9.15,85.65,-804.19922,-33.69141,569.82422,0.0267794593779749,0.055823832526263,-0.0301102457224809,58.2,19.8,23.25
-956.05469,-49.31641,-142.08984,-0.0536922619108023,0.094860564708069,-0.0546247913301429,-0.15,21.9,28.8,-96.19141,81.54297,1008.30078,-0.0426340303030914,0.0089264864593249,0.1004564393558132,72.3,9.15,85.65,-812.5,13.18359,614.74609,-0.0038636353651398,0.0560903443030425,0.0042633157638465,58.2,19.8,23.25
