IMU1_AccX,IMU1_AccY,IMU1_AccZ,IMU1_GyrX,IMU1_GyrY,IMU1_GyrZ,IMU1_MagX,IMU1_MagY,IMU1_MagZ,IMU2_AccX,IMU2_AccY,IMU2_AccZ,IMU2_GyrX,IMU2_GyrY,IMU2_GyrZ,IMU2_MagX,IMU2_MagY,IMU2_MagZ,IMU3_AccX,IMU3_AccY,IMU3_AccZ,IMU3_GyrX,IMU3_GyrY,IMU3_GyrZ,IMU3_MagX,IMU3_MagY,IMU3_MagZ
-1001.95312,-54.6875,-171.38672,-0.0358392889921523,-0.0146553551960711,-0.046897346066938,0.75,23.4,30.45,-43.94531,139.16016,963.37891,0.0170536121212365,0.0205175670876697,0.0155880591483369,71.25,9.6,86.7,-795.89844,50.29297,520.99609,-0.0434333911005048,0.0940612039106556,0.0110582316077108,57.45,19.35,22.2
-994.62891,-44.43359,-163.57422,0.0434333911005048,-0.0698131700797731,0.0355727772153728,1.5,24.15,30.45,-67.87109,135.74219,952.14844,0.0211837592631559,0.0322419908708668,0.0130566336012443,70.2,9.6,86.25,-810.54687,47.85156,537.10937,-0.1404257009569597,0.0221164632154217,-0.0282450123508746,57.0,19.2,22.5
-992.1875,-51.75781,-165.03906,0.0341072242424731,-0.1008561197545199,0.0790061683158777,1.35,24.0,29.55,-68.84766,117.67578,969.23828,0.0325085026476463,0.0807380585326316,0.050228132411444,70.2,9.6,86.25,-811.03516,40.03906,563.47656,-0.196915725658709,-0.0138559943986577,-0.0114579120064175,56.4,21.15,24.0
-964.35547,-37.10938,-162.59766,0.0567565364785288,-0.071944915228159,0.0158545709251164,1.5,24.6,28.8,-83.00781,116.69922,1004.88281,0.0214502710399355,0.0883323351739094,0.0863337586474507,70.2,9.6,86.25,-833.00781,41.99219,565.42969,-0.230356757725696,0.0225161436141284,-0.0367718184114929,57.45,20.55,21.9
-970.70312,-27.83203,-160.15625,0.0271791397766816,0.0130566336012443,-0.0350397536618137,1.5,24.6,28.8,-101.5625,101.07422,1019.04297,-0.0021317451483858,0.0815375938629702,0.0920628019171221,71.55,9.6,87.45,-831.05469,38.08594,594.23828,-0.2863139334068114,-0.0197182062902563,0.0293108849250675,56.7,19.35,22.95
-947.26562,-17.08984,-167.96875,0.0357059458372999,0.0211837592631559,-0.0187856768709157,1.5,23.1,29.4,-85.9375,83.00781,1018.55469,-0.0118575924051242,0.1011224569983742,0.0620857248165682,70.5,9.9,86.7,-842.28516,27.34375,592.77344,-0.2895115511293901,0.0066615726890119,-0.0227824808579827,56.7,19.35,22.95
-963.37891,-23.4375,-178.71094,0.0227824808579827,0.0532925815120956,0.0030642745677264,1.5,24.6,29.1,-150.87891,89.84375,1012.20703,0.1121806886060851,0.3705161214388014,0.0564900247017492,71.55,8.85,85.65,-848.14453,13.67187,604.49219,-0.3722481861884806,0.0186523337160634,-0.0285115241276541,57.6,18.0,22.8
-974.60937,-34.66797,-171.38672,-0.0626187483701273,0.0940612039106556,-0.0495619402359577,1.35,23.7,30.3,-92.77344,76.66016,999.02344,0.0460979852695246,0.0584886012282079,0.0716784034513795,71.55,8.85,85.65,-833.49609,-7.32422,583.98437,-0.2947075708455025,-0.022382800459276,0.0350397536618137,57.0,19.5,24.6
-1007.32422,-36.13281,-179.6875,-0.0377045223637587,0.057422728654015,-0.023981696587028,2.1,24.3,30.3,-67.87109,107.91016,1042.48047,0.0318423104721601,0.050228132411444,0.098724374606134,70.2,10.35,87.75,-823.73047,-27.83203,581.05469,-0.2744563410016871,0.0166539317225298,0.0146553551960711,57.0,19.95,23.85
-1029.78516,-30.27344,-189.45312,-0.0326416712695735,0.1055191159170731,-0.0848683802074762,2.1,24.3,30.3,-64.45313,108.88672,1028.32031,-0.0035972981212855,-0.0182526533173567,0.1312327027208552,70.5,8.85,87.0,-847.16797,-23.4375,590.82031,-0.2708590428804016,-0.0315757986953806,0.046897346066938,57.0,19.2,23.55
-1030.76172,-48.82813,-195.80078,-0.0616860444178615,0.0450321126953316,-0.0921959705390492,1.5,24.6,29.85,-54.19922,122.55859,989.74609,-0.0119907610270514,0.060753514998521,0.1216401986189692,72.3,9.15,87.0,-822.75391,-22.46094,598.14453,-0.2606003466030293,0.022382800459276,0.0410353087082646,56.1,19.35,24.0
-1034.66797,-56.15234,-183.59375,-0.0271791397766816,-0.0127901218244648,-0.0406354537766327,1.5,24.15,29.85,-64.94141,107.42188,1009.27734,-0.077540615342978,0.0952604196397009,0.20411032190128,69.9,9.0,87.15,-825.68359,-25.87891,598.14453,-0.2490092659746846,0.0173201238980161,0.0209172474863764,56.25,18.45,23.1
-1030.76172,-56.15234,-166.01562,-0.039569755735365,0.0471638578437175,-0.0866002704242302,0.45,24.15,29.85,-64.45313,83.00781,1031.73828,-0.0969923098564548,0.1464210814704855,0.1987809590303153,71.25,9.6,85.95,-817.38281,-36.13281,593.75,-0.231955653853448,0.0385038831611721,0.0460979852695246,56.25,18.45,23.1
-1023.4375,-45.41016,-178.22266,-0.0146553551960711,-0.0051960197161123,-0.0683476171068735,0.45,25.35,29.4,-80.56641,65.42969,1020.99609,-0.0866002704242302,0.1422909343285661,0.1546815502872494,72.0,10.35,85.95,-818.84766,-40.52734,610.83984,-0.2839158510145712,0.052493046181757,0.0634181091675407,57.45,19.05,23.25
-1015.13672,-45.41016,-171.875,-0.0454317930940384,-0.0417013263508257,0.0221164632154217,0.75,24.9,29.4,-67.38281,61.03516,1034.17969,0.0041301471419193,0.1229724084370164,0.1207074946667034,72.0,10.35,85.95,-805.17578,-26.85547,619.62891,-0.2336875440702019,0.0221164632154217,0.0543582795533633,58.35,19.95,23.1
-1009.76562,-41.50391,-139.64844,-0.0498284520127373,0.0149218669728507,-0.0158545709251164,0.75,24.9,29.4,-41.99219,71.77734,1040.03906,0.0047963393174056,0.1187090926731699,0.1100489434576992,70.2,9.15,87.45,-812.5,-35.15625,597.16797,-0.2436799031037199,0.0161209081689708,0.0698131700797731,57.9,19.05,25.05
-1007.8125,-52.73438,-143.55469,-0.0275788201753884,-0.0142556747973644,0.022382800459276,1.2,24.15,30.15,-53.22266,93.75,1003.90625,-0.0009327039522657,0.086467101802303,0.1806614743348858,69.45,10.35,85.95,-793.94531,-42.48047,590.33203,-0.2115712553877054,-0.0014655529728996,0.0828698036810175,57.6,19.95,23.1
-988.28125,-41.01563,-155.76172,-0.0270459711547545,0.0138559943986577,0.0393032439585855,2.25,23.4,30.45,-63.96484,91.30859,974.12109,-0.058088746296576,0.1336309596460206,0.1598775700033617,72.15,8.25,86.55,-804.6875,-43.94531,606.44531,-0.220364398692178,0.0146553551960711,0.1212403436873373,57.6,19.95,23.1
-977.05078,-44.92188,-140.13672,-0.0478300500192038,-0.0141225061754373,0.0322419908708668,1.2,23.1,29.85,-49.80469,88.86719,1013.18359,-0.023981696587028,0.1075176924435318,0.1072511806667523,72.15,8.25,86.55,-801.26953,-28.80859,618.65234,-0.2570030484817438,0.0291777163031404,0.0459648166475974,57.15,20.1,23.7
-965.33203,-48.82813,-141.60156,-0.0694134896810664,0.0174532925199432,-0.0295773967018471,1.35,25.5,29.55,0.0,92.28516,1038.08594,-0.0047963393174056,0.2390169069411666,0.1337641282679478,70.8,8.4,85.65,-790.52734,-29.78516,621.09375,-0.2250275693876565,0.04849624219469,0.0638177895662474,57.15,19.35,24.0
-965.82031,-43.45703,-139.16016,0.0063950609122324,-0.0225161436141284,-0.0262466103573411,1.35,25.5,29.55,-49.31641,101.07422,1008.30078,-0.0158545709251164,0.0763415741468579,0.1749326055981396,71.4,9.3,86.55,-800.78125,-42.96875,655.27344,-0.2924426570751894,0.0444992636746978,0.03064326927604,57.15,19.35,24.0
-978.51562,-28.80859,-123.53516,-0.0386370517830992,0.0450321126953316,-0.0069280844657914,1.35,24.0,29.55,-52.24609,103.02734,1006.34766,-0.045165455850184,0.0920628019171221,0.1592113778278755,71.25,8.4,87.0,-788.57422,-48.82813,625.0,-0.1993139825838744,0.085934078248744,0.0949939078629213,56.25,19.5,23.55
-990.23437,-22.46094,-147.94922,0.0153215473715574,0.0710122112758932,0.0571562168772355,1.8,23.4,31.2,-57.12891,105.95703,1014.64844,-0.0619525561946411,0.1257703457608885,0.1481531462201646,71.25,8.4,87.0,-789.55078,-61.03516,604.49219,-0.176797838969746,0.0594211306475485,0.0508943245869302,56.25,19.5,23.55
-1007.32422,-18.06641,-137.20703,0.0210505906412288,-0.0001331686219271,0.025713586803782,1.2,23.85,30.9,-42.48047,111.81641,1033.20313,-0.0295773967018471,0.1580123366317554,0.181327666510372,70.8,9.9,87.0,-781.73828,-47.85156,625.48828,-0.2006461924019217,0.071944915228159,0.0382373713843925,58.35,21.0,23.1
-1017.57812,-40.03906,-145.01953,-0.0199847180670358,0.0750091897958855,-0.0297105653237742,1.35,24.0,30.3,-54.6875,93.26172,1038.08594,-0.0542251109314362,0.1662726309155942,0.1685375446859072,70.5,8.85,86.7,-791.50391,-56.64063,611.81641,-0.1982481100096814,0.0854012292281101,-0.0013323843509724,57.3,18.75,24.6
-1026.36719,-42.96875,-142.08984,-0.0335742006889141,0.0215834396618626,-0.1031210335248329,1.35,24.0,30.3,-37.10938,81.54297,1020.01953,-0.0758085505932989,0.1049862668964393,0.208107125888347,70.5,8.85,86.7,-807.12891,-64.94141,641.60156,-0.2903109119268036,0.1140459219776914,0.0486294108166172,57.3,19.95,23.55
-1023.4375,-48.33984,-141.11328,0.0157212277702641,-0.0141225061754373,0.0018652333716063,1.05,22.95,29.25,-53.71094,82.51953,1003.41797,-0.0904640803222952,0.1398928519363259,0.1560137601052967,71.4,8.25,86.1,-806.15234,-77.14844,620.60547,-0.2559371759075509,0.0877993116203503,0.0281118437289474,58.5,19.35,22.2
-990.72266,-14.64844,-137.20703,-0.061419532641082,-0.039569755735365,-0.0631515973907612,1.05,23.7,30.0,-67.38281,96.19141,993.65234,-0.1216401986189692,0.1690703937065411,0.1998468316045083,71.25,9.6,86.7,-801.26953,-82.03125,604.49219,-0.2550046464882103,0.0904640803222952,0.0704793622552594,58.5,19.35,22.2
-976.5625,-2.92969,-131.34766,-0.0287778613715085,0.025713586803782,-0.0660827033365605,1.65,23.7,28.95,-71.77734,115.23438,1004.39453,-0.1293674693492489,0.1421577657066389,0.2079739572664199,72.3,9.15,87.0,-818.84766,-64.45313,642.08984,-0.2446126070559856,0.0960597804371143,0.0556906639043358,58.05,19.2,23.85
-982.42187,3.41797,-146.48437,-0.0338407124656936,0.0010658725741929,-0.0475635382424242,-1.05,24.0,28.95,-81.54297,101.07422,1006.83594,-0.1366952342137471,0.1356293616395541,0.2567365367049642,72.3,9.15,87.0,-826.66016,-73.24219,612.79297,-0.2506079875695113,0.0333078634450597,0.0732771250462063,58.05,19.2,23.85
-963.37891,-0.48828,-136.71875,-0.091529778363563,0.0651499993842947,-0.0566231933236764,-1.05,24.0,28.95,-69.33594,48.33984,1032.71484,-0.225960098806997,0.1644073975439878,0.1825268822394173,72.0,9.15,85.95,-815.42969,-80.56641,616.69922,-0.2595344740288364,0.0991240550048407,0.0295773967018471,58.05,19.5,22.8
-965.33203,-27.83203,-159.66797,-0.1192419416938038,0.0615528757959344,-0.0892648645932499,0.45,24.6,29.4,-73.24219,-28.80859,1062.01172,-0.2134364887593117,0.1424242774834185,0.1123138572280122,72.0,8.4,85.65,-824.70703,-81.54297,640.13672,-0.2684609604881613,0.0602204914449619,0.0498284520127373,56.25,19.5,22.5
-979.49219,-61.52344,-175.29297,-0.0746095093971788,0.0117244237831971,-0.0628850856139816,0.75,24.15,29.1,-61.03516,-63.96484,1066.89453,-0.0804717212887773,0.1454885520511449,0.122173047639603,71.4,7.5,85.8,-813.96484,-97.65625,628.90625,-0.1971822374354885,0.0694134896810664,0.0860674214035963,57.6,21.0,23.55
-992.1875,-80.56641,-164.0625,-0.0969923098564548,0.0326416712695735,-0.0928621627145355,1.5,23.85,29.85,-91.79688,-47.85156,1023.4375,-0.0123904414257581,0.1536156777130565,0.0984578628293545,71.4,7.5,85.8,-812.98828,-89.84375,647.46094,-0.1998468316045083,0.1306998537002213,0.0385038831611721,56.55,19.5,23.85
-1015.625,-61.52344,-161.62109,-0.041301645952119,0.0651499993842947,-0.034640073263107,0.0,23.25,30.3,-83.00781,18.06641,1028.32031,0.0603538345998143,0.0795390173365115,0.0198513749121835,72.15,8.55,85.8,-816.89453,-104.49219,665.03906,-0.1689372250846139,0.094860564708069,0.0269126279999021,56.55,19.5,23.85
-976.5625,-69.82422,-137.69531,-0.0059953805135257,0.0009327039522657,0.064750318985588,0.0,23.25,30.3,-78.125,82.51953,1010.74219,0.0417013263508257,0.0123904414257581,0.0197182062902563,72.15,9.75,86.85,-822.26562,-87.40234,642.08984,-0.0370383301882724,0.0582220894514284,0.0631515973907612,56.4,20.55,23.7
-964.84375,-45.89844,-157.71484,0.0071944217096458,0.0010658725741929,0.0217166082837898,0.75,25.35,30.45,-73.73047,131.83594,993.65234,-0.0209172474863764,0.0091929982361045,0.0555574952824086,72.15,9.75,86.85,-819.82422,-71.28906,662.59766,-0.0771409349442713,0.0463644970463041,0.0889985273493956,56.4,20.55,23.7
-981.93359,-41.50391,-149.90234,0.0013323843509724,0.0578224090527217,-0.0087933178373978,1.05,24.75,28.95,-73.24219,140.13672,1000.97656,-0.0410353087082646,0.0213169278850831,0.0862005900255235,70.8,9.9,86.7,-812.01172,-69.33594,624.51172,-0.0294440535469947,0.020117886688963,0.1163108357480045,55.5,20.25,23.85
-966.79687,-36.13281,-159.17969,0.0850015488294034,0.0003996803987067,0.0231821612566894,1.2,24.15,30.15,-72.75391,92.77344,1016.60156,-0.1065849884912661,0.0345069046411798,0.132165406673121,71.1,8.55,85.5,-802.24609,-45.41016,613.28125,-0.0333078634450597,0.0490290912153239,0.0796723604913639,57.45,19.8,23.25
-960.9375,-37.59766,-153.32031,0.0671485759107534,-0.0197182062902563,0.0143890179522168,1.8,24.9,30.15,-71.28906,59.57031,1004.88281,-0.0650168307623675,0.0131899767560967,0.1164441789028568,71.4,9.3,86.85,-812.01172,-33.69141,648.92578,-0.1084502218628724,0.060753514998521,0.1016554805519333,57.45,20.85,24.3
-982.42187,-34.17969,-154.29687,0.032908183046353,0.0586217698501351,0.0390367321818059,1.8,24.9,30.15,-71.28906,46.38672,1008.78906,-0.022382800459276,-0.0083936374386911,0.0333078634450597,71.4,9.3,86.85,-809.57031,-47.85156,627.92969,-0.1329647674705344,0.0511608363637097,0.064750318985588,57.3,20.7,24.15
-959.96094,-26.85547,-150.39062,0.0683476171068735,-0.0291777163031404,0.0049295079393327,1.8,24.6,29.1,-70.80078,48.33984,993.16406,0.0555574952824086,-0.0181194846954295,0.0763415741468579,71.4,9.3,86.85,-813.47656,-56.15234,642.57812,-0.1149786259299572,0.049162259837251,0.0623522365933478,57.3,20.7,24.15
-960.9375,-17.57813,-152.34375,0.0692803210591393,0.0590214502488418,0.0482297304179105,1.5,24.6,30.15,-66.40625,65.91797,1003.41797,0.0342403928644003,-0.0190520141147701,0.0409019655534123,72.15,10.05,86.55,-806.64062,-67.38281,639.16016,-0.1606769308007752,0.0015987215948268,0.0766079113907123,57.3,20.7,24.15
-964.35547,5.85937,-155.76172,-0.0025314255470925,0.0927289940926083,-0.0185191650941362,1.2,24.9,29.4,-60.54688,67.87109,1011.71875,-0.0107917198309313,-0.0369049870334201,0.0494287716140306,71.25,10.65,86.7,-811.52344,-50.78125,638.67187,-0.059154618870769,-0.049162259837251,0.0666155523571943,56.7,20.55,22.65
-966.30859,-4.88281,-170.89844,0.0778071271197576,0.0678147680862396,-0.0816707624848974,-0.45,23.85,30.15,-68.35938,65.91797,1020.99609,-0.0514271736075641,-0.0105252080541518,0.1019218177957876,72.0,10.35,87.75,-808.10547,-51.26953,615.23437,-0.0309096065198943,-0.0170536121212365,0.0604870032217414,56.7,20.55,22.65
-991.69922,-29.78516,-176.75781,0.0575558972759422,0.0463644970463041,-0.0098591904115907,-0.45,23.85,30.15,-75.19531,53.22266,1012.69531,-0.0079939570399844,0.0074609334864253,0.0624854052152749,72.0,10.35,87.75,-800.78125,-17.08984,593.75,-0.0286446927495813,-0.007860613885132,0.0784731447623186,57.3,21.0,24.6
-999.51172,-41.50391,-181.64062,0.057422728654015,0.0707458740320389,-0.1081837100860929,1.35,23.7,29.25,-93.75,82.51953,1003.90625,-0.0147886983509235,-0.0287778613715085,-0.0213169278850831,72.6,9.6,85.95,-810.54687,-11.71875,609.86328,-0.1117810082073784,-0.0269126279999021,0.0881991665519822,57.45,19.35,22.65
-973.14453,-43.94531,-176.75781,0.0699463387017003,0.0059953805135257,-0.079272505559732,0.6,24.0,30.6,-66.89453,108.88672,1005.85937,0.0318423104721601,-0.0277121633302407,0.0688804661275074,70.35,10.8,88.35,-821.28906,-13.67187,620.11719,-0.1529494855375703,0.025713586803782,0.0415681577288985,57.9,19.8,23.25
-962.40234,-43.94531,-178.22266,0.0816707624848974,0.050228132411444,-0.0708790426539661,1.05,24.3,29.55,-68.35938,124.51172,1014.16016,0.0211837592631559,-0.0282450123508746,0.0446324322966249,72.0,9.15,87.0,-810.05859,-40.52734,593.75,-0.1572128013014168,-0.0189188454928429,0.039569755735365,58.95,19.8,22.95
-966.30859,-37.10938,-175.78125,0.04849624219469,0.0476967068643514,-0.1191087730718766,0.45,24.15,29.85,-66.89453,125.0,1012.69531,0.0006661921754862,-0.0433002224785777,0.103787051167394,71.7,8.25,87.15,-811.03516,-37.10938,599.60937,-0.1989143021851677,-0.0446324322966249,0.0015987215948268,57.0,19.5,23.85
-984.86328,-35.15625,-177.24609,0.004529827540626,0.0672817445326806,-0.0904640803222952,0.45,24.15,29.85,-81.05469,127.92969,1016.60156,0.0534257501340228,-0.0706125308771865,0.1108484787880378,71.7,10.05,87.15,-803.71094,-34.66797,612.79297,-0.2145023613335047,-0.0018652333716063,0.039569755735365,56.25,20.7,23.55
-988.28125,-37.59766,-169.92187,0.0698131700797731,0.0211837592631559,-0.0554241521275563,0.45,24.15,29.85,-78.125,129.88281,1028.32031,0.0066615726890119,-0.0932618431132422,0.0912634411197086,71.55,10.35,88.05,-800.78125,-43.45703,609.86328,-0.200779535556774,-0.0227824808579827,0.0744763407752516,56.25,20.7,23.55
-991.21094,-40.03906,-179.6875,0.0253139064050753,0.0562235129249697,-0.0542251109314362,0.3,22.95,28.5,-77.14844,86.42578,987.30469,-0.1305666850782942,-0.0271791397766816,0.1737335644020195,71.55,10.35,88.05,-806.64062,-50.78125,593.26172,-0.1564134405040034,0.0053291883380394,0.042900542079871,57.45,21.9,23.25
-995.60547,-40.03906,-172.85156,0.0097258472567384,0.0107917198309313,-0.0510274932088574,0.45,23.1,29.1,-87.40234,40.03906,1000.0,-0.0600873228230347,-0.0198513749121835,0.1061853080925594,70.35,8.55,87.6,-802.73437,-43.45703,594.72656,-0.1235054319905755,0.0062618922903052,0.0226493122360556,56.55,18.75,24.9
-988.28125,-47.36328,-181.15234,0.0659495347146333,0.0070612530877186,0.0174532925199432,1.65,24.3,28.95,-73.24219,43.45703,1022.94922,-0.0635512777894679,-0.0235820161883213,0.1240382810112094,72.45,9.0,86.55,-800.78125,-61.52344,581.54297,-0.0834028272345766,0.0403691165327784,0.0470306892217904,56.7,19.8,23.25
-1007.32422,-59.08203,-167.96875,0.0233155044115418,-0.0114579120064175,-0.0734104682010586,1.2,24.15,28.8,-57.12891,64.45313,1016.11328,0.0253139064050753,-0.007860613885132,0.1121806886060851,71.4,9.75,87.9,-779.29687,-81.05469,577.63672,-0.0927289940926083,0.0225161436141284,0.0141225061754373,56.7,20.1,23.7
-984.86328,-58.59375,-191.40625,0.0073277648644981,0.0249142260063686,-0.0854012292281101,1.2,24.15,28.8,-97.16797,68.84766,979.00391,-0.0085268060606182,-0.0339738810876208,0.0872664625997164,71.4,9.75,87.9,-787.59766,-73.73047,604.49219,-0.0674150876875329,0.0759418937481512,0.0213169278850831,56.4,19.35,24.3
-982.91016,-52.73438,-180.17578,0.0815375938629702,0.0074609334864253,-0.0094593354799588,1.35,23.7,30.0,-61.52344,116.21094,1012.20703,0.0496952833908101,-0.0253139064050753,0.0676814249313873,71.7,9.0,85.8,-799.31641,-80.56641,586.91406,-0.085934078248744,0.0430337107017981,-0.015055210127703,57.3,21.45,24.15
-998.53516,-43.45703,-177.73437,-0.023981696587028,0.0213169278850831,-0.0371714988101996,1.5,23.4,29.4,-67.38281,116.21094,1004.39453,0.0287778613715085,0.0054625314928918,0.1084502218628724,72.45,9.3,87.15,-801.75781,-84.96094,585.9375,-0.0174532925199432,0.0730107878023519,0.0122572728038309,57.3,21.45,24.15
-1018.55469,-25.39063,-184.57031,0.0463644970463041,-0.0185191650941362,-0.0278453319521679,1.8,24.15,29.1,-64.94141,116.69922,1004.88281,0.0109248884528585,0.059154618870769,0.0913966097416358,71.25,10.65,85.65,-799.80469,-87.89063,584.47266,0.0181194846954295,0.0787396565390981,-0.0194516945134768,55.8,21.45,24.6
-1015.13672,-30.76172,-180.17578,0.0178529729186499,-0.0956601000384076,0.0464976656682313,0.75,24.6,29.85,-77.14844,80.07813,1027.83203,-0.0025314255470925,0.1484196579969441,0.0704793622552594,71.55,8.85,87.45,-805.17578,-94.72656,587.40234,0.0536922619108023,0.0743429976203992,-0.011191400229638,56.7,20.55,24.3
-1017.57812,-5.85937,-174.80469,-0.0175864611418704,-0.0221164632154217,0.0098591904115907,0.75,24.6,29.85,-90.33203,72.26563,1007.8125,-0.0117244237831971,0.0766079113907123,0.0398360929792193,73.35,9.15,88.5,-817.38281,-95.21484,575.19531,0.023448673033469,0.1281684281531288,-0.0321086477160144,56.55,21.75,23.55
-1019.53125,-22.46094,-180.66406,-0.0582220894514284,-0.0382373713843925,0.0090596550812521,0.15,24.6,29.1,-101.5625,74.70703,1002.92969,0.025713586803782,0.1533491659362769,0.0358392889921523,71.4,9.75,86.85,-803.22266,-96.19141,557.61719,0.049162259837251,0.1032542021467601,-0.0699463387017003,57.3,20.25,23.55
-1002.44141,-18.06641,-175.29297,0.0023980823922402,-0.0947273960861418,0.0322419908708668,1.05,23.7,28.5,-80.07813,75.68359,988.28125,-0.023448673033469,0.0763415741468579,0.0358392889921523,71.4,9.75,86.85,-817.38281,-96.19141,555.66406,0.0923293136939016,0.1045865864977326,-0.0267794593779749,57.0,19.95,23.1
-999.02344,-9.76562,-182.61719,-0.0698131700797731,-0.0490290912153239,0.0480965617959833,1.05,24.75,28.5,-86.91406,64.94141,985.35156,0.0034639549664331,0.060753514998521,0.0210505906412288,70.8,9.6,87.45,-819.82422,-91.30859,559.08203,0.061419532641082,0.172401180051047,-0.0818039311068246,57.3,21.45,23.1
-1000.48828,-16.60156,-184.08203,-0.051827028539196,-0.0267794593779749,0.0105252080541518,1.65,24.0,28.5,-95.21484,76.66016,982.42187,0.0135896571548034,0.0848683802074762,0.0139893375535101,71.25,8.85,87.45,-823.73047,-97.65625,551.26953,0.1071178375118999,0.1016554805519333,-0.057422728654015,57.3,21.45,23.1
-985.83984,-7.8125,-186.52344,-0.0138559943986577,-0.0738101485997654,0.0389035635598788,1.65,24.0,28.5,-125.97656,70.80078,983.39844,0.0147886983509235,0.0483628990398376,-0.0178529729186499,71.7,9.0,85.5,-840.33203,-94.72656,564.94141,0.1493521874162847,0.1417580853079322,-0.131099534098928,57.3,21.45,23.1
-988.28125,-8.30078,-169.92187,-0.0732771250462063,-0.0269126279999021,0.0333078634450597,1.2,23.1,29.4,-118.16406,62.98828,987.30469,0.0133231453780239,0.0731439564242791,-0.0615528757959344,71.7,9.0,85.5,-847.16797,-95.70313,558.59375,0.1244379614099161,0.1244379614099161,-0.1077840296873862,56.7,20.1,25.05
-986.32812,-4.88281,-172.85156,-0.1287014517066878,0.0496952833908101,0.0322419908708668,-0.3,23.25,29.25,-142.57812,56.64063,997.07031,-0.0119907610270514,0.0377045223637587,-0.0271791397766816,71.1,10.05,86.1,-852.05078,-92.28516,547.85156,0.1017886491738605,0.0704793622552594,-0.1093829258151382,56.55,20.25,24.9
-975.58594,1.46484,-174.31641,-0.1127137121596442,0.0237151848102485,0.0246477142295891,0.0,24.3,30.0,-108.88672,71.77734,998.04687,0.0162542513238231,0.0074609334864253,-0.075275701572665,71.1,9.3,87.6,-867.67578,-77.63672,559.57031,0.1015221373970809,0.1237717692344298,-0.1137794102009119,57.15,20.1,23.25
-974.12109,-19.53125,-179.19922,-0.0767412545455646,-0.0067947413109391,0.0243813769857347,1.35,23.7,30.0,-120.60547,36.62109,1016.11328,0.0370383301882724,-0.0246477142295891,-0.0932618431132422,71.7,10.5,86.55,-862.30469,-82.51953,594.23828,0.1196416220925105,0.1047197551196597,-0.1028545217480534,56.55,20.7,23.55
-963.86719,-26.85547,-185.05859,-0.085934078248744,0.0646171503636608,0.0301102457224809,1.35,23.7,30.0,-100.09766,39.55078,1021.97266,-0.014522186574144,-0.0349065850398865,-0.075275701572665,71.7,10.5,86.55,-847.16797,-64.45313,581.05469,0.1028545217480534,0.0735436368229858,-0.1390934911389125,57.0,19.5,23.1
-957.03125,-44.92188,-187.5,-0.0627519169920545,0.0498284520127373,0.022382800459276,1.2,22.65,30.45,-119.62891,33.69141,1020.99609,0.0151883787496302,-0.0568897051004559,-0.041834669505678,72.3,9.9,85.65,-848.14453,-58.10547,593.26172,0.1517504443414501,0.0654165111610742,-0.0968591412345277,58.05,19.5,24.9
-984.375,-57.12891,-204.58984,-0.032375159492794,0.0858009096268168,-0.037970859607613,1.8,25.35,28.05,-109.375,37.59766,1016.11328,0.0858009096268168,-0.0452986244721112,-0.1429571265040523,72.15,11.25,86.55,-850.58594,-49.80469,605.46875,0.1197749652473628,0.0073277648644981,-0.1168438593015635,58.05,19.5,24.9
-984.375,-56.64063,-202.63672,-0.0459648166475974,0.10205516095064,-0.0131899767560967,0.3,24.3,29.55,-105.95703,45.89844,1009.76562,0.1149786259299572,-0.0415681577288985,-0.1289677889505422,72.15,11.25,86.55,-832.03125,-54.19922,570.3125,0.1521501247401568,0.0130566336012443,-0.0656830229378538,56.7,20.85,22.65
-1000.0,-34.17969,-199.21875,0.036238969390859,0.0504946441882235,-0.0467641774450108,0.45,22.65,28.05,-85.44922,67.87109,1025.39063,0.0967257980796753,-0.0131899767560967,-0.1039203943222463,70.35,8.55,85.5,-823.73047,-41.99219,581.05469,0.1184425808963904,0.0309096065198943,-0.0651499993842947,56.7,20.85,22.65
-1014.64844,-43.45703,-197.75391,0.0740764858436197,0.0177198042967228,-0.0107917198309313,0.45,22.65,28.05,-84.47266,69.82422,1023.92578,0.0579555776746489,-0.0370383301882724,-0.1224395594163826,70.65,10.05,85.5,-836.42578,-47.85156,573.73047,0.1308330223221485,0.0584886012282079,-0.0812710820861907,57.9,20.55,23.25
-1023.4375,-37.59766,-199.21875,0.0094593354799588,0.063684446411395,-0.034640073263107,0.6,24.3,30.3,-84.96094,54.6875,1004.88281,0.0303767574992605,-0.0369049870334201,-0.1521501247401568,72.0,10.05,85.05,-827.63672,-44.92188,584.47266,0.1524164619840112,0.0355727772153728,-0.0702128504784798,56.4,19.05,22.95
-1023.92578,-42.48047,-201.66016,0.0159877395470436,-0.0023980823922402,-0.051827028539196,1.35,24.0,29.55,-78.61328,63.47656,1008.30078,0.0094593354799588,0.0374380105869791,-0.1135130729570576,72.0,9.6,85.95,-833.98437,-30.76172,605.95703,0.091529778363563,0.031309286918601,-0.0691469779042869,56.7,19.8,24.0
-1011.23047,-33.69141,-178.71094,0.043566559722432,-0.0691469779042869,0.0037304667432126,0.45,23.85,30.15,-84.47266,76.66016,1009.27734,0.0539585991546566,0.0147886983509235,-0.1131133925583509,72.0,9.6,85.95,-824.70703,-32.22656,611.81641,0.1012558001532266,0.0214502710399355,-0.0475635382424242,57.0,20.25,23.55
-994.14062,-31.73828,-180.66406,0.0374380105869791,0.0161209081689708,-0.0254472495599277,2.25,23.4,29.85,-77.63672,90.82031,1006.83594,0.0774072721881257,0.0079939570399844,-0.1392266597608396,70.2,10.35,86.7,-834.47266,-44.92188,611.32812,0.1115144964305989,0.015055210127703,-0.0443659205198454,57.0,20.25,23.55
-998.53516,-40.52734,-164.55078,0.1099157748357721,-0.0038636353651398,0.0262466103573411,2.25,23.4,29.85,-78.125,109.86328,1023.92578,0.0576890658978693,0.049162259837251,-0.1441561677001724,70.8,9.15,85.65,-821.77734,-41.01563,608.88672,0.1031210335248329,-0.0091929982361045,-0.0539585991546566,57.45,20.1,22.95
-981.93359,-29.78516,-165.03906,0.0810045703094112,0.0027979373238721,0.0178529729186499,0.3,25.05,29.25,-70.3125,100.58594,1039.0625,0.0969923098564548,-0.002264913770313,-0.1561469287272238,72.15,8.25,86.1,-834.47266,-37.59766,610.83984,0.0992572236267679,0.0010658725741929,-0.0133231453780239,57.45,20.1,22.95
-986.81641,-41.50391,-168.94531,0.0394364125805126,0.0299770771005538,-0.0434333911005048,1.5,24.6,29.4,-76.17188,102.05078,1038.57422,0.1209740064434829,-0.0067947413109391,-0.1425574461053456,72.15,8.25,86.1,-844.23828,-53.71094,630.85937,0.1115144964305989,0.0291777163031404,-0.0471638578437175,56.55,19.95,22.5
-979.00391,-42.96875,-164.55078,0.0961929490590414,0.027312482931534,-0.0283781809728018,0.6,23.25,28.95,-73.24219,97.65625,1037.59766,0.0743429976203992,-0.0377045223637587,-0.1052526041402936,71.7,8.55,87.15,-838.86719,-42.96875,629.39453,0.1269693869570086,0.0209172474863764,-0.0394364125805126,57.9,20.55,22.2
-985.83984,-35.64453,-165.52734,0.1216401986189692,-0.0046631706954784,-0.0126569532025376,0.45,23.1,29.1,-135.25391,111.81641,970.70312,-0.0333078634450597,-0.2992373983861286,-0.0949939078629213,70.8,8.85,86.25,-816.89453,-43.94531,624.02344,0.1326982556937548,0.0508943245869302,0.0090596550812521,56.7,20.85,23.7
-979.00391,-40.52734,-152.83203,0.0278453319521679,0.0407687969314851,-0.0959264372822619,0.45,23.1,29.1,-18.06641,80.07813,1046.38672,-0.0181194846954295,-0.1644073975439878,-0.0471638578437175,70.8,8.85,86.25,-820.80078,-38.08594,611.32812,0.152283293362084,-0.0205175670876697,0.0042633157638465,56.4,19.05,23.25
-977.53906,-25.39063,-148.92578,0.0651499993842947,0.0588882816269146,-0.0382373713843925,0.3,25.05,28.2,-49.31641,77.14844,999.51172,0.0315757986953806,-0.0675482563094601,-0.0834028272345766,71.55,10.35,85.65,-815.42969,-20.99609,625.48828,0.1923858981180829,0.0271791397766816,0.0214502710399355,56.4,19.05,23.25
-982.91016,-31.25,-162.59766,0.0891316959713228,-0.0030642745677264,0.0007993607974134,1.5,24.15,30.45,-68.84766,91.30859,998.04687,0.0053291883380394,-0.0940612039106556,-0.1004564393558132,71.55,9.15,86.25,-793.94531,-25.87891,603.02734,0.225294081164436,0.0253139064050753,-0.0394364125805126,58.5,19.8,23.25
-978.51562,-29.78516,-156.25,0.0030642745677264,0.0173201238980161,-0.0659495347146333,0.6,23.7,28.95,-56.15234,102.05078,976.07422,0.0115910806283447,-0.1590780346730231,-0.1176432200989769,72.9,9.3,86.1,-802.24609,-3.90625,604.00391,0.1688040564626867,0.0293108849250675,0.0071944217096458,58.5,19.8,23.25
-979.49219,-42.48047,-158.69141,0.0231821612566894,0.0119907610270514,0.0454317930940384,2.1,23.7,30.3,-37.10938,112.30469,1002.44141,0.027312482931534,-0.1101822866125516,-0.0794058487145844,72.9,9.3,86.1,-797.36328,-11.23047,616.69922,0.1378942754098671,-0.0082602942838387,0.0049295079393327,58.5,19.8,23.25
-990.23437,-42.48047,-155.76172,0.0772741035661985,-0.0247810573844414,0.1160443239712249,2.1,23.7,30.3,-51.26953,116.69922,1014.16016,0.0349065850398865,-0.0635512777894679,-0.0818039311068246,70.35,10.5,86.55,-817.38281,-19.53125,606.44531,0.1457548892949992,0.0389035635598788,-0.0556906639043358,57.0,20.7,21.75
-1002.92969,-40.52734,-147.94922,0.0398360929792193,-0.0077274452632048,0.013456313999951,2.1,23.7,30.3,-43.94531,137.20703,1019.53125,0.0122572728038309,-0.0787396565390981,-0.1219065358628235,72.0,9.6,86.25,-827.63672,-3.90625,612.79297,0.0802052095119978,0.0161209081689708,-0.0082602942838387,55.8,20.25,23.85
-989.25781,-47.36328,-164.0625,0.0237151848102485,-0.0326416712695735,0.0599539796681824,2.25,24.6,29.85,-59.57031,129.39453,1014.16016,-0.0319754790940873,-0.0496952833908101,-0.0205175670876697,72.15,9.0,85.8,-812.98828,0.97656,627.44141,0.0684807857288007,0.0081271256619115,-0.0562235129249697,56.55,20.25,23.55
-988.76953,-35.64453,-155.27344,0.0499617951675896,-0.0261132672024887,0.0333078634450597,0.75,24.15,29.1,-52.24609,106.44531,1017.08984,-0.0499617951675896,-0.1100489434576992,-0.0439662401211387,72.15,9.0,85.8,-818.84766,-11.23047,613.76953,0.1147121141531777,0.0027979373238721,-0.0011990411961201,58.05,18.75,22.05
-976.07422,-32.22656,-155.76172,0.0107917198309313,-0.0086599746825454,0.0117244237831971,0.6,23.7,28.95,-48.33984,76.17188,1031.73828,0.014522186574144,-0.1169770279234907,0.0266462907560478,70.8,8.85,86.25,-815.42969,-20.50781,622.55859,0.1428239578821251,-0.007860613885132,-0.0199847180670358,58.05,18.75,22.05
-984.86328,-31.25,-163.08594,-0.0062618922903052,0.043566559722432,0.0107917198309313,0.45,24.6,29.1,-44.43359,76.17188,1025.39063,0.0305099261211876,-0.0822036115055313,-0.0333078634450597,71.4,9.0,86.85,-810.54687,-22.46094,621.09375,0.1903874961245494,0.0069280844657914,-0.016787100344457,57.3,20.7,24.15
-991.21094,-26.85547,-162.10937,0.0187856768709157,-0.0349065850398865,0.0358392889921523,0.45,24.6,29.1,-52.24609,71.77734,1018.55469,0.0047963393174056,-0.0885988469506889,-0.0551578148837019,72.3,8.1,86.25,-811.03516,-40.03906,592.77344,0.1418912539298594,0.0193185258915496,-0.0351730968166661,57.3,20.7,24.15
-989.25781,-33.20313,-161.62109,0.0011990411961201,-0.0182526533173567,-0.0089264864593249,0.45,22.65,28.8,-55.17578,58.59375,984.86328,0.040235773377926,-0.0664823837352672,-0.0233155044115418,72.45,8.55,87.6,-820.3125,-33.20313,608.39844,0.1164441789028568,0.0205175670876697,-0.0436999028772844,57.15,19.35,23.7
-988.28125,-34.17969,-161.13281,-0.0464976656682313,-0.0114579120064175,-0.0241148652089552,1.2,23.85,30.15,-56.64063,67.38281,989.74609,0.0479632186411309,-0.0401026047559989,-0.0631515973907612,72.0,9.6,86.25,-817.38281,-47.36328,594.23828,0.1501515482136981,-0.0030642745677264,-0.0198513749121835,57.15,18.6,23.25
-987.30469,-21.48438,-155.76172,-0.0369049870334201,-0.0599539796681824,0.005595700114819,1.35,23.7,28.95,-62.98828,107.91016,995.11719,0.058088746296576,-0.0928621627145355,-0.0526263893366094,71.55,9.6,86.7,-812.5,-48.33984,599.60937,0.1470872736459717,0.0105252080541518,-0.1116478395854512,57.45,18.3,22.65
-981.93359,-37.59766,-172.36328,-0.0627519169920545,-0.0956601000384076,0.0266462907560478,1.05,22.2,28.95,-64.45313,131.34766,1004.88281,0.0249142260063686,-0.0588882816269146,-0.0089264864593249,71.55,9.6,86.7,-823.73047,-42.48047,634.27734,0.1161776671260773,-0.0277121633302407,-0.1084502218628724,58.2,19.35,23.7
-968.75,-28.32031,-170.89844,-0.1160443239712249,0.0444992636746978,-0.0181194846954295,1.05,22.2,28.95,-92.28516,131.83594,995.11719,0.034640073263107,-0.0654165111610742,-0.0675482563094601,70.35,9.3,86.85,-816.40625,-52.73438,623.53516,0.1637412053685016,-0.0656830229378538,-0.0700796818565527,57.9,20.1,24.3
-975.58594,-42.48047,-142.57812,-0.0403691165327784,-0.0113245688515652,0.063018428768834,1.05,23.7,29.25,-86.42578,139.64844,1011.23047,0.0179861415405771,-0.1087167336396519,-0.0174532925199432,70.8,8.4,86.25,-820.80078,-46.875,625.0,0.143356806902759,-0.0271791397766816,-0.1025880099712739,56.55,20.25,22.05
-968.75,-40.52734,-141.11328,-0.0563568560798221,-0.0226493122360556,0.0275788201753884,1.35,23.25,28.95,-50.78125,109.375,1070.3125,0.0051960197161123,-0.2071745964690065,0.0062618922903052,70.65,9.75,86.1,-828.125,-51.75781,621.58203,0.1189754299170242,-0.0476967068643514,-0.0659495347146333,56.55,20.25,22.05
-958.49609,-46.875,-158.69141,-0.0674150876875329,0.0143890179522168,0.0425006871482391,0.75,21.6,28.8,-36.13281,61.03516,1041.01563,-0.0699463387017003,-0.1610766111994818,-0.0231821612566894,70.65,9.75,86.1,-828.125,-52.73438,603.51562,0.1460214010717788,-0.0375711792089063,-0.0760750623700784,57.6,18.75,22.5
-968.26172,-49.80469,-174.31641,-0.0018652333716063,0.0042633157638465,0.0744763407752516,1.2,23.85,30.15,-62.01172,16.11328,1015.13672,-0.1428239578821251,-0.1749326055981396,-0.0023980823922402,71.4,10.5,86.55,-845.21484,-53.71094,616.21094,0.1814610096652244,-0.0161209081689708,-0.068614128883653,56.7,20.55,23.25
-984.375,-57.61719,-185.05859,-0.0375711792089063,0.0135896571548034,0.0310429496747467,1.2,23.85,30.15,-49.80469,28.80859,1002.44141,-0.0851347174513306,-0.1468207618691921,-0.0097258472567384,71.7,9.3,86.55,-819.82422,-53.22266,624.02344,0.2049096826986934,-0.0486294108166172,-0.0285115241276541,57.6,19.95,24.15
-980.46875,-76.17188,-182.12891,-0.0411684773301918,0.0904640803222952,-0.0173201238980161,0.6,24.75,29.25,-49.31641,40.52734,1006.83594,-0.0169204434993094,-0.1382939558085739,-0.0751423584178126,69.9,9.75,87.9,-825.19531,-68.35938,595.70312,0.2195650378947646,-0.0644839817417337,-0.0500949637895168,57.0,19.5,23.85
-985.35156,-75.19531,-168.45703,0.0263797789792682,-0.005595700114819,0.0823369546603836,0.75,23.1,28.8,-58.10547,57.61719,987.30469,0.0755420388165193,-0.1213736868421896,-0.0415681577288985,69.45,9.6,87.0,-835.44922,-41.01563,607.91016,0.2613997074004427,-0.0563568560798221,-0.0446324322966249,57.0,19.2,23.1
-986.32812,-40.03906,-181.64062,0.0249142260063686,-0.0015987215948268,0.0315757986953806,1.05,22.95,29.25,-54.19922,67.38281,1001.95312,0.0916631215184153,-0.1839922606793918,-0.0652833425391471,70.5,9.15,87.0,-828.125,-41.99219,620.60547,0.2296907400831349,-0.0927289940926083,-0.0015987215948268,57.0,19.5,21.75
-962.89062,-37.10938,-170.41016,-0.0425006871482391,0.0937948666668012,0.0282450123508746,0.75,23.4,29.4,-60.05859,88.86719,1002.44141,0.0917962901403425,-0.1786630723413523,-0.05475795995207,69.9,10.05,86.1,-826.66016,-36.62109,602.05078,0.1680045211323481,-0.0459648166475974,-0.0415681577288985,57.0,19.5,21.75
-967.28516,-38.57422,-188.47656,-0.0393032439585855,0.0568897051004559,0.0293108849250675,0.75,23.4,29.4,-32.22656,90.82031,1012.69531,0.0282450123508746,-0.0941945470655079,-0.0130566336012443,69.9,10.05,86.1,-819.82422,-36.62109,623.04687,0.1891882803955041,-0.0610198522423753,-0.0421010067495324,58.05,19.5,23.55
-994.14062,-32.22656,-179.19922,0.0243813769857347,-0.0247810573844414,0.0452986244721112,0.75,23.4,28.8,-46.875,70.80078,1009.76562,0.0297105653237742,-0.1159111553492978,-0.0819372742616769,69.9,10.05,86.1,-809.57031,-47.36328,626.95312,0.1789295841181318,-0.0568897051004559,-0.0367718184114929,57.15,19.35,22.65
-1003.41797,-35.15625,-169.92187,-0.0528927265804637,0.0627519169920545,-0.0161209081689708,0.75,22.35,30.15,-39.0625,104.00391,1017.08984,-0.0511608363637097,-0.2544716229346512,-0.0644839817417337,70.65,7.8,86.1,-805.17578,-38.57422,607.91016,0.2133031456044594,-0.0728774446474996,-0.0635512777894679,57.15,20.1,22.65
-979.00391,-31.73828,-179.19922,-0.0165205885676775,0.0171867807431637,0.0496952833908101,1.2,24.15,28.05,-32.22656,91.30859,1033.20313,-0.0883323351739094,-0.1420244225517865,-0.0423675185263119,70.35,10.5,87.15,-795.41016,-32.71484,613.28125,0.2031776179490143,-0.1071178375118999,0.0259800985805615,56.55,20.1,22.65
-978.02734,-18.55469,-167.96875,-0.0182526533173567,-0.0202512298438154,0.0512940049856369,1.05,24.3,28.5,-50.29297,61.03516,1018.55469,-0.0832694840797242,-0.1297671497479555,-0.0005328490206338,71.4,9.3,86.1,-806.64062,-4.88281,591.30859,0.2470106894482258,-0.0747426780191059,-0.0101255276554451,56.55,19.2,22.8
-982.91016,-23.92578,-174.80469,-0.0624854052152749,0.0271791397766816,0.0158545709251164,1.05,24.3,28.5,-41.99219,60.54688,1048.33984,-0.049162259837251,-0.1445558480988791,-0.03064326927604,71.4,9.3,86.1,-803.22266,5.85937,583.00781,0.1822603704626378,-0.0486294108166172,-0.0604870032217414,57.15,19.05,21.9
-984.375,-7.32422,-194.33594,-0.0624854052152749,0.0054625314928918,-0.0187856768709157,0.15,24.15,29.1,-46.875,70.3125,1022.94922,-0.0287778613715085,-0.1099157748357721,-0.0291777163031404,71.25,11.1,87.45,-798.82812,0.0,618.65234,0.1406922127337393,-0.0679479367081668,-0.011191400229638,58.05,19.95,21.75
-991.21094,-27.34375,-177.24609,-0.0151883787496302,0.0009327039522657,0.0612863640191548,0.6,24.0,28.5,-36.62109,64.94141,1006.34766,-0.0137228257767306,-0.113246561180278,-0.0199847180670358,69.6,8.25,87.6,-821.28906,3.90625,602.05078,0.0848683802074762,-0.0315757986953806,-0.0165205885676775,58.05,19.95,21.75
-993.16406,-29.29688,-179.19922,-0.0532925815120956,0.0130566336012443,0.0214502710399355,0.45,23.1,28.35,-35.15625,69.82422,1007.32422,0.0218499514386422,-0.1003230962009608,-0.0199847180670358,70.65,10.8,87.9,-801.26953,-20.50781,598.14453,0.0327748398915007,-0.0225161436141284,-0.0464976656682313,58.05,20.25,22.5
-989.25781,-49.80469,-183.59375,-0.0434333911005048,0.0229158240128351,0.0083936374386911,1.8,23.85,29.4,-31.25,62.5,1042.96875,0.0253139064050753,-0.1081837100860929,-0.0475635382424242,71.25,9.9,87.45,-815.91797,-23.4375,609.375,0.0528927265804637,-0.0618192130397887,-0.0175864611418704,58.2,19.05,22.65
-993.65234,-55.66406,-188.47656,0.0331745202902074,-0.0682144484849463,0.0093261668580317,1.8,23.85,29.4,-41.50391,82.03125,1039.0625,-0.0039969785199922,-0.0594211306475485,-0.0326416712695735,71.1,9.75,86.85,-814.45312,4.88281,584.47266,0.1044532433428802,0.0238483534321757,-0.0139893375535101,56.25,19.5,22.5
-998.53516,-64.45313,-182.12891,-0.0159877395470436,-0.0506278128101507,-0.0297105653237742,1.35,23.25,29.25,-37.10938,68.35938,1041.50391,-0.0270459711547545,-0.0889985273493956,-0.0097258472567384,69.9,9.3,87.6,-785.64453,18.06641,571.77734,0.1412250617543731,-0.0166539317225298,0.0125237845806105,57.45,20.1,22.65
-1008.30078,-75.68359,-185.54687,0.0399694361340717,-0.0293108849250675,-0.0335742006889141,1.2,24.15,31.2,-37.59766,43.94531,995.60547,-0.0578224090527217,-0.079272505559732,0.022382800459276,69.9,9.3,87.6,-792.48047,23.92578,562.01172,0.1422909343285661,-0.0085268060606182,0.0519601971611231,57.45,19.05,22.65
-1023.4375,-93.26172,-182.12891,0.0588882816269146,-0.0688804661275074,-0.0423675185263119,1.2,24.15,29.1,-51.75781,55.66406,964.35547,-0.0215834396618626,-0.0203843984657425,-0.011191400229638,70.5,8.85,86.7,-796.875,43.94531,541.99219,0.1406922127337393,0.0550244717288496,0.0863337586474507,58.2,18.6,23.7
-1024.41406,-64.45313,-190.42969,0.0548913031069224,-0.0471638578437175,-0.0390367321818059,0.75,23.85,29.4,-59.08203,62.98828,978.51562,0.0243813769857347,0.0115910806283447,-0.0029311059457992,70.8,10.35,86.7,-811.03516,36.13281,557.12891,0.0802052095119978,0.0576890658978693,0.0478300500192038,58.2,18.6,23.7
-1017.08984,-46.875,-181.64062,0.0816707624848974,-0.0643506385868813,-0.0119907610270514,0.75,23.85,29.4,-48.82813,41.50391,979.98047,0.1116478395854512,0.027312482931534,-0.0423675185263119,69.6,9.75,87.6,-820.80078,22.46094,551.26953,-0.0043966589186989,0.0403691165327784,0.0162542513238231,57.45,19.05,23.25
-1018.55469,-40.52734,-196.77734,0.0780734643636119,-0.063684446411395,0.0423675185263119,-0.45,23.1,29.85,-52.24609,66.89453,999.02344,0.0728774446474996,0.0510274932088574,-0.034640073263107,69.6,9.75,87.6,-832.03125,6.34766,544.92187,-0.0534257501340228,0.0943277156874351,0.0241148652089552,57.15,19.8,23.25
-1005.37109,-40.03906,-180.66406,0.0868667822010097,-0.0778071271197576,0.0299770771005538,0.6,23.7,29.55,-57.12891,102.05078,1010.74219,0.0748760211739583,0.0265129476011954,-0.0071944217096458,69.9,9.75,88.35,-834.47266,4.88281,563.47656,-0.1111148160318922,0.0326416712695735,0.032908183046353,55.65,19.8,22.65
-974.60937,-22.46094,-165.03906,0.0261132672024887,-0.0479632186411309,0.0057288687367461,2.1,22.95,29.25,-84.47266,108.39844,993.16406,0.0586217698501351,0.0602204914449619,-0.0115910806283447,71.1,9.3,86.85,-843.26172,17.57813,569.82422,-0.0751423584178126,0.0141225061754373,0.031309286918601,57.15,18.3,22.65
-977.05078,-45.41016,-176.26953,0.0147886983509235,-0.0506278128101507,0.0189188454928429,0.0,23.7,29.25,-71.28906,101.5625,1001.46484,0.0738101485997654,0.068614128883653,0.0478300500192038,72.15,8.25,86.55,-838.37891,4.39453,551.26953,-0.0442327518979182,0.0704793622552594,0.08420218803199,58.2,18.3,23.25
-979.98047,-48.82813,-189.94141,0.0393032439585855,-0.0559571756811154,-0.015055210127703,0.0,23.7,29.25,-89.35547,94.72656,1004.39453,0.0367718184114929,0.0748760211739583,0.063018428768834,70.65,8.25,88.35,-852.53906,12.20703,585.9375,-0.0643506385868813,0.0480965617959833,0.0968591412345277,57.0,19.95,22.5
-974.60937,-45.41016,-180.17578,0.0011990411961201,0.0375711792089063,0.0386370517830992,0.0,23.7,29.25,-80.07813,89.84375,1025.39063,-0.0002665117767795,0.0856677410048896,0.0576890658978693,69.0,8.4,88.5,-848.63281,7.32422,571.28906,-0.1124472003828646,-0.0059953805135257,0.0618192130397887,57.0,19.95,22.5
-988.76953,-37.10938,-185.54687,0.0506278128101507,0.0197182062902563,0.0373046674321268,1.2,23.85,29.85,-81.05469,94.23828,1044.43359,0.0130566336012443,0.0595542992694757,0.1060521394706322,70.65,9.75,86.85,-850.58594,15.13672,582.51953,-0.1462879128485583,0.0293108849250675,0.064750318985588,56.55,19.95,23.55
-971.19141,-41.01563,-174.80469,0.0070612530877186,0.039569755735365,0.0687472975055802,0.45,24.15,29.1,-64.94141,81.54297,1038.57422,0.0139893375535101,0.0494287716140306,0.0989908863829135,70.65,9.75,86.85,-842.28516,-3.90625,603.51562,-0.1720014996523403,0.0508943245869302,0.0202512298438154,56.55,19.95,23.55
-964.35547,-40.52734,-182.12891,-0.0193185258915496,0.141091893132446,0.0113245688515652,0.0,24.3,28.95,-72.26563,65.91797,1027.83203,0.0250473946282958,0.0905972489442224,0.0843353566539172,70.65,9.75,86.85,-852.53906,2.92969,585.9375,-0.1950504922871027,0.0117244237831971,0.0440995832759911,57.15,20.55,22.95
-991.69922,-48.33984,-186.52344,0.0421010067495324,0.0730107878023519,0.0523598775598298,0.3,23.25,28.95,-52.24609,74.70703,1011.71875,0.0634181091675407,0.0700796818565527,0.0782068075184643,69.9,10.05,88.35,-825.68359,-8.78906,568.35937,-0.15561407970659,0.0026645941690197,0.063684446411395,58.8,18.75,23.85
-1009.76562,-25.87891,-186.03516,-0.0191853572696224,0.0883323351739094,0.0720780838500862,0.3,23.25,28.95,-54.19922,83.00781,1003.41797,0.0642174699649541,0.1125803690047918,0.0471638578437175,71.25,8.4,87.0,-827.14844,-30.27344,570.3125,-0.1249709849634751,0.0121241041819038,0.0714118916745999,57.3,19.2,23.55
-1019.53125,-20.99609,-201.66016,-0.04849624219469,0.0883323351739094,-0.0265129476011954,1.5,24.6,30.45,-34.17969,99.60938,1031.73828,0.1211071750654101,0.4512541799714331,0.06634921511334,71.25,8.4,87.0,-817.87109,-37.10938,568.35937,-0.1197749652473628,-0.0043966589186989,0.0993905667816202,56.7,18.3,22.2
-1018.55469,-36.62109,-210.9375,-0.025713586803782,0.0246477142295891,0.0319754790940873,-0.15,22.65,28.05,-85.9375,77.14844,958.00781,0.0062618922903052,0.1013889687751538,0.1025880099712739,71.4,7.8,86.85,-813.96484,-26.85547,566.89453,-0.0687472975055802,0.0255804181818548,0.1208406632886305,56.7,18.3,22.2
-994.14062,-22.46094,-189.94141,-0.0042633157638465,0.0231821612566894,0.0266462907560478,0.45,24.15,29.85,-55.66406,102.53906,987.79297,-0.0050628510941851,0.10205516095064,0.0779402957416847,69.75,9.6,87.45,-819.33594,-15.625,602.05078,-0.1550812306859561,0.0033307863445059,0.1213736868421896,56.7,18.3,22.2
-981.44531,-43.45703,-182.61719,-0.0712787230526728,0.0318423104721601,0.0001331686219271,0.6,23.7,28.5,-35.15625,72.26563,993.16406,0.0079939570399844,0.134430320443434,0.0983246942074273,71.55,9.15,87.45,-799.31641,-23.92578,591.79687,-0.1509510835440367,0.004529827540626,0.0439662401211387,57.15,20.85,23.25
-978.51562,-38.57422,-179.6875,0.0035972981212855,-0.0001331686219271,-0.0074609334864253,0.6,23.7,28.5,-50.78125,79.10156,1019.04297,0.0460979852695246,0.1586783542743164,0.0850015488294034,71.55,9.15,87.45,-803.22266,-5.85937,613.28125,-0.1865236862264844,0.0186523337160634,0.059687642424328,57.15,20.85,23.25
-980.46875,-48.82813,-186.03516,0.0238483534321757,0.005595700114819,0.0760750623700784,0.3,24.75,27.9,-30.76172,80.07813,1020.50781,0.0123904414257581,0.177330862523305,0.0834028272345766,70.35,8.55,87.6,-806.64062,-29.78516,621.58203,-0.2256937615631427,-0.0271791397766816,0.068614128883653,56.1,18.3,23.7
-991.69922,-51.26953,-182.12891,0.0159877395470436,0.0269126279999021,-0.025713586803782,0.6,24.75,28.5,-44.43359,81.05469,1038.57422,0.0110582316077108,0.1560137601052967,0.0850015488294034,69.9,8.55,86.55,-817.87109,-46.875,610.35156,-0.1283017713079811,0.0214502710399355,0.0534257501340228,58.35,21.45,23.55
-1007.8125,-25.87891,-190.42969,0.0013323843509724,0.0443659205198454,-0.0778071271197576,-0.75,24.15,28.35,-42.48047,83.98438,1028.32031,-0.0129234649793172,0.1618759719968953,0.1093829258151382,69.9,8.55,86.55,-832.51953,-30.76172,615.72266,-0.1285681085518354,0.0193185258915496,0.0746095093971788,56.55,19.2,23.1
-1012.69531,-13.67187,-178.71094,0.0090596550812521,-0.0069280844657914,-0.0478300500192038,0.15,24.15,28.35,-33.20313,83.49609,1022.94922,-0.0298437339457014,0.1708024584562202,0.1201746456460695,70.8,9.6,85.95,-806.15234,-27.34375,617.67578,-0.1260366830047429,0.0033307863445059,0.0406354537766327,58.35,20.25,23.1
-1009.76562,-8.78906,-169.43359,-0.0235820161883213,-0.0314426300734534,-0.0074609334864253,0.15,24.15,28.35,-51.75781,79.58984,1004.39453,-0.0007993607974134,0.1686707133078344,0.0687472975055802,70.65,9.3,87.9,-793.94531,-35.15625,589.84375,-0.0690138092823597,0.0341072242424731,0.1305666850782942,58.35,20.25,23.1
-1011.23047,-4.39453,-176.26953,-0.0544916227082157,-0.0409019655534123,-0.0003996803987067,0.75,23.1,27.3,-33.20313,80.56641,1004.88281,-0.0107917198309313,0.1229724084370164,0.0822036115055313,70.8,10.35,86.7,-805.17578,-19.04297,600.58594,-0.1512174207878911,0.0576890658978693,0.0651499993842947,55.2,18.75,24.15
